"Time (s)","Linear Acceleration x (m/s^2)","Linear Acceleration y (m/s^2)","Linear Acceleration z (m/s^2)"
0.000000000E0,-7.475981861E-2,4.147025049E-1,2.373695374E-3
1.000000000E-2,-7.463993877E-2,4.143570065E-1,2.360343933E-3
2.000000000E-2,-6.496031582E-2,4.020385444E-1,4.741668701E-3
3.000000000E-2,-7.931660861E-2,4.040209651E-1,7.121086121E-3
4.000000000E-2,-7.207260281E-2,4.084600210E-1,1.429080963E-2
5.000000000E-2,-6.951929629E-2,3.937513530E-1,7.095336914E-3
6.000200000E-2,-7.185034454E-2,3.981708288E-1,2.292633057E-3
7.000200000E-2,-6.454540789E-2,3.882484138E-1,-2.508163452E-3
8.000200000E-2,-7.166877389E-2,4.047174156E-1,9.452819824E-3
9.000200000E-2,-7.641479373E-2,4.163577259E-1,4.651069641E-3
1.000020000E-1,-8.586887270E-2,3.872612119E-1,-7.332801819E-3
1.100020000E-1,-6.903882325E-2,3.963713646E-1,7.015228271E-3
1.200020000E-1,-6.659395993E-2,4.006919861E-1,4.602432251E-3
1.300020000E-1,-5.929442123E-2,4.004051089E-1,6.986618042E-3
1.400020000E-1,-5.678308010E-2,4.025124609E-1,-2.069473267E-4
1.500020000E-1,-6.870386750E-2,3.948616982E-1,1.653575897E-2
1.600020000E-1,-7.085510343E-2,3.968594670E-1,6.944656372E-3
1.700028330E-1,-7.086607814E-2,3.844744861E-1,1.171684265E-2
1.800028330E-1,-6.356115639E-2,3.984948397E-1,9.310722351E-3
1.900028330E-1,-6.641307473E-2,3.518749774E-1,1.273250580E-2
2.000028330E-1,-6.027164310E-2,3.164433241E-1,6.855964661E-3
2.100028330E-1,-4.023495317E-2,2.941115201E-1,-1.194953918E-3
2.200028330E-1,-4.009045660E-2,2.509300709E-1,2.902030945E-3
2.300028330E-1,-1.900398359E-2,2.441550344E-1,-4.829406738E-3
2.400028330E-1,-3.219517693E-2,1.968060434E-1,-7.658004761E-3
2.500033710E-1,-3.130706027E-2,2.046468705E-1,-7.997512817E-3
2.600033710E-1,-2.828595042E-2,1.664514691E-1,1.088619232E-2
2.700033710E-1,-2.801591903E-2,1.327492446E-1,-1.293182373E-3
2.800033710E-1,-2.797184139E-2,1.249006391E-1,-1.452445984E-3
2.900033710E-1,-4.003535211E-2,1.331580430E-1,1.039791107E-2
3.000033710E-1,-1.367121190E-2,1.162456572E-1,-1.665115356E-3
3.100038370E-1,-1.879846677E-2,1.027842909E-1,6.580352783E-4
3.200038370E-1,-2.177694067E-2,8.077140898E-2,-1.790046692E-3
3.300040370E-1,-2.718866244E-2,8.627209067E-2,-6.616592407E-3
3.400040370E-1,-8.645996451E-3,8.529841900E-2,-4.247665405E-3
3.500040370E-1,-4.813473672E-3,8.506841213E-2,7.703781128E-3
3.700035700E-1,-2.174240723E-2,5.499225482E-2,2.894401550E-3
3.800035700E-1,-6.195675582E-3,5.415920913E-2,1.725769043E-2
3.900035700E-1,4.335492849E-3,6.096554175E-2,-4.290580750E-3
4.000035700E-1,-4.643738270E-3,3.937068954E-2,2.893447876E-3
4.100035700E-1,1.023884863E-2,2.318794094E-2,2.895355225E-3
4.200040360E-1,9.568333626E-4,4.119848460E-2,-1.865005493E-2
4.300040360E-1,8.402183652E-3,3.785493970E-2,-1.887321472E-3
4.400040360E-1,-2.268914133E-2,1.793279685E-2,5.299568176E-3
4.500040360E-1,-7.993251085E-3,2.012890950E-2,1.009273529E-2
4.600040360E-1,-7.629044354E-3,1.791240275E-2,-4.266738892E-3
4.800035360E-1,-1.715593040E-3,9.228412062E-3,-6.647109985E-3
4.900035360E-1,1.315513253E-2,1.234059781E-2,-6.639480591E-3
5.000035360E-1,3.819569945E-3,1.796727628E-2,5.336761475E-3
5.100035360E-1,-9.049102664E-4,2.150213346E-2,2.946853638E-3
5.200035360E-1,-7.975466549E-3,5.748217925E-3,2.950668335E-3
5.300035360E-1,1.875832677E-3,1.177018881E-2,2.955436707E-3
5.400035360E-1,2.014242113E-3,1.087527722E-2,2.959251404E-3
5.600035350E-1,-5.126431584E-3,9.070262313E-3,-4.218101501E-3
5.700035350E-1,2.207957208E-3,2.742890082E-2,5.731582642E-4
5.800035350E-1,4.644080997E-3,-2.518225461E-3,7.761001587E-3
5.900035350E-1,-1.215477288E-2,-7.898828015E-3,7.761955261E-3
6.000035350E-1,1.937150955E-6,-1.071311533E-2,-2.575492859E-2
6.200030680E-1,-2.347856760E-3,8.365612477E-3,1.255416870E-2
6.400028680E-1,-2.026185393E-4,1.036996022E-2,-8.995056152E-3
6.500028680E-1,6.832771003E-3,9.927541018E-3,-8.994102478E-3
6.600028680E-1,1.710385084E-3,2.152662724E-3,-4.205703735E-3
6.700033680E-1,6.262898445E-3,8.749730885E-3,-1.811981201E-3
6.800033680E-1,-2.243179828E-2,1.597443968E-2,-4.205703735E-3
6.900033680E-1,-8.034624159E-3,8.322201669E-3,1.016044617E-2
7.000033680E-1,-1.025003940E-2,-1.871909946E-3,1.734828949E-2
7.100033680E-1,-5.059592426E-3,4.885822535E-3,-6.590843201E-3
7.300029010E-1,-6.930559874E-3,-2.432147413E-2,2.991676331E-3
7.400029010E-1,1.232679933E-2,1.943934709E-3,-1.795768738E-3
7.500029010E-1,5.180545151E-3,-1.477416977E-2,-1.795768738E-3
7.600029010E-1,9.851954877E-3,-7.598735392E-3,7.781028748E-3
7.700029010E-1,-1.877624542E-2,-4.874840379E-4,7.781982422E-3
7.800029010E-1,5.431443453E-3,7.145740092E-3,-1.137256622E-2
7.900029010E-1,-2.320090681E-2,4.738111049E-3,5.989074707E-4
8.000029010E-1,1.084609330E-2,2.398837358E-3,-6.580352783E-3
8.100029340E-1,-8.390143514E-3,-2.335965633E-3,6.017684937E-4
8.200029340E-1,-3.482833505E-3,-7.136177272E-3,6.036758423E-4
8.300029340E-1,3.795310855E-3,2.486731857E-3,7.786750793E-3
8.400029340E-1,-1.518153399E-2,7.267348468E-3,-6.577491760E-3
8.500029340E-1,-2.705246210E-3,-2.216976136E-3,3.003120422E-3
8.700024670E-1,-4.465490580E-3,2.790853381E-3,-1.783370972E-3
8.800024670E-1,-8.699633181E-3,-6.847620010E-3,6.160736084E-4
8.900024670E-1,-1.047158986E-2,-1.392971724E-2,-6.563186646E-3
9.000024670E-1,-1.726160944E-2,-4.050914198E-3,3.016471863E-3
9.100024670E-1,-1.667199284E-2,-3.756038845E-3,3.019332886E-3
9.200029330E-1,7.252655923E-3,1.058901474E-2,1.020145416E-2
9.300029330E-1,7.662400603E-3,7.641687989E-4,1.020622253E-2
9.400029330E-1,1.488443464E-2,7.669217885E-4,5.417823792E-3
9.500029330E-1,-9.286589921E-3,3.586411476E-4,-8.947372437E-3
9.600029330E-1,1.954782754E-2,-9.290132672E-3,-1.373481750E-2
9.800024330E-1,2.281956375E-3,2.142377198E-4,1.020336151E-2
9.900024330E-1,2.342008054E-3,1.986622810E-4,1.020431519E-2
1.000002433E0,2.378731966E-3,-2.153508365E-3,6.275177002E-4
1.010002433E0,1.195587218E-2,1.939503476E-2,-1.767158508E-3
1.020002433E0,-9.934462607E-3,-2.333674580E-3,-6.558418274E-3
1.040002099E0,-2.734564245E-3,4.889801145E-3,3.020286560E-3
1.050002099E0,6.352029741E-3,9.960383177E-3,-1.853370667E-2
1.060002565E0,-1.049023122E-2,2.830646932E-3,-4.168510437E-3
1.070002565E0,-5.717247725E-3,5.165044218E-3,6.198883057E-4
1.080002565E0,1.521758735E-3,4.198737442E-4,7.802963257E-3
1.090002565E0,6.479941308E-3,1.250093803E-2,-4.166603088E-3
1.100002565E0,-2.939105034E-3,1.728072762E-2,-4.166603088E-3
1.120002531E0,1.882292330E-3,4.820499569E-3,-6.559371948E-3
1.130002531E0,-5.261071026E-3,-1.492043957E-2,3.021240234E-3
1.140002531E0,4.368357360E-3,4.335805774E-3,-6.556510925E-3
1.150002531E0,-5.254261196E-3,-5.735691637E-3,1.259994507E-2
1.160002531E0,-1.238222420E-2,-2.003856748E-2,-8.948326111E-3
1.170003031E0,-1.684603095E-2,-7.632572204E-3,-8.947372437E-3
1.180003031E0,-1.156974584E-2,1.426265016E-2,-6.551742554E-3
1.190003497E0,1.060757786E-2,-1.000836492E-4,-1.758575439E-3
1.200003497E0,-3.253206611E-3,-4.796076566E-3,3.034591675E-3
1.210003497E0,-7.924363017E-3,7.183253765E-3,-6.542205811E-3
1.230003030E0,-3.050878644E-3,-2.486243844E-3,3.036499023E-3
1.240003030E0,6.917469203E-3,-9.348183870E-3,3.037452698E-3
1.250003496E0,1.655466855E-2,-2.180859447E-3,-6.539344788E-3
1.260003496E0,1.145684719E-2,-6.459288299E-3,-8.936882019E-3
1.270003496E0,-7.997289300E-3,-1.297317445E-3,-6.546974182E-3
1.280003496E0,6.485924125E-3,5.893643945E-3,-1.757621765E-3
1.290003496E0,1.268133521E-3,-3.436900675E-3,-1.133918762E-2
1.300003496E0,1.773326844E-2,-7.474496961E-4,3.024101257E-3
1.310003996E0,5.340568721E-3,-7.801171392E-3,-1.768112183E-3
1.320003996E0,5.322284997E-3,-7.821943611E-3,-1.769065857E-3
1.330004329E0,5.437158048E-3,-5.380533636E-3,3.021240234E-3
1.340004329E0,1.985381544E-2,6.712462753E-3,-1.134490967E-2
1.350004329E0,9.726196527E-3,-5.256358534E-3,6.227493286E-4
1.370003862E0,9.284004569E-3,9.256813675E-3,-1.775741577E-3
1.380003862E0,1.633092761E-3,-2.765066922E-3,-6.567001343E-3
1.390003862E0,5.929909647E-3,-5.152557045E-3,1.497650146E-2
1.400003862E0,1.181848347E-3,1.159048826E-2,-1.781463623E-3
1.410003862E0,-2.032209933E-2,-2.850554883E-3,1.976776123E-2
1.420004328E0,-1.780901849E-2,-7.650673389E-3,-1.780509949E-3
1.430004328E0,-5.747608840E-3,2.050455660E-3,-1.135730743E-2
1.440004328E0,-1.053477079E-2,6.819747388E-3,6.141662598E-4
1.450004328E0,-1.288203895E-2,4.605665803E-3,3.007888794E-3
1.460004328E0,-1.278677583E-2,7.045697421E-3,-1.780509949E-3
1.480003828E0,9.360797703E-3,9.303554893E-3,5.407333374E-3
1.500003361E0,1.167806238E-2,6.884403527E-3,-1.614093781E-2
1.510003361E0,-5.227729678E-3,-7.599182427E-4,6.189346313E-4
1.520003361E0,6.798461080E-3,1.697063446E-3,-8.957862854E-3
1.530003361E0,-2.742089331E-3,-7.838208228E-3,-8.956909180E-3
1.540003361E0,-9.860880673E-3,-7.295943797E-4,5.408287048E-3
1.560003360E0,-9.490408003E-3,1.709070057E-3,5.411148071E-3
1.570003360E0,4.872575402E-3,8.930962533E-3,3.017425537E-3
1.580003360E0,1.209469140E-2,1.751039177E-3,6.227493286E-4
1.590003360E0,-2.214834094E-3,8.976999670E-3,1.020050049E-2
1.600003360E0,-6.966777146E-3,1.620172337E-2,-1.770973206E-3
1.620002860E0,2.581864595E-3,-3.406122327E-3,6.246566772E-4
1.630002860E0,-4.620447755E-3,-1.059011556E-2,-4.163742065E-3
1.640002860E0,1.457805932E-2,1.088256761E-2,6.246566772E-4
1.650002860E0,-5.063943565E-3,9.583607316E-4,-1.771926880E-3
1.660002860E0,2.095423639E-3,-1.378446817E-3,-1.613712311E-2
1.670002926E0,1.165434718E-2,3.389362246E-3,7.805824280E-3
1.680002926E0,1.710705459E-3,-1.502294093E-3,-8.956909180E-3
1.690002926E0,1.692488790E-3,-8.705928922E-3,-1.774787903E-3
1.700002926E0,-1.255435497E-2,1.761952788E-2,-4.167556763E-3
1.710002926E0,-1.251922548E-2,8.103612810E-3,7.803916931E-3
1.730002459E0,-5.073972046E-3,7.708523422E-3,-1.770019531E-3
1.740002459E0,-5.015306175E-3,-1.144181378E-2,-1.770019531E-3
1.750002459E0,1.651887596E-2,-1.944232732E-3,-6.558418274E-3
1.760002459E0,-2.481341362E-3,-9.077366441E-3,-1.613426208E-2
1.770002459E0,-9.609319270E-3,1.732243598E-2,-4.161834717E-3
1.780002459E0,2.398498356E-3,1.257550716E-2,-6.556510925E-3
1.790002459E0,-2.239838243E-3,-7.059991360E-3,-1.766204834E-3
1.800002459E0,1.224061847E-2,-2.224255353E-3,6.294250488E-4
1.810002925E0,-1.411204785E-2,-4.678733647E-3,5.417823792E-3
1.820002925E0,5.633071065E-3,1.206165180E-2,6.341934204E-4
1.830002925E0,-1.114895195E-2,4.916798323E-3,1.260566711E-2
1.840002925E0,8.288569748E-3,1.168645173E-2,3.032684326E-3
1.850002925E0,-8.544348180E-3,-2.762641758E-3,7.820129395E-3
1.870002458E0,1.083035022E-2,-7.615055889E-3,-1.755714417E-3
1.880002458E0,3.746718168E-3,-7.627997547E-3,3.034591675E-3
1.890002458E0,-2.007725835E-2,6.726015359E-3,-1.133060455E-2
1.900002458E0,1.821308583E-2,-5.265887827E-3,-6.542205811E-3
1.910002458E0,6.237745285E-3,1.975756139E-3,-6.542205811E-3
1.920002924E0,2.542854473E-2,-7.559437305E-3,-1.754760742E-3
1.930002924E0,5.768112838E-3,-7.337737828E-3,-8.940696716E-3
1.940002924E0,-1.905173063E-3,1.449266821E-2,-1.763343811E-3
1.950002924E0,2.202202007E-2,-2.327136695E-3,5.419731140E-3
1.960002924E0,-5.226954818E-3,7.365852594E-3,-1.770019531E-3
1.970003357E0,1.637252420E-2,7.487475872E-3,-8.952140808E-3
1.980003357E0,-5.538426340E-3,2.537306398E-3,-1.374244690E-2
1.990003357E0,8.816920221E-3,7.187701762E-3,-4.165649414E-3
2.000003357E0,4.084542394E-3,-7.134556770E-3,-1.771926880E-3
2.010003690E0,-1.065037400E-2,4.772629589E-3,-1.773834229E-3
2.020003690E0,6.161600351E-3,-1.188582741E-2,-1.853466034E-2
2.030003690E0,-8.620202541E-3,-1.901784167E-2,5.405426025E-3
2.040003690E0,8.121557534E-3,4.904333502E-3,-8.959770203E-3
2.050003690E0,3.368407488E-3,7.360279560E-3,1.258850098E-2
2.060004156E0,-8.664369583E-3,-1.654740050E-2,-1.135444641E-2
2.070004156E0,-6.293565035E-3,2.699904144E-4,-6.567001343E-3
2.080004156E0,3.279805183E-3,-2.065233886E-3,5.404472351E-3
2.090004156E0,-1.349452138E-2,-1.172206365E-2,-4.171371460E-3
2.100004156E0,-3.639683127E-3,7.987320423E-4,1.019287109E-2
2.120003689E0,1.119828969E-2,1.381177455E-3,6.170272827E-4
2.130003689E0,4.114583135E-3,-5.814559758E-3,1.019573212E-2
2.140003689E0,-5.462430418E-3,1.094550267E-2,-8.957862854E-3
2.150003689E0,8.454382420E-3,6.402138621E-3,-1.780509949E-3
2.160003689E0,1.310728490E-3,-5.566544831E-3,1.019096375E-2
2.170004155E0,1.233838499E-3,-5.591221154E-3,-4.174232483E-3
2.180004155E0,-5.835339427E-3,1.658454537E-3,-8.962631226E-3
2.190004155E0,1.329302788E-3,-5.545113236E-3,-1.780509949E-3
2.200004155E0,8.512169123E-3,6.426330656E-3,6.141662598E-4
2.210004155E0,-1.066025347E-2,-1.035440899E-2,-8.962631226E-3
2.230003688E0,-5.728274584E-3,-8.049000055E-3,-1.135540009E-2
2.240003688E0,1.661874354E-3,-5.227968097E-3,3.010749817E-3
2.250003688E0,-1.984607428E-2,-5.244776607E-3,7.799148560E-3
2.260003688E0,-7.815957069E-3,1.151915267E-2,-1.135540009E-2
2.280003188E0,9.512834251E-3,1.960773021E-3,-2.332305908E-2
2.290003188E0,-4.876278341E-3,2.018235624E-3,6.198883057E-4
2.300003188E0,7.559537888E-3,6.621558219E-3,3.019332886E-3
2.310003321E0,1.253103465E-2,3.846667707E-3,-1.768112183E-3
2.320003321E0,-1.854225993E-3,-1.052036323E-2,1.020336151E-2
2.330003321E0,1.023210585E-2,-5.684521049E-3,3.022193909E-3
2.340003321E0,1.229237020E-2,6.579291075E-3,5.413055420E-3
2.350003321E0,5.087420344E-3,-2.959840000E-3,-4.163742065E-3
2.370002854E0,9.560205042E-3,2.578952909E-2,-4.166603088E-3
2.380002854E0,-2.425305545E-3,-5.415283144E-3,1.259326935E-2
2.390003354E0,-4.720382392E-3,6.543152034E-3,1.019954681E-2
2.400003354E0,6.960354745E-3,8.584029973E-3,3.016471863E-3
2.410003354E0,6.629183888E-3,8.247438818E-3,3.014564514E-3
2.420003820E0,1.836776733E-3,1.309501380E-2,-1.774787903E-3
2.430003820E0,1.372598112E-2,-8.399929851E-3,5.408287048E-3
2.440003820E0,4.252173007E-3,1.307716966E-2,5.408287048E-3
2.450003820E0,1.114425063E-2,-6.430637091E-3,-1.775741577E-3
2.460003820E0,-7.906697690E-3,6.807558239E-4,3.014564514E-3
2.480003353E0,-1.297298074E-2,5.215030164E-3,6.198883057E-4
2.490003353E0,-1.053810120E-2,-9.167291224E-3,7.802963257E-3
2.500003353E0,1.817490160E-2,9.965959936E-3,-1.135158539E-2
2.510003353E0,-1.530182362E-2,9.909946471E-3,3.014564514E-3
2.520003353E0,-5.609892309E-3,-6.802894175E-3,-4.167556763E-3
2.530003353E0,8.792221546E-3,9.998720139E-3,6.208419800E-4
2.540003353E0,1.605495811E-3,-9.096700698E-3,-1.774787903E-3
2.550003353E0,-6.895735860E-4,4.674606025E-4,-1.772880554E-3
2.560003819E0,-1.499512047E-2,5.240518600E-3,-6.561279297E-3
2.570003819E0,1.138489693E-2,5.184296519E-3,6.227493286E-4
2.580003819E0,9.031109512E-3,5.167420954E-3,1.498794556E-2
2.590003819E0,1.904278994E-3,5.210358649E-3,-1.770973206E-3
2.600003819E0,-7.825225592E-3,-2.336382866E-3,2.217197418E-2
2.620003352E0,-7.617637515E-3,-4.000253975E-4,-6.556510925E-3
2.630003352E0,-1.000788808E-2,-1.482424513E-2,5.414962769E-3
2.640003352E0,-2.784699202E-3,-4.756711423E-4,6.265640259E-4
2.650003352E0,-5.138352513E-3,-5.280893296E-3,-4.160881042E-3
2.660003352E0,-5.087569356E-3,-1.234243624E-2,-1.767158508E-3
2.670003418E0,9.318575263E-3,-3.879368305E-4,1.020431519E-2
2.680003418E0,6.865508854E-3,-3.920122981E-4,1.020431519E-2
2.700002918E0,2.109527588E-3,2.397798002E-3,3.021240234E-3
2.710002918E0,1.172706485E-2,-7.196139544E-3,6.265640259E-4
2.730002451E0,-2.543248236E-3,3.259256482E-5,-8.949279785E-3
2.740002451E0,1.180418581E-2,-2.382494509E-3,-1.852798462E-2
2.750002917E0,9.073257446E-3,-2.051118761E-3,-6.559371948E-3
2.760002917E0,6.659448147E-3,-1.402373984E-2,7.805824280E-3
2.770002917E0,-1.490329951E-2,-6.920434535E-3,3.018379211E-3
2.780003417E0,-4.268437624E-4,7.550865412E-3,-1.770973206E-3
2.790003417E0,2.022355795E-3,-6.751861423E-3,-6.559371948E-3
2.800003417E0,6.792701781E-3,1.717007905E-2,7.806777954E-3
2.810003483E0,4.572041333E-3,1.243286952E-2,-1.770019531E-3
2.820003483E0,-4.653632641E-4,-2.322699875E-3,-6.558418274E-3
2.830003483E0,1.973465085E-3,-9.580899030E-3,6.246566772E-4
2.840003483E0,-2.712026238E-3,2.147289366E-2,3.021240234E-3
2.850003483E0,-5.125828087E-3,-7.682293653E-5,-1.769065857E-3
2.870003016E0,4.766002297E-3,2.024497837E-3,-1.373577118E-2
2.880003016E0,-4.829309881E-3,1.876360551E-2,-4.158973694E-3
2.900002516E0,-7.858872414E-5,-2.807058394E-3,1.260089874E-2
2.910002516E0,-7.209353149E-3,-3.111362457E-4,1.020622253E-2
2.920002982E0,9.609438479E-3,2.087354660E-3,5.417823792E-3
2.930002982E0,-1.196102053E-2,-7.451575249E-3,3.024101257E-3
2.940002982E0,-4.785917699E-3,-9.728156030E-3,-6.554603577E-3
2.950002982E0,7.225878537E-3,-1.678876579E-4,-1.134204865E-2
2.960002982E0,-9.600445628E-3,2.409927547E-4,1.978111267E-2
2.980002915E0,-9.058862925E-3,9.658012539E-3,-1.762390137E-3
2.990002915E0,1.246618479E-2,2.532720566E-3,7.814407349E-3
3.000002915E0,-1.843348145E-3,-4.606954753E-3,-1.763343811E-3
3.010002915E0,1.262143254E-2,-4.619847983E-3,-8.944511414E-3
3.020002915E0,1.992306113E-2,-1.181421243E-2,3.027915955E-3
3.030002915E0,9.972743690E-3,-6.736144423E-3,-2.331352234E-2
3.040002915E0,7.618837059E-3,1.000670344E-2,5.417823792E-3
3.060002914E0,-4.951365292E-3,5.662664771E-4,-6.558418274E-3
3.070002914E0,4.724986851E-3,-9.023517370E-3,6.256103516E-4
3.090002414E0,6.208553910E-3,3.339014947E-3,1.737785339E-2
3.100002414E0,8.278265595E-4,-1.410409808E-3,-4.174232483E-3
3.120002347E0,1.041889191E-3,-3.770455718E-3,-1.614570618E-2
3.130002347E0,1.550661772E-2,-3.783591092E-3,-1.853847504E-2
3.140002347E0,5.390569568E-3,-3.662653267E-3,3.005981445E-3
3.150002347E0,7.325753570E-3,-1.161288470E-3,6.074905396E-4
3.160002347E0,1.618657261E-2,8.544683456E-3,7.784843445E-3
3.170002813E0,-3.805235028E-3,1.321788132E-2,2.991676331E-3
3.180002813E0,1.027792692E-3,-1.558893174E-2,2.991676331E-3
3.190003313E0,1.068279147E-3,-1.560581103E-2,2.992630005E-3
3.200003313E0,-1.084303111E-2,1.310992613E-2,-4.190444946E-3
3.210003313E0,1.104757190E-3,5.984365940E-3,-1.137351990E-2
3.230002846E0,-1.430213451E-3,1.082281768E-2,5.385398865E-3
3.240002846E0,-1.581797749E-2,-5.899149925E-3,1.256752014E-2
3.250002846E0,-1.301139593E-2,-3.496780992E-3,5.989074707E-4
3.260002846E0,-3.452584147E-3,1.270998269E-3,-6.584167480E-3
3.270002846E0,-5.786761642E-3,3.649774939E-3,2.993583679E-3
3.280002846E0,-5.276724696E-3,3.664251417E-3,2.997398376E-3
3.290002846E0,2.117906138E-2,-1.789583638E-2,5.392074585E-3
3.300002846E0,-1.721135527E-2,6.100691855E-3,-4.184722900E-3
3.310003312E0,6.846107543E-3,-1.300661638E-2,-1.791000366E-3
3.320003312E0,2.097800374E-3,-3.446787596E-3,1.257610321E-2
3.340510914E0,-2.728566527E-3,8.502386510E-3,5.392074585E-3
3.350510914E0,-1.942831278E-2,3.698479384E-3,2.999305725E-3
3.370510447E0,-9.287387133E-3,3.500662744E-3,-4.179954529E-3
3.380510447E0,7.509090006E-3,1.790814474E-2,1.018619537E-2
3.390510447E0,-1.732766628E-3,3.230515867E-3,6.122589111E-4
3.400510447E0,-1.098079234E-2,-1.164370961E-2,3.011703491E-3
3.410510447E0,-9.768903255E-4,-2.273697406E-3,5.409240723E-3
3.420510913E0,1.583920419E-2,7.346797734E-3,-8.955001831E-3
3.430510913E0,-1.279826462E-2,2.291202545E-4,-4.166603088E-3
3.440510913E0,-7.667988539E-4,2.136267722E-4,-8.955001831E-3
3.450510913E0,1.604124904E-3,2.712942660E-4,-4.166603088E-3
3.460510913E0,-6.909444928E-4,2.652645111E-3,-8.955001831E-3
3.480510446E0,-1.746888459E-2,2.379007638E-4,3.016471863E-3
3.490510446E0,-5.178980529E-3,4.674538970E-3,3.021240234E-3
3.500510446E0,1.389817894E-2,7.043845952E-3,-6.557464600E-3
3.510510446E0,6.715342402E-3,-7.321979851E-3,6.256103516E-4
3.520510446E0,-5.094125867E-3,6.976224482E-3,3.021240234E-3
3.530510446E0,-1.457592100E-2,-2.555020154E-3,-1.134395599E-2
3.540510446E0,-9.609781206E-3,2.138027176E-2,-6.554603577E-3
3.550510446E0,-9.197160602E-3,-7.497891784E-4,-6.548881531E-3
3.560510912E0,3.224588931E-3,1.095737517E-2,-1.756668091E-3
3.570510912E0,1.284612715E-2,-8.272398263E-3,5.426406860E-3
3.580510912E0,1.051191986E-2,-8.287947625E-3,6.399154663E-4
3.590510912E0,1.721480489E-2,3.513697535E-3,1.260852814E-2
3.600510912E0,4.326030612E-4,-1.320854016E-2,1.739597321E-2
3.620510445E0,2.196701989E-2,-1.316342503E-3,1.021289825E-2
3.630510845E0,9.976178408E-3,-8.500162512E-3,5.424499512E-3
3.640510845E0,2.168469131E-3,-8.266694844E-3,5.419731140E-3
3.650510845E0,-1.852735877E-4,1.087070256E-2,1.020812988E-2
3.660510845E0,2.249501646E-3,1.276735216E-3,1.020812988E-2
3.670511311E0,-3.013923764E-3,-5.859319121E-3,-1.767158508E-3
3.680511311E0,-5.427807570E-3,-5.860704929E-3,-1.767158508E-3
3.690511311E0,-5.375519395E-3,8.607007563E-3,1.259899139E-2
3.700511311E0,1.147834957E-2,-9.047351778E-4,-1.767158508E-3
3.710511311E0,-1.485727727E-2,3.864381462E-3,-8.948326111E-3
3.730510844E0,-5.384519696E-3,3.955785185E-3,5.415916443E-3
3.740510844E0,1.911856234E-3,6.416797638E-3,-1.767158508E-3
3.750510844E0,-1.456743479E-2,-3.534708172E-3,7.814407349E-3
3.760510844E0,1.653590053E-2,1.291774213E-3,-1.612854004E-2
3.770510844E0,-2.239421010E-4,1.565756276E-2,-1.763343811E-3
3.780510844E0,4.605107009E-3,1.324641705E-2,5.419731140E-3
3.790510844E0,1.410443336E-2,-1.129101962E-2,-1.762390137E-3
3.800510844E0,1.182498783E-2,5.516007543E-3,3.027915955E-3
3.810511310E0,9.426847100E-3,1.275767386E-2,-1.133823395E-2
3.820511310E0,1.148879528E-2,4.693530500E-4,-4.156112671E-3
3.830511310E0,3.663100302E-3,9.225308895E-5,6.284713745E-4
3.840511310E0,3.281012177E-3,-7.091462612E-5,6.265640259E-4
3.850511310E0,-6.473295391E-3,-3.579743207E-4,-6.556510925E-3
3.870510843E0,-1.804538071E-3,4.167102277E-3,6.265640259E-4
3.880510843E0,-1.822710037E-3,-7.825020701E-3,-4.161834717E-3
3.890510843E0,-4.220753908E-3,-1.973741874E-2,-8.950233459E-3
3.900510843E0,-4.113718867E-3,-7.135085762E-4,5.415916443E-3
3.910510843E0,8.976608515E-4,-2.268590033E-4,-1.134395599E-2
3.920511309E0,-3.834769130E-3,-4.972252995E-3,-4.160881042E-3
3.930511309E0,-3.799475729E-3,-2.885334194E-2,7.810592651E-3
3.940511309E0,6.019957364E-3,-2.028308809E-3,-6.555557251E-3
3.950511309E0,-1.543098688E-2,9.623169899E-4,-4.162788391E-3
3.960511309E0,8.492104709E-3,-1.101050898E-2,-8.951187134E-3
3.980510842E0,-3.233127296E-3,1.605074108E-2,5.413055420E-3
3.990510842E0,-5.588270724E-3,-1.986093074E-2,3.019332886E-3
4.000510842E0,6.511881948E-3,-7.173161954E-3,1.020050049E-2
4.010510842E0,6.532736123E-3,-7.191304117E-3,1.020050049E-2
4.020510842E0,-8.002810180E-3,5.260076374E-3,1.259136200E-2
4.030510842E0,4.059985280E-3,5.364775658E-3,-4.167556763E-3
4.040510842E0,-5.476653576E-3,1.253066584E-2,-6.561279297E-3
4.050510842E0,1.609274000E-2,-4.247441888E-3,6.217956543E-4
4.060511308E0,1.705013216E-3,1.255051047E-2,-6.561279297E-3
4.070511308E0,-6.721690297E-4,-4.168685526E-3,-4.166603088E-3
4.080511308E0,1.762561500E-3,1.257430390E-2,1.019859314E-2
4.090511308E0,1.556739211E-3,-4.631869495E-3,-6.561279297E-3
4.100511308E0,-3.210872412E-3,1.689859852E-2,-1.374340057E-2
4.120510841E0,-6.689131260E-4,-9.880784899E-3,1.020145416E-2
4.130510841E0,6.597392261E-3,-5.165204406E-3,1.020240784E-2
4.140510841E0,-5.488917232E-4,-5.123369396E-3,1.020240784E-2
4.150510841E0,-5.261801183E-3,-2.904087305E-4,6.256103516E-4
4.160510841E0,9.140335023E-3,-7.431641221E-3,-1.768112183E-3
4.170511307E0,6.708241999E-3,6.911803037E-3,-1.769065857E-3
4.180511307E0,6.748616695E-3,-5.076643080E-3,1.259803772E-2
4.190511307E0,1.401485503E-2,-5.149859935E-3,-1.767158508E-3
4.200511307E0,-2.710372210E-4,1.399031281E-2,3.022193909E-3
4.210511307E0,-5.081728101E-3,-7.520094514E-3,-8.949279785E-3
4.230510840E0,1.639509201E-2,4.348233342E-3,-6.555557251E-3
4.240510840E0,-1.702950895E-2,9.182579815E-3,-1.767158508E-3
4.250510840E0,-1.227877289E-2,-1.478237286E-2,1.020431519E-2
4.260510840E0,-7.391020656E-3,-5.218192935E-3,-4.159927368E-3
4.270510840E0,-9.827062488E-3,-3.931336105E-4,-6.555557251E-3
4.280510840E0,1.654267311E-2,6.890438497E-3,-4.160881042E-3
4.290510840E0,7.060788572E-3,-9.823758155E-3,6.284713745E-4
4.300510840E0,4.687555134E-3,-5.053184927E-3,-1.766204834E-3
4.310511306E0,1.907809824E-2,-5.129896104E-3,6.294250488E-4
4.320511306E0,-2.791404724E-3,-2.344150096E-3,3.020286560E-3
4.330511306E0,4.428043962E-3,-1.666782051E-2,-1.770019531E-3
4.340511306E0,6.420269608E-3,5.305781960E-3,1.259231567E-2
4.350511306E0,1.613460481E-3,-4.292204976E-3,-1.374530792E-2
4.370510839E0,1.081214100E-2,3.258559853E-3,6.170272827E-4
4.380510839E0,1.022743434E-2,-1.313924789E-3,-1.783370972E-3
4.390510839E0,3.065377474E-3,8.244715631E-3,-8.964538574E-3
4.400510839E0,4.756346345E-3,1.289825886E-3,-4.181861877E-3
4.410510839E0,4.773281515E-3,-5.852542818E-3,-8.970260620E-3
4.420511305E0,-1.680902392E-2,8.432257921E-3,-6.577491760E-3
4.430511305E0,-4.701316357E-6,-1.798040047E-2,-4.181861877E-3
4.440511305E0,-1.932618022E-2,-7.962606847E-3,1.018047333E-2
4.450511305E0,-4.856102169E-3,-1.044814102E-2,-1.790046692E-3
4.460511305E0,-1.201783121E-2,-5.677338690E-3,3.000259399E-3
4.480510838E0,1.263809204E-2,1.427191496E-2,-1.786231995E-3
4.490510838E0,-1.132670790E-2,2.338632941E-3,1.018333435E-2
4.500510838E0,6.654337049E-4,7.108725607E-3,3.002166748E-3
4.510510838E0,5.553148687E-3,4.701469094E-3,7.791519165E-3
4.520510838E0,-4.121758044E-3,-2.487871796E-3,-6.574630737E-3
4.530510838E0,-1.120805740E-2,2.326831222E-3,-4.179954529E-3
4.540510838E0,-3.945492208E-3,1.907273009E-2,7.792472839E-3
4.550510838E0,8.062332869E-3,-1.201103628E-2,1.018524170E-2
4.560511304E0,-1.112174988E-2,9.397890419E-3,-4.179000854E-3
4.570511304E0,3.206066787E-3,4.587136209E-3,-1.136302948E-2
4.580511304E0,-1.347421855E-2,-1.218701899E-2,3.004074097E-3
4.590511304E0,3.263615072E-3,-2.571895719E-3,-1.785278320E-3
4.600511304E0,3.224514425E-3,-2.574462444E-3,-1.786231995E-3
4.620510837E0,1.357205212E-3,9.451914579E-3,-1.375198364E-2
4.630510837E0,1.335114241E-3,-1.205853373E-2,1.497840881E-2
4.640510837E0,-9.717345238E-4,6.963815540E-3,-1.375198364E-2
4.650510837E0,6.177224219E-3,1.885428280E-2,1.019001007E-2
4.660510837E0,-3.433823586E-3,-9.958064184E-3,6.141662598E-4
4.670511303E0,-8.177846670E-3,2.109207213E-2,1.019096375E-2
4.680511303E0,1.416102052E-3,1.873812079E-2,3.008842468E-3
4.690511769E0,-3.331869841E-3,-4.328116775E-4,7.797241211E-3
4.700511769E0,1.117106527E-2,-1.013424248E-3,-4.171371460E-3
4.710511769E0,4.009120166E-3,1.362595707E-3,-6.566047668E-3
4.730511302E0,3.649473190E-3,7.754433900E-3,-6.565093994E-3
4.740511302E0,1.073853672E-2,5.295071751E-3,-6.566047668E-3
4.750511302E0,1.316934824E-2,1.251973957E-2,-4.171371460E-3
4.760511302E0,3.150261939E-3,1.207716763E-2,-1.135540009E-2
4.770511302E0,7.628709078E-3,-2.643268555E-3,-4.173278809E-3
4.780511302E0,2.999335527E-3,-9.854696691E-3,-1.778602600E-3
4.790511302E0,-6.605312228E-3,-1.616328955E-4,-8.960723877E-3
4.800511302E0,7.718563080E-3,-4.913683981E-3,6.151199341E-4
4.810511768E0,7.817819715E-3,-4.926353693E-3,6.160736084E-4
4.820511768E0,-2.432577312E-3,7.117394358E-3,7.793426514E-3
4.830511768E0,7.166728377E-3,9.473849088E-3,6.113052368E-4
4.840511768E0,-2.202772349E-2,1.413280144E-2,7.791519165E-3
4.850511768E0,4.388898611E-3,-2.471469343E-4,1.018619537E-2
4.870511301E0,-1.476262510E-2,-1.704613864E-2,1.018619537E-2
4.880511301E0,1.161106676E-2,-2.441816032E-4,-1.375579834E-2
4.890511301E0,1.402627677E-2,1.410345733E-2,-4.179000854E-3
4.900511301E0,9.274400771E-3,-1.219152473E-2,6.093978882E-4
4.910511301E0,-9.858794510E-3,-5.026753992E-3,-1.784324646E-3
4.920511767E0,-1.707532257E-2,4.469700158E-3,-4.179000854E-3
4.930511767E0,-7.461719215E-3,9.300027043E-3,-4.178047180E-3
4.940511767E0,1.335293055E-4,-2.957984805E-3,-1.780509949E-3
4.950511767E0,7.348909974E-3,4.325319082E-3,5.402565002E-3
4.960511767E0,1.869574189E-4,1.912616193E-3,-4.174232483E-3
4.980511300E0,2.761393785E-3,1.623173058E-2,7.799148560E-3
5.000510833E0,-6.777316332E-3,1.087595522E-2,3.012657166E-3
5.010510833E0,-4.259951413E-3,-4.149757326E-3,6.217956543E-4
5.020510833E0,5.392707884E-3,-1.128830761E-2,1.977634430E-2
5.030510833E0,1.738879085E-2,6.059110165E-4,6.217956543E-4
5.040510833E0,1.023481041E-2,-1.389533468E-2,-1.134872437E-2
5.050510833E0,-9.382784367E-3,1.978968084E-2,5.407333374E-3
5.060511299E0,2.609513700E-3,-1.374834590E-2,-1.775741577E-3
5.070511299E0,2.646021545E-3,5.447622389E-3,1.019668579E-2
5.080511299E0,9.865514934E-3,-4.087433219E-3,1.019573212E-2
5.090511299E0,9.886398911E-3,-4.105683416E-3,1.019668579E-2
5.100511299E0,7.513314486E-3,-6.517741829E-3,-1.613998413E-2
5.120510832E0,2.381585538E-3,-8.777804673E-3,3.011703491E-3
5.130510832E0,-1.219332963E-2,3.965776414E-3,-6.569862366E-3
5.140510832E0,2.189286053E-3,1.612022519E-3,-1.135826111E-2
5.150510832E0,-2.500221133E-3,-3.189705312E-3,1.258468628E-2
5.160510832E0,-2.541959286E-3,-5.547411740E-3,5.401611328E-3
5.170510898E0,7.179632783E-3,-9.854447097E-3,-1.782417297E-3
5.180510898E0,-2.419516444E-3,-2.633534372E-3,1.737117767E-2
5.190510898E0,-7.177159190E-3,1.214681193E-2,5.398750305E-3
5.200510898E0,1.439223439E-2,7.340073586E-3,-4.178047180E-3
5.210510898E0,-5.157031119E-3,-1.207638718E-2,5.397796631E-3
5.230510431E0,-7.553957403E-3,9.511053562E-3,6.084442139E-4
5.240510431E0,9.242571890E-3,1.434168220E-2,3.003120422E-3
5.250510431E0,-4.007369280E-4,6.682608277E-3,6.093978882E-4
5.260510431E0,-5.282767117E-3,-5.943764001E-3,1.258277893E-2
5.270510431E0,-5.309015512E-3,-1.542446762E-2,-1.136016846E-2
5.280510431E0,9.077526629E-3,-8.259896189E-3,-1.375389099E-2
5.290510431E0,1.876421273E-3,-1.098126173E-3,-1.614856720E-2
5.300510431E0,-7.793582976E-3,1.801218837E-3,1.257991791E-2
5.310510931E0,4.273042083E-3,4.241287708E-3,1.497459412E-2
5.320510931E0,1.958355308E-3,-7.744379342E-3,-1.785278320E-3
5.330510931E0,-1.730427146E-2,-7.299304008E-3,-1.786231995E-3
5.340510931E0,-9.772054851E-3,-4.547316581E-3,6.084442139E-4
5.350511397E0,-2.681761980E-3,-4.632115364E-3,-1.786231995E-3
5.370510930E0,7.242016494E-3,2.947434783E-3,7.792472839E-3
5.380510930E0,-1.427402347E-2,-1.131794043E-2,3.004074097E-3
5.390510930E0,7.369697094E-3,5.487777293E-3,-6.573677063E-3
5.400510930E0,-2.186521888E-3,7.863800973E-3,-4.179000854E-3
5.410510930E0,-2.149976790E-3,1.269419491E-2,-1.785278320E-3
5.420511396E0,-2.362281084E-2,-8.809868246E-3,6.103515625E-4
5.430511396E0,-8.799135685E-3,6.802082062E-4,7.797241211E-3
5.440511396E0,-4.052482545E-3,1.508215070E-2,3.007888794E-3
5.450511396E0,1.747263223E-2,3.168437630E-3,-1.375198364E-2
5.460511396E0,-6.393156946E-3,5.587555468E-3,-1.780509949E-3
5.480511329E0,5.655333400E-3,-3.964431584E-3,3.008842468E-3
5.490511329E0,1.046085358E-2,8.047465235E-3,-4.174232483E-3
5.500511329E0,-8.963271976E-3,1.725235209E-2,-1.135730743E-2
5.510511329E0,-1.856611669E-2,2.393528819E-3,3.009796143E-3
5.520511329E0,3.331147134E-3,1.886576414E-3,3.014564514E-3
5.530511329E0,-1.436509192E-3,-1.249732263E-2,-8.956909180E-3
5.540511329E0,1.781293005E-2,-2.874426544E-3,-6.563186646E-3
5.550511329E0,3.421068192E-3,9.193230420E-3,1.019668579E-2
5.560511795E0,-3.744602203E-3,-9.919993579E-3,5.408287048E-3
5.570511795E0,1.088351011E-3,1.975741237E-3,5.408287048E-3
5.580511795E0,5.412451923E-3,-1.249996386E-2,5.405426025E-3
5.590511795E0,1.262011379E-2,-7.788367569E-3,5.406379700E-3
5.600511795E0,1.219069958E-2,4.429101944E-3,1.019096375E-2
5.620511295E0,-1.983388513E-2,1.182662323E-2,3.001213074E-3
5.630511295E0,-3.107771277E-3,4.563126713E-3,3.001213074E-3
5.640511295E0,-7.935412228E-3,-7.410820574E-3,-6.576538086E-3
5.660510828E0,-1.984529197E-2,1.170846447E-2,3.002166748E-3
5.670511294E0,-1.735448092E-2,1.173462346E-2,-4.180908203E-3
5.680511294E0,-2.354599535E-3,4.181604832E-3,-1.614665985E-2
5.690511294E0,7.732942700E-3,1.347876340E-2,-1.614093781E-2
5.700511294E0,-3.868930042E-3,1.055884734E-2,-4.164695740E-3
5.710511294E0,-1.223728061E-3,-2.347460203E-2,-1.768112183E-3
5.730510827E0,-3.564275801E-3,1.491650566E-2,5.414962769E-3
5.740510827E0,-1.149073243E-3,-9.044427425E-3,-1.768112183E-3
5.750510827E0,1.325307786E-2,-4.214104265E-3,-4.160881042E-3
5.760510827E0,-1.066873968E-2,1.492191479E-2,-6.555557251E-3
5.770510827E0,1.343200356E-2,-4.241097718E-3,-1.766204834E-3
5.780510827E0,1.600347459E-3,-1.876410097E-3,-8.947372437E-3
5.790510827E0,1.640677452E-3,5.007237196E-4,7.813453674E-3
5.800510827E0,8.840471506E-3,-1.382439770E-2,6.294250488E-4
5.810511293E0,-5.433924496E-3,3.039963543E-3,-4.158020020E-3
5.820511293E0,-1.258008182E-2,-6.495084614E-3,6.303787231E-4
5.830511293E0,-1.727342606E-2,7.916297764E-3,3.026008606E-3
5.840511293E0,1.194577664E-2,-4.002537578E-3,6.341934204E-4
5.850511293E0,-4.781439900E-3,-1.347887702E-2,1.260566711E-2
5.870510826E0,2.336122096E-3,-3.807820380E-3,-1.762390137E-3
5.880510826E0,-7.267139852E-3,-8.499845862E-3,-1.762390137E-3
5.890510826E0,-2.159222960E-2,-1.569928974E-2,-1.761436462E-3
5.900510826E0,2.220496535E-4,-2.005728334E-2,1.499843597E-2
5.910510826E0,9.816087782E-3,1.110874489E-2,3.027915955E-3
5.920511292E0,-1.410233974E-2,-2.744302154E-3,-1.763343811E-3
5.930511292E0,-2.149336040E-3,2.023153007E-3,-4.157066345E-3
5.940511292E0,7.503397763E-3,1.403894275E-2,6.322860718E-4
5.950511292E0,-6.821751595E-3,-5.132120103E-3,1.020908356E-2
5.960511292E0,-9.249888361E-3,6.758343428E-3,6.322860718E-4
5.980510825E0,8.398666978E-4,-2.843298018E-3,6.361007690E-4
5.990510825E0,-1.355959475E-2,6.652951241E-3,-1.612377167E-2
6.000510825E0,5.568549037E-3,9.143963456E-3,6.351470947E-4
6.010510825E0,2.708321437E-2,-5.302533507E-3,5.423545837E-3
6.020510825E0,5.512528121E-3,-1.723608747E-2,7.818222046E-3
6.030510825E0,1.989515126E-2,-1.240701042E-2,-4.153251648E-3
6.040510825E0,1.949816197E-2,-7.271930575E-3,6.313323975E-4
6.050510825E0,-4.821725190E-3,-9.317863733E-3,6.265640259E-4
6.060511291E0,1.142369211E-2,-1.347273961E-2,-8.955955505E-3
6.070511291E0,-3.488957882E-3,3.820445389E-3,3.009796143E-3
6.080511291E0,-1.070971042E-2,-3.384787589E-3,-6.567955017E-3
6.090511291E0,8.348882198E-3,-4.464797676E-4,-4.176139832E-3
6.100511291E0,-8.386045694E-3,-5.311708897E-3,1.258468628E-2
6.120510824E0,3.962121904E-3,1.437925175E-2,6.132125854E-4
6.130510824E0,1.530081034E-3,4.780188203E-3,-1.135826111E-2
6.140510824E0,-3.292173147E-3,1.188237593E-2,-8.963584900E-3
6.150510824E0,-8.040376008E-3,2.383661270E-2,5.402565002E-3
6.160510824E0,-1.026574522E-2,8.715767413E-3,3.011703491E-3
6.170511324E0,9.093940258E-3,-8.757438511E-3,-4.166603088E-3
6.180511324E0,6.740115583E-3,-1.591540873E-3,-4.166603088E-3
6.190511324E0,1.972377300E-3,1.514999568E-2,-6.560325623E-3
6.200511324E0,9.117268026E-3,-1.632340252E-3,1.498699188E-2
6.210511324E0,6.473064423E-3,9.968802333E-3,3.016471863E-3
6.230510857E0,1.100116223E-2,-9.694088250E-3,6.217956543E-4
6.240510857E0,8.643388748E-3,7.107608020E-3,7.804870605E-3
6.250510857E0,8.224792778E-3,6.902527064E-3,7.802963257E-3
6.260510857E0,5.349442363E-3,6.457276642E-3,-8.958816528E-3
6.270510857E0,1.268753409E-2,-5.483906716E-3,1.019573212E-2
6.280510857E0,2.746544778E-3,-1.280921139E-2,-6.567001343E-3
6.290510857E0,7.143728435E-3,-3.258503973E-3,-6.568908691E-3
6.300510857E0,-5.562141538E-3,-5.545031279E-3,-4.179954529E-3
6.310511323E0,-3.582991660E-3,-5.219191313E-3,-1.136684418E-2
6.320511323E0,-1.551782340E-2,1.158257574E-2,-2.333927155E-2
6.330511323E0,1.084014028E-2,-9.983908385E-3,-1.790046692E-3
6.340511323E0,-3.504462540E-3,-2.819065005E-3,-1.789093018E-3
6.350511323E0,-5.850940943E-3,-4.758186638E-3,1.018047333E-2
6.370510856E0,-1.311030984E-2,9.583275765E-3,2.998352051E-3
6.380510856E0,-6.000436842E-3,-1.683723181E-2,-6.580352783E-3
6.390510856E0,-3.530532122E-3,2.361379564E-3,6.036758423E-4
6.400510856E0,-3.490157425E-3,4.738595337E-3,-8.973121643E-3
6.410510856E0,-1.141622663E-3,-1.192612387E-2,5.391120911E-3
6.420511322E0,-1.313107461E-2,-1.194675453E-2,7.785797119E-3
6.430511322E0,-3.101557493E-3,-6.872087717E-3,-1.789093018E-3
6.440511322E0,1.647897065E-3,9.885262698E-3,3.000259399E-3
6.450511322E0,6.877273321E-3,-1.918941736E-3,6.074905396E-4
6.460511322E0,2.050839365E-3,-1.941107213E-3,-8.970260620E-3
6.480510822E0,4.645779729E-3,3.372326493E-3,-1.788139343E-3
6.490510822E0,-2.155686915E-2,8.209321648E-3,2.455043793E-2
6.500510822E0,-1.380258799E-2,-1.096530072E-2,3.005981445E-3
6.510510822E0,-4.204571247E-3,-6.194930524E-3,-4.176139832E-3
6.520510822E0,-1.336446404E-2,2.036662027E-2,-6.568908691E-3
6.530510822E0,2.091762051E-2,3.383167088E-3,-4.168510437E-3
6.540510822E0,6.470948458E-3,-1.371730119E-3,-1.613998413E-2
6.550510822E0,-5.475662649E-3,-1.102592237E-2,6.198883057E-4
6.560511288E0,8.914835751E-3,3.262773156E-3,-1.135158539E-2
6.570511288E0,1.607812941E-2,8.672475815E-4,-1.374530792E-2
6.580511288E0,4.068940878E-3,-8.732065558E-3,3.014564514E-3
6.590511288E0,-6.986781955E-4,8.009675890E-3,3.014564514E-3
6.600511288E0,-7.208883762E-4,3.258951008E-3,3.014564514E-3
6.610511288E0,-1.979165524E-2,5.580022931E-3,5.408287048E-3
6.620511288E0,-1.724235713E-2,-1.593866572E-2,-1.772880554E-3
6.630511288E0,1.915306598E-2,8.154489100E-3,3.019332886E-3
6.640511288E0,-2.370513976E-3,-1.586514711E-2,-1.770019531E-3
6.650511288E0,-1.193056256E-2,-1.103592478E-2,-1.769065857E-3
6.660511288E0,-2.372875810E-3,5.722954869E-3,6.246566772E-4
6.670511754E0,7.610976696E-3,1.315686852E-3,6.265640259E-4
6.680511754E0,5.355030298E-3,-1.545449719E-2,5.415916443E-3
6.690511754E0,5.379803479E-3,-1.313713565E-2,-6.555557251E-3
6.700511754E0,-6.696075201E-3,4.009157419E-3,5.414009094E-3
6.710511754E0,4.915967584E-4,4.520650953E-3,-1.852989197E-2
6.730511287E0,4.861667752E-3,4.315771163E-3,-1.772880554E-3
6.740511287E0,9.182140231E-3,-1.279026270E-2,-8.956909180E-3
6.750511287E0,4.488788545E-3,1.598677784E-2,-4.168510437E-3
6.760511287E0,-6.413981318E-4,8.623704314E-3,5.407333374E-3
6.770511287E0,-6.007105112E-4,1.339574158E-2,3.013610840E-3
6.780511287E0,-1.967395097E-2,-3.397975117E-3,1.019573212E-2
6.790511287E0,6.643392146E-3,1.389048994E-3,1.259040833E-2
6.800511287E0,1.384702325E-2,6.159212440E-3,-1.775741577E-3
6.810511787E0,1.154939085E-2,6.185587496E-3,3.014564514E-3
6.820511787E0,-5.374975502E-3,-1.765023544E-2,-1.135253906E-2
6.830511787E0,3.715552390E-3,-3.356739879E-3,-8.960723877E-3
6.840511787E0,1.325487345E-2,-1.535025239E-2,-6.567955017E-3
6.850511787E0,1.046491414E-2,6.525170058E-3,6.113052368E-4
6.870511320E0,-1.466423273E-4,-2.865731716E-3,-1.136779785E-2
6.880511320E0,-9.638831019E-3,-2.958226949E-3,7.786750793E-3
6.890511320E0,-2.670302987E-3,-8.143484592E-6,5.389213562E-3
6.900511320E0,4.611611366E-3,9.555853903E-3,-4.186630249E-3
6.920511319E0,-4.970736802E-3,-1.670282334E-2,7.783889771E-3
6.930511319E0,-9.734429419E-3,-7.202677429E-3,-1.615810394E-2
6.940511319E0,-9.575322270E-3,1.910563931E-2,1.736259460E-2
6.950511319E0,-2.571195364E-5,2.461805940E-3,-6.581306458E-3
6.960511319E0,-1.204279065E-2,7.345620543E-3,-1.792907715E-3
6.980510852E0,-1.162520051E-2,9.669851512E-3,1.736450195E-2
6.990510852E0,2.476510033E-2,4.815187305E-3,-6.574630737E-3
7.000510852E0,-1.099903136E-2,2.529390156E-3,-8.968353271E-3
7.010510852E0,-5.870983005E-3,-2.351291478E-4,3.007888794E-3
7.020510852E0,1.352295280E-3,-1.222342998E-2,-6.569862366E-3
7.030510852E0,8.434794843E-3,-5.007803440E-3,-1.782417297E-3
7.040510852E0,1.233600080E-3,2.153929323E-3,-1.375293732E-2
7.050510852E0,-5.932368338E-3,-2.000182867E-4,1.497745514E-2
7.060511352E0,6.079465151E-3,4.571598023E-3,-6.569862366E-3
7.070511352E0,2.286020294E-2,9.341761470E-3,-1.781463623E-3
7.080511352E0,6.128847599E-3,4.712406546E-3,3.007888794E-3
7.090511352E0,6.169304252E-3,-9.324029088E-5,-4.175186157E-3
7.100511352E0,7.989719510E-3,-2.722818404E-3,3.004074097E-3
7.120510852E0,-3.932155669E-3,4.601012915E-3,-4.179000854E-3
7.130510852E0,8.075803518E-3,-4.933997989E-3,-8.967399597E-3
7.140510852E0,2.207120135E-2,-4.978250712E-3,-6.576538086E-3
7.150510852E0,-1.905366778E-3,2.123720944E-3,-4.181861877E-3
7.160510852E0,-4.282601178E-3,1.653003320E-2,1.018428802E-2
7.170511318E0,9.682804346E-3,-5.497775972E-3,-4.182815552E-3
7.180511318E0,-2.244107425E-3,4.003755748E-3,-8.970260620E-3
7.190511318E0,-5.038760602E-3,3.819469362E-3,-1.791000366E-3
7.200511318E0,-2.416050434E-2,-8.687265217E-4,1.018047333E-2
7.210511318E0,-2.653807402E-3,1.113914698E-2,-1.791000366E-3
7.230510851E0,1.672252268E-2,3.578223288E-3,-1.788139343E-3
7.240510851E0,1.202549785E-2,3.683138639E-3,-8.970260620E-3
7.250510851E0,-2.577200532E-3,3.116760403E-3,5.394935608E-3
7.260510851E0,2.232275903E-3,-1.126706786E-2,-6.575584412E-3
7.270510851E0,-9.931772947E-3,-4.431236535E-3,1.497173309E-2
7.280510851E0,-3.219842911E-4,4.580654204E-4,1.736736298E-2
7.290510851E0,-3.481581807E-4,-1.620533317E-2,-1.788139343E-3
7.300510851E0,9.434744716E-3,3.395289183E-3,3.001213074E-3
7.310511317E0,-9.682960808E-3,1.042794436E-3,5.394935608E-3
7.320511317E0,-9.666107595E-3,-6.099708378E-3,-8.970260620E-3
7.330511317E0,-5.252659321E-5,1.549054682E-2,3.001213074E-3
7.340511317E0,-9.668871760E-3,1.069915667E-2,6.065368652E-4
7.350511317E0,-1.681900769E-2,-8.354287595E-3,-1.136493683E-2
7.370510817E0,2.413988113E-6,3.582175821E-3,7.789611816E-3
7.380510817E0,4.811950028E-3,-6.012860686E-3,3.001213074E-3
7.390510817E0,4.774130881E-3,-1.246523112E-3,3.001213074E-3
7.400510817E0,4.818551242E-3,1.064921916E-2,-1.787185669E-3
7.410510817E0,9.565360844E-3,1.108679920E-3,6.065368652E-4
7.420511283E0,1.677303761E-2,1.300309598E-2,5.395889282E-3
7.430511283E0,4.961021245E-3,5.791973323E-3,-1.786231995E-3
7.440511283E0,2.527482808E-3,-1.097079180E-2,6.084442139E-4
7.450511283E0,1.219718158E-2,1.085530967E-3,3.003120422E-3
7.460511283E0,6.494201720E-3,1.531080529E-2,-8.974075317E-3
7.480510816E0,8.480578661E-3,2.977959812E-3,5.390167236E-3
7.490510816E0,1.287132502E-2,-9.216971695E-3,5.989074707E-4
7.500510816E0,5.767926574E-3,5.133956671E-3,2.994537354E-3
7.510510816E0,-1.962766051E-3,1.706857607E-2,-6.587028503E-3
7.520510816E0,-1.192824543E-2,-7.234562188E-3,-8.981704712E-3
7.530510816E0,-1.194391400E-2,-1.208309643E-2,-1.799583435E-3
7.540510816E0,1.669090614E-2,-9.714927524E-3,2.989768982E-3
7.550510816E0,-7.471248507E-3,-6.981674582E-3,-1.803398132E-3
7.560511282E0,-9.848497808E-3,-1.651801914E-2,-2.095699310E-2
7.570511282E0,4.557609558E-3,-6.957843900E-3,5.379676819E-3
7.580511282E0,1.176124066E-2,2.066008747E-4,5.912780762E-4
7.590511282E0,-2.638265491E-3,7.308512926E-3,-1.137924194E-2
7.600511282E0,-2.601727843E-3,7.350351661E-3,-1.137924194E-2
7.620510815E0,-2.598926425E-3,1.449429989E-2,5.380630493E-3
7.630510815E0,-2.632774413E-3,1.680766046E-2,7.776260376E-3
7.640510815E0,2.114154398E-3,-1.428116858E-2,5.379676819E-3
7.650510815E0,-9.820841253E-3,-1.423957571E-2,5.922317505E-4
7.660510815E0,-1.942010969E-2,-7.018871605E-3,-6.590843201E-3
7.670511315E0,-2.488717437E-4,2.046041191E-4,-1.803398132E-3
7.680511315E0,-2.606555820E-3,-4.541866481E-3,5.912780762E-4
7.690511781E0,-1.967325807E-4,-6.876345724E-3,-8.984565735E-3
7.700511781E0,-1.944338530E-2,-2.172380686E-3,5.912780762E-4
7.710511781E0,-1.412542164E-2,5.328543484E-4,5.941390991E-4
7.730511314E0,-3.833465278E-3,-6.463963538E-3,7.781028748E-3
7.740511314E0,-7.963165641E-3,1.043893769E-2,7.785797119E-3
7.750511314E0,-7.981255651E-3,1.041831449E-2,7.784843445E-3
7.760511314E0,4.416711628E-3,3.323514014E-3,3.000259399E-3
7.770511314E0,2.058848739E-3,-1.339476556E-2,-4.182815552E-3
7.780511314E0,2.075657248E-3,-1.096022688E-2,3.000259399E-3
7.790511314E0,-1.222243160E-2,-3.320693970E-3,-1.791000366E-3
7.800511314E0,-9.862080216E-3,-3.401573747E-3,1.496887207E-2
7.810511780E0,9.680628777E-3,-7.829628885E-3,6.055831909E-4
7.820511780E0,-1.417775452E-2,-1.496635377E-4,6.046295166E-4
7.830511780E0,4.603043199E-4,1.694324985E-2,5.393981934E-3
7.840511780E0,8.400455117E-4,9.103119373E-5,1.497364044E-2
7.850511780E0,1.043410599E-2,1.315549016E-4,-1.854610443E-2
7.870511313E0,8.033148944E-3,2.896055952E-2,-1.786231995E-3
7.880511313E0,7.940590382E-3,2.538654953E-3,7.790565491E-3
7.890511313E0,2.792544663E-3,2.042844892E-3,-1.136493683E-2
7.900511313E0,2.426400781E-3,1.361618191E-2,7.788658142E-3
7.910511313E0,-9.582623839E-3,-7.714107633E-4,-4.182815552E-3
7.920511779E0,1.918108389E-2,1.130024716E-2,1.257705688E-2
7.930511779E0,-1.458624750E-2,8.496157825E-3,-8.972167969E-3
7.940511779E0,9.318567812E-3,-1.068045013E-2,7.787704468E-3
7.950511779E0,-1.698195934E-2,1.090980321E-2,-8.972167969E-3
7.960511779E0,-2.595856786E-4,-1.066041552E-2,-1.136684418E-2
7.980511279E0,-2.609267831E-4,1.330628991E-3,6.046295166E-4
8.000510812E0,-2.622604370E-4,1.332139969E-2,-8.972167969E-3
8.010510812E0,2.112440765E-3,-8.228395134E-3,-1.376056671E-2
8.020510812E0,2.074718475E-3,-1.782739908E-2,5.392074585E-3
8.030510812E0,4.489891231E-3,6.097100675E-3,1.018047333E-2
8.040510812E0,-2.660974860E-4,-1.056226902E-2,-1.791000366E-3
8.050510812E0,2.110205591E-3,-3.399871290E-3,-4.184722900E-3
8.060511278E0,-2.630650997E-4,-3.417912871E-3,-1.854991913E-2
8.070511278E0,4.495002329E-3,1.618622243E-2,-1.792907715E-3
8.080511278E0,6.890714169E-3,-1.735298708E-2,-8.974075317E-3
8.090511278E0,-2.753436565E-4,-2.947151661E-3,1.017856598E-2
8.100511278E0,-2.625063062E-4,-4.539079964E-4,2.996444702E-3
8.120510811E0,-9.800456464E-3,-5.239814520E-3,-4.185676575E-3
8.130510811E0,-1.216999441E-2,-2.922695130E-3,2.997398376E-3
8.140510811E0,-2.532988787E-3,4.244327545E-3,-4.184722900E-3
8.150510811E0,4.666768014E-3,6.679061800E-3,-1.791000366E-3
8.160510811E0,-2.499029040E-3,-5.251653492E-3,2.998352051E-3
8.170511277E0,-7.325388491E-3,9.091783315E-3,5.392074585E-3
8.180511277E0,-9.757354856E-3,1.146404818E-2,-4.185676575E-3
8.190511277E0,4.550680518E-3,6.651557982E-3,6.027221680E-4
8.200511277E0,4.571683705E-3,-2.943586558E-3,2.997398376E-3
8.210511277E0,-4.933752120E-3,-2.840451896E-3,-1.791000366E-3
8.230510810E0,-2.259857953E-3,-8.005835116E-4,7.789611816E-3
8.240510810E0,-1.849859953E-3,-1.541355252E-2,6.093978882E-4
8.250510810E0,-1.770377159E-3,-5.850937217E-3,-1.784324646E-3
8.260510810E0,-1.769050956E-3,1.312315464E-3,-6.572723389E-3
8.270510810E0,-6.532624364E-3,8.418396115E-3,-8.965492249E-3
8.280510810E0,-4.117414355E-3,1.318894327E-2,1.258277893E-2
8.290510810E0,-2.566456795E-2,-3.590550274E-3,-6.571769714E-3
8.300510810E0,-1.080045104E-2,-1.806011796E-2,6.151199341E-4
8.310511276E0,4.139147699E-3,1.329641789E-3,-6.564140320E-3
8.320511276E0,4.215978086E-3,-3.434259444E-3,3.013610840E-3
8.330511276E0,1.381421089E-2,8.519280702E-3,5.408287048E-3
8.340511276E0,6.648428738E-3,8.559942245E-3,7.802009583E-3
8.350511276E0,-5.879327655E-4,1.294672489E-3,7.802009583E-3
8.370510809E0,1.478701830E-3,-9.055100381E-4,3.010749817E-3
8.380510809E0,3.875620663E-3,6.238177419E-3,-6.567001343E-3
8.390510809E0,-5.680702627E-3,1.340255514E-2,-6.566047668E-3
8.400510809E0,-5.723692477E-3,-1.048393361E-2,3.010749817E-3
8.410511309E0,-3.252498806E-3,-3.276318312E-3,1.019287109E-2
8.420511775E0,2.544097975E-2,1.490019262E-3,-4.171371460E-3
8.430511775E0,1.562230289E-3,2.056991309E-2,3.011703491E-3
8.440511775E0,5.909025669E-3,1.055034623E-2,-6.567001343E-3
8.450511775E0,5.861960351E-3,-1.306261867E-3,-8.962631226E-3
8.460511775E0,1.150347292E-3,1.308424398E-2,-8.961677551E-3
8.480511308E0,-1.456148922E-3,1.034163684E-2,-1.780509949E-3
8.490511308E0,5.467712879E-3,-4.552185535E-3,5.403518677E-3
8.500511308E0,5.488723516E-3,-6.964504719E-3,7.798194885E-3
8.510511308E0,5.501799285E-3,-6.865136325E-3,7.797241211E-3
8.520511308E0,7.374458015E-3,7.367152721E-3,-6.571769714E-3
8.530511308E0,-2.270936966E-4,9.556021541E-3,1.258087158E-2
8.540511308E0,7.031366229E-3,-4.765205085E-3,5.397796631E-3
8.550511308E0,6.554059684E-3,-1.858398318E-4,-2.094173431E-2
8.560511808E0,4.240706563E-3,-2.196840942E-4,1.018428802E-2
8.570511808E0,8.975960314E-3,-5.090281367E-3,-1.786231995E-3
8.580511808E0,1.814022660E-3,-1.707989722E-2,5.396842957E-3
8.590511808E0,-3.561735153E-3,-9.641706944E-3,-4.185676575E-3
8.600511808E0,-6.217285991E-3,1.228226349E-2,1.017665863E-2
8.620511341E0,3.331139684E-3,-2.242777497E-3,-8.976936340E-3
8.630511341E0,1.482731104E-2,-9.084220976E-3,-6.587028503E-3
8.640511341E0,2.814151347E-3,2.923637629E-3,5.384445190E-3
8.650511341E0,-9.140297771E-3,1.254119352E-2,1.017189026E-2
8.660511341E0,-1.420521736E-2,2.955272794E-4,1.017189026E-2
8.670511807E0,-2.291239798E-3,2.719908953E-4,-1.137733459E-2
8.680511807E0,4.912488163E-3,-2.140525728E-3,1.974868774E-2
8.690511807E0,2.074986696E-4,-7.002063096E-3,-4.193305969E-3
8.700511807E0,-4.564128816E-3,-9.355880320E-3,2.989768982E-3
8.720510840E0,9.899780154E-3,-1.413699612E-2,7.779121399E-3
8.730510840E0,-6.434686482E-3,-4.452124238E-3,1.496315002E-2
8.740510840E0,-6.236359477E-3,3.105215728E-4,5.989074707E-4
8.750510840E0,-2.280306816E-2,2.757593989E-3,1.975536346E-2
8.760510840E0,-6.074322760E-2,-1.152354665E-2,3.651809692E-2
8.770510840E0,6.757153571E-2,3.422147781E-2,-1.095237732E-1
8.780510840E0,5.158215761E-3,-4.588518292E-3,-1.781463623E-3
8.790510840E0,-2.189107239E-3,-1.405879855E-2,5.399703979E-3
8.800510840E0,-2.289719880E-3,2.733442932E-3,-1.784324646E-3
8.810511306E0,-2.343252301E-3,-2.137552947E-3,-6.572723389E-3
8.820511306E0,1.969262958E-4,4.236213863E-4,3.005027771E-3
8.830511306E0,2.891071141E-3,6.404854357E-4,-4.176139832E-3
8.840511306E0,3.100864589E-3,5.521591753E-3,6.132125854E-4
8.850511306E0,-9.135313332E-3,2.971608192E-3,-1.783370972E-3
8.870510806E0,1.992454752E-2,1.262971386E-2,6.141662598E-4
8.880510806E0,-6.450168788E-3,-1.133505069E-2,-8.962631226E-3
8.890510806E0,7.180973887E-3,-6.734218448E-3,-1.136207581E-2
8.900510806E0,-1.219613105E-2,1.701653749E-2,1.736831665E-2
8.910510806E0,-2.188955992E-2,1.938290522E-2,-1.375770569E-2
8.920511272E0,-5.095355213E-3,4.508271813E-3,5.397796631E-3
8.930511272E0,4.702448845E-3,1.755233854E-3,-3.290653229E-2
8.940511272E0,-2.166786790E-2,-1.088676602E-2,-1.135635376E-2
8.950511272E0,-1.155592501E-2,-3.766253591E-3,-6.564140320E-3
8.960511272E0,-1.554787159E-3,8.541904390E-4,6.227493286E-4
8.980510805E0,-1.541931927E-2,-1.683123410E-3,7.809638977E-3
9.000444137E0,5.001559854E-3,-4.208389670E-3,-1.757621765E-3
9.020377469E0,5.223110318E-3,-1.357399859E-2,-1.757621765E-3
9.040311268E0,-1.641218364E-2,-8.083883673E-3,-1.760482788E-3
9.060244600E0,-1.360733807E-2,-2.831183374E-4,-2.091312408E-2
9.080177932E0,-5.914539099E-3,-2.685002983E-4,-1.372718811E-2
9.100111264E0,-3.373272717E-3,4.666931927E-3,-1.755714417E-3
9.120044130E0,1.611846685E-2,-1.782961190E-4,-1.851272583E-2
9.139977896E0,1.382058114E-2,-7.335152477E-3,1.261425018E-2
9.159911228E0,-8.217394352E-4,-1.000440121E-2,-1.752853394E-3
9.179844560E0,-1.078107953E-2,1.377471164E-2,-6.544113159E-3
9.199777892E0,-2.289783210E-2,-1.751682535E-2,5.426406860E-3
9.219710758E0,-3.903116286E-2,-7.601235062E-3,3.036499023E-3
9.239644090E0,8.685719967E-2,-2.872245014E-2,-3.286838531E-2
9.259577422E0,2.033976465E-2,-2.060529403E-2,-4.155158997E-3
9.279511221E0,2.798655629E-2,-3.209609538E-3,7.800102234E-3
9.289511221E0,2.683162689E-2,-2.992980182E-3,7.791519165E-3
9.299511221E0,-1.259765774E-2,-1.227236912E-2,-4.189491272E-3
9.309511221E0,-1.055292785E-2,-5.152244121E-3,7.780075073E-3
9.319511221E0,-1.789879054E-2,-2.670507878E-3,5.566310883E-2
9.339510754E0,-3.351547718E-1,-5.925742984E-1,2.016595840E0
9.349510754E0,-7.106388807E-1,-7.129529119E-1,1.456485748E0
9.359510754E0,-1.989600360E-1,-2.547023296E-1,-1.017675400E-1
9.369510754E0,1.927271634E-1,9.005616605E-2,3.792572021E-2
9.379510754E0,3.981245160E-1,4.181373119E-1,1.207368851E0
9.389511187E0,2.927470803E-1,5.734026432E-1,1.857075691E0
9.399511187E0,-5.419999361E-3,8.473329544E-1,2.507081032E0
9.409511187E0,-8.113783598E-2,1.031046391E0,2.719083786E0
9.419511187E0,-2.193528712E-1,1.215695858E0,2.746705055E0
9.429511187E0,-2.759355307E-1,1.233105183E0,2.517876625E0
9.449510753E0,-5.739672184E-1,5.830920935E-1,1.530025482E0
9.459510753E0,-8.158602715E-1,2.075794339E-2,1.094572067E0
9.469510753E0,-9.388895631E-1,-1.669912040E-1,7.455310822E-1
9.479510753E0,-1.011400819E0,-3.370091021E-1,4.256086349E-1
9.489510753E0,-9.404598475E-1,-3.654302359E-1,2.585945129E-1
9.499510753E0,-9.384527802E-1,-4.151766300E-1,2.592144012E-1
9.509510753E0,-6.490985155E-1,-4.047620296E-1,-2.338867188E-1
9.519510753E0,-4.470967948E-1,-1.623288691E-1,-1.621246338E-1
9.529511219E0,-3.116292357E-1,2.092240751E-2,1.770725250E-1
9.539511219E0,-9.171971679E-2,4.131849408E-1,5.352678299E-1
9.549511219E0,1.790306568E-1,5.745933056E-1,8.626117706E-1
9.559511219E0,6.119845510E-1,6.777099371E-1,1.496726990E0
9.569511219E0,8.457504511E-1,7.362387180E-1,1.704990387E0
9.589510752E0,1.004232883E0,8.255882859E-1,1.799139977E0
9.599510752E0,7.792227268E-1,7.072417736E-1,1.502803802E0
9.609510752E0,5.954447389E-1,5.465838909E-1,1.314317703E0
9.619510752E0,4.065786004E-1,2.950273752E-1,9.894180298E-1
9.629510752E0,3.147785068E-1,-5.461640656E-3,1.042901993E0
9.639511185E0,8.966612816E-2,-1.896203160E-1,8.761434555E-1
9.649511185E0,-2.267670631E-2,-1.581216305E-1,5.851268768E-1
9.659511185E0,2.117466927E-2,2.582323551E-2,3.492889404E-1
9.669511185E0,6.209778786E-2,7.251510024E-2,3.358926773E-1
9.679511185E0,9.681048989E-2,4.425042868E-2,3.606367111E-1
9.699510751E0,1.455973983E-1,1.012083888E-1,5.605802536E-1
9.709510751E0,2.739872932E-1,1.487767696E-1,5.058994293E-1
9.719510751E0,5.492773056E-1,1.513867974E-1,4.966096878E-1
9.729510751E0,6.678286195E-1,8.808568120E-2,4.966545105E-1
9.739510751E0,7.275951505E-1,-2.696594596E-2,7.001113892E-1
9.749510751E0,7.331270576E-1,-5.330982804E-2,8.959083557E-1
9.759510751E0,6.378386021E-1,-5.175054073E-2,1.070056915E0
9.769510751E0,5.827891231E-1,-2.475368977E-2,1.234735489E0
9.779511217E0,4.776125550E-1,9.175711870E-2,8.491344452E-1
9.789511217E0,4.254144132E-1,1.146546602E-1,6.435546875E-1
9.799511217E0,3.759697080E-1,1.855235696E-1,4.883594513E-1
9.809511217E0,2.995283008E-1,1.599349380E-1,4.121961594E-1
9.819511217E0,1.032631695E-1,-6.017684937E-2,3.816080093E-1
9.839510750E0,-1.727905869E-1,-2.330844700E-1,9.076976776E-2
9.849510750E0,-1.685421467E-1,-1.614660323E-1,4.822540283E-2
9.859510750E0,-2.348066270E-1,-1.538768113E-1,4.631996155E-2
9.869510750E0,-2.905554771E-1,-1.649955809E-1,8.995151520E-2
9.879510750E0,-2.713759840E-1,-2.591834068E-1,4.713144302E-1
9.889511183E0,-2.342890203E-1,-3.763449788E-1,6.496829987E-1
9.899511183E0,-2.291726172E-1,-3.742302954E-1,5.988359451E-1
9.909511649E0,-1.752407551E-1,-2.748363018E-1,5.414962769E-1
9.919511649E0,-1.591959596E-2,-8.280932903E-2,5.564661026E-1
9.929511649E0,-7.356286049E-3,2.627968788E-3,5.741281509E-1
9.949511215E0,-9.455060959E-2,2.888146639E-1,4.399251938E-1
9.959511215E0,-2.398359776E-1,1.672105193E-1,3.141012192E-1
9.969511215E0,-3.451371193E-1,4.144084454E-2,2.402648926E-1
9.979511215E0,-6.640281081E-1,-1.511219144E-1,3.791465759E-1
9.989511215E0,-8.047491908E-1,-2.397900820E-1,6.242923737E-1
9.999511215E0,-9.029207826E-1,-2.786149979E-1,6.056823730E-1
1.000951122E1,-8.177694082E-1,-3.818852603E-1,4.955625534E-1
1.001951122E1,-7.227383256E-1,-6.254854202E-1,3.134346008E-1
1.002951128E1,-7.353038788E-1,-7.753115296E-1,3.369140625E-1
1.003951128E1,-8.359976411E-1,-8.138344288E-1,2.068090439E-1
1.004951128E1,-7.983187437E-1,-7.185773253E-1,3.159475327E-1
1.005951128E1,-7.970067263E-1,-7.031376362E-1,3.148183823E-1
1.006951128E1,-1.477519870E-1,-2.381365299E-1,1.063108444E0
1.008951081E1,5.706326962E-1,3.452007771E-1,1.174118042E0
1.009951081E1,6.402092576E-1,4.970734715E-1,1.156813622E0
1.010951081E1,5.761485696E-1,5.060999393E-1,1.024936676E0
1.011951081E1,4.597534537E-1,2.566060424E-1,6.849594116E-1
1.012951081E1,2.689506412E-1,-1.800934672E-1,4.318923950E-1
1.013951125E1,-9.760981798E-2,-6.386020184E-1,2.125139236E-1
1.014951125E1,-1.983953118E-1,-6.790535450E-1,1.952838898E-2
1.015951125E1,-1.400493979E-1,-4.169710279E-1,-3.336200714E-1
1.016951125E1,-1.968348026E-2,-2.060382366E-1,-3.729219437E-1
1.017951125E1,2.307445407E-1,-6.372904778E-2,-5.440244675E-1
1.019951081E1,6.145096421E-1,-2.250039577E-1,-3.747940063E-3
1.021951035E1,7.192071080E-1,-1.458439827E-1,6.899499893E-1
1.022951035E1,6.587712765E-1,1.389178038E-1,7.084741592E-1
1.023951035E1,4.781056643E-1,3.198791146E-1,5.331068039E-1
1.024951035E1,3.125172555E-1,3.034153581E-1,4.014616013E-1
1.025951035E1,-8.389139175E-2,-4.764384031E-2,1.792173386E-1
1.026951035E1,-3.708377481E-1,-3.642572463E-1,1.738471985E-1
1.027951081E1,-7.552191615E-1,-6.642572880E-1,-1.778583527E-1
1.028951081E1,-8.123503923E-1,-7.843952179E-1,-5.310354233E-1
1.029951081E1,-8.480814695E-1,-8.376358747E-1,-5.123949051E-1
1.030951081E1,-7.167877555E-1,-8.597186804E-1,-1.654138565E-1
1.031951081E1,-2.382242084E-1,-6.510482430E-1,9.769630432E-2
1.032951121E1,2.513945103E-2,-4.911022186E-1,1.956777573E-1
1.033951121E1,2.849161029E-1,-4.596030414E-1,1.188879013E-1
1.034951121E1,2.964222431E-1,-6.378576756E-1,-1.966886520E-1
1.035951121E1,-2.368863821E-1,-5.802754760E-1,-3.564481735E-1
1.036951121E1,-4.158173203E-1,-5.934137106E-1,-3.609151840E-1
1.037951121E1,-4.956298470E-1,-4.042571187E-1,-6.839151382E-1
1.038951171E1,-3.973591924E-1,-2.533973455E-1,-7.441654205E-1
1.039951171E1,-2.184730768E-1,-1.223783493E-1,-3.715963364E-1
1.040951171E1,-1.041357517E-1,-7.572460175E-2,6.750679016E-2
1.041951171E1,1.043055654E-1,9.502398968E-2,2.073984146E-1
1.042951171E1,2.455117702E-1,1.106752157E-1,2.091684341E-1
1.044951128E1,-1.864054203E-1,-4.408181310E-1,2.947225571E-1
1.045951128E1,-6.488566399E-1,-7.804448605E-1,-3.584518433E-1
1.046951128E1,-9.554656744E-1,-1.082053065E0,-9.475708008E-1
1.047951128E1,-1.265974402E0,-1.191082239E0,-1.340382576E0
1.048951128E1,-1.315517306E0,-1.041304946E0,-1.324953079E0
1.049951128E1,-9.286067486E-1,-6.405889392E-1,-1.023836136E0
1.050951128E1,-2.249097824E-1,-1.889715195E-1,-7.472362518E-1
1.051951128E1,6.990128756E-1,3.597158194E-1,-3.485536575E-1
1.052951174E1,1.020511031E0,6.158046722E-1,2.688503265E-2
1.053951174E1,1.304615855E0,8.974328041E-1,3.322629929E-1
1.054951174E1,1.204474568E0,9.101058245E-1,3.776855469E-1
1.055951174E1,5.019215941E-1,2.471162081E-1,4.037313461E-1
1.056951174E1,1.657544374E-1,-7.617473602E-3,1.927509308E-1
1.058951128E1,-4.865360260E-1,2.485394478E-3,-2.720279694E-1
1.059951128E1,-3.058677912E-1,-1.382354498E-1,-5.738477707E-1
1.060951128E1,-5.623412132E-2,-9.091734886E-2,-5.858078003E-1
1.061951128E1,3.577488065E-1,6.096613407E-2,-1.007175446E-2
1.063951124E1,1.261241555E0,5.078009367E-1,4.438962936E-1
1.064951124E1,1.307814837E0,5.426735878E-1,5.751199722E-1
1.065951124E1,1.182233095E0,6.248149872E-1,5.325193405E-1
1.066951124E1,9.557213783E-1,6.084481478E-1,2.953252792E-1
1.067951124E1,6.221418977E-1,4.569410086E-1,-6.916427612E-2
1.069951074E1,2.713673115E-1,-3.057504892E-1,-5.132970810E-1
1.070951074E1,2.813621759E-1,-2.978104353E-1,-8.156881332E-1
1.071951074E1,3.073130250E-1,4.603254795E-2,-1.275860786E0
1.072951074E1,3.380230069E-1,2.514435053E-1,-1.182238579E0
1.073951074E1,5.007556677E-1,2.836488485E-1,-1.089547157E0
1.074951074E1,5.084459782E-1,2.614303827E-1,-7.986097336E-1
1.075951074E1,6.099793911E-1,2.889457941E-1,-5.094556808E-1
1.076951074E1,6.357313395E-1,2.771739960E-1,-4.147815704E-1
1.077951121E1,8.271083832E-1,3.572262526E-1,-5.137434006E-1
1.078951121E1,1.099481106E0,4.628610611E-1,-6.264324188E-1
1.079951121E1,1.829184771E0,4.822161198E-1,-5.783796310E-1
1.080951121E1,1.692164421E0,3.694994450E-1,-5.810184479E-1
1.081951121E1,7.380480170E-1,1.649397612E-1,-6.154909134E-1
1.083951074E1,-1.984063387E-1,-4.816627502E-2,4.519271851E-2
1.084951074E1,-4.280640483E-1,-2.960133553E-2,9.075927734E-2
1.085951074E1,-2.110872269E-1,7.795619965E-2,-2.100563049E-2
1.086951074E1,1.740040779E-1,2.333712578E-2,1.763534546E-2
1.087951074E1,5.339233875E-1,-1.004605293E-1,-9.875202179E-2
1.088951118E1,5.440838337E-1,-1.569305658E-1,-2.592992783E-1
1.089951118E1,3.456332684E-1,-5.150735378E-2,-4.075660706E-1
1.090951118E1,3.004628420E-2,-1.133527756E-1,-3.525228500E-1
1.091951118E1,-4.138445258E-1,-3.066648245E-1,-3.192949295E-1
1.092951118E1,-6.099313498E-1,-4.489744902E-1,-3.937988281E-1
1.094951074E1,-8.419667482E-1,-6.827365160E-1,-5.785312653E-1
1.095951074E1,-6.100944281E-1,-7.622495294E-1,-9.234819412E-1
1.096951074E1,-4.720016420E-1,-6.827380061E-1,-9.794025421E-1
1.097951074E1,-4.072902501E-1,-7.117059231E-1,-1.033388138E0
1.098951074E1,-4.984599650E-1,-7.010271549E-1,-9.027862549E-1
1.099951074E1,-4.142200351E-1,-4.404503703E-1,-4.089984894E-1
1.100951074E1,-5.144948959E-1,-3.393844366E-1,-1.947021484E-1
1.101951074E1,-9.641901851E-1,-3.853822947E-1,-2.006731033E-1
1.102951121E1,-1.068358660E0,-4.020994902E-1,-1.316442490E-1
1.103951121E1,-1.091205001E0,-3.709018230E-1,-1.357841492E-1
1.104951121E1,-6.728408933E-1,-1.995666623E-1,2.993574142E-1
1.105951121E1,-5.957411528E-1,6.338012218E-2,2.616024017E-1
1.106951121E1,-7.320030928E-1,-2.762079239E-4,6.266498566E-2
1.108951074E1,-9.310253263E-1,-3.761358857E-1,-8.439445496E-1
1.109951074E1,-5.213698149E-1,-3.989524245E-1,-8.242874146E-1
1.110951074E1,-2.520061731E-1,-2.847001553E-1,-7.624731064E-1
1.111951074E1,-2.737508714E-2,-3.304934502E-2,-6.843252182E-1
1.112951074E1,-7.291211933E-2,7.610094547E-2,-5.285024643E-1
1.113951117E1,-8.716891706E-2,1.017720699E-1,-5.315027237E-1
1.114951117E1,-5.857780576E-1,2.580726147E-2,-1.854753494E-1
1.115951117E1,-5.395654440E-1,1.230707169E-1,1.603717804E-1
1.116951117E1,-3.698874712E-1,2.502126098E-1,3.580379486E-1
1.117951117E1,-3.839448094E-3,2.974235415E-1,4.821672440E-1
1.119951074E1,2.161290348E-1,-2.897179127E-2,4.917573929E-1
1.120951074E1,2.195499241E-1,-3.543460369E-2,4.923963547E-1
1.121951074E1,-6.155741215E-1,-5.871933699E-2,2.083539963E-1
1.122951074E1,-7.692281008E-1,-2.155584097E-2,1.519231796E-1
1.123951074E1,-6.913519502E-1,-3.885489702E-2,1.026420593E-1
1.124951074E1,-4.899998307E-1,-1.747148633E-1,1.011762619E-1
1.125951074E1,-2.471162975E-1,-4.703103304E-1,-3.316879272E-3
1.126951074E1,-1.615770459E-1,-5.983638763E-1,-7.216072083E-2
1.127951120E1,-2.200810164E-1,-5.971850157E-1,-2.971515656E-1
1.128951167E1,-2.258331925E-1,-5.314861536E-1,1.479148865E-3
1.129951167E1,-1.165225282E-1,-4.098845720E-1,5.531044006E-1
1.130951167E1,-4.314273968E-2,-1.936407685E-1,5.582923889E-1
1.131951167E1,2.906025350E-1,-3.783529997E-2,7.597084045E-1
1.133951120E1,1.598914862E-1,1.654025316E-1,7.591352463E-1
1.134951120E1,7.932300121E-2,2.018438578E-1,6.822166443E-1
1.135951120E1,-1.857009232E-1,7.369136810E-2,7.804975510E-1
1.136951120E1,-3.120303154E-1,-7.901442051E-2,7.507333755E-1
1.137951120E1,-3.615623713E-1,-2.342588902E-1,3.629140854E-1
1.138951164E1,-1.994578242E-1,-3.082787991E-1,2.276678085E-1
1.139951164E1,5.460110307E-2,-2.038597465E-1,-9.562110901E-2
1.140951164E1,2.459326982E-1,-9.791588783E-2,-3.438367844E-1
1.141951164E1,6.732298136E-1,-1.864123344E-2,-6.105823517E-1
1.142951164E1,7.440928221E-1,-7.662820816E-2,-5.610494614E-1
1.144951120E1,7.271213531E-1,3.199234009E-1,-6.701154709E-1
1.145951120E1,2.922950089E-1,4.155325890E-1,-2.851324081E-1
1.146951120E1,-3.955465555E-2,2.738879919E-1,-6.826782227E-2
1.147951120E1,-3.766272664E-1,3.877961636E-2,-1.169433594E-1
1.148951120E1,-2.338842005E-1,6.200897694E-2,-2.989940643E-1
1.149951120E1,-5.523672700E-2,1.341917515E-1,-3.243904114E-1
1.150951120E1,-1.181583703E-1,1.212935448E-1,-2.576036453E-1
1.151951120E1,-1.692167222E-1,2.828940153E-1,-4.388008118E-1
1.152951167E1,-8.501577377E-2,3.719491959E-1,-4.563169479E-1
1.153951167E1,1.834863424E-2,4.132640362E-1,-5.451536179E-1
1.154951167E1,4.739224911E-2,2.560286522E-1,-5.071077347E-1
1.155951167E1,7.084572315E-2,9.450817108E-2,-5.890073776E-1
1.156951167E1,-6.731384993E-2,2.493894100E-2,-6.445035934E-1
1.158951074E1,-3.588547111E-1,-9.973621368E-2,-1.042907715E0
1.159951074E1,-2.512327433E-1,-1.342303753E-1,-1.278863907E0
1.160951074E1,-2.558791637E-1,-3.047618866E-1,-1.360653877E0
1.161951074E1,-4.011682868E-1,-3.704172373E-1,-1.514562607E0
1.162951074E1,-3.446351886E-1,-2.797555923E-1,-1.645272255E0
1.163951117E1,-2.107120752E-1,3.173720837E-2,-1.524647713E0
1.164951117E1,-7.585924864E-2,1.993658543E-1,-1.430287361E0
1.165951117E1,1.857291460E-1,2.356190681E-1,-1.472340584E0
1.166951117E1,2.706511021E-1,1.573126316E-1,-1.669846058E0
1.167951117E1,3.980445862E-1,2.054476738E-2,-1.936488628E0
1.169951073E1,2.824106216E-1,-4.446297884E-1,-2.283613205E0
1.170951073E1,2.338612080E-2,-6.482093334E-1,-2.108288288E0
1.171951073E1,-3.402501345E-1,-6.243969202E-1,-2.258525372E0
1.172951073E1,-3.780315518E-1,-4.771579504E-1,-2.252494335E0
1.173951073E1,-1.419953108E-1,-2.372876406E-1,-1.861875057E0
1.174951073E1,-1.443909407E-1,-1.743805408E-1,-1.670524120E0
1.175951073E1,-2.299614549E-1,-1.014397144E-1,-1.231609344E0
1.176951073E1,-2.226178646E-1,-1.127238274E-1,-7.930173874E-1
1.177951120E1,-2.380105257E-1,1.066040993E-2,-4.543886185E-1
1.178951120E1,-2.888534069E-1,8.639621735E-2,-3.927707672E-1
1.179951120E1,-1.967434883E-1,1.823899746E-1,-2.727766037E-1
1.180951120E1,-1.650478840E-1,1.988029480E-1,-2.430200577E-1
1.181951120E1,-5.862581730E-2,2.654969692E-1,-3.545503616E-1
1.183951073E1,-9.347724915E-2,2.888231277E-1,-1.289367676E-3
1.185944406E1,-1.476740837E-1,4.194524288E-1,2.402505875E-1
1.187937740E1,2.843093872E-2,2.744212151E-1,1.171483994E-1
1.189931073E1,2.455786467E-1,2.197182178E-1,1.061096191E-1
1.191924406E1,8.640658855E-2,1.155917645E-1,-1.793508530E-1
1.193917696E1,3.693354130E-2,7.820844650E-2,-4.555578232E-1
1.195911029E1,1.273852587E-1,2.650904655E-2,-3.183746338E-1
1.197904362E1,3.898930550E-1,-1.010129452E-1,-4.833507538E-1
1.199897742E1,2.533960342E-1,-2.551158667E-1,-7.701082230E-1
1.201891076E1,2.452839613E-1,-2.693085670E-1,-6.852273941E-1
1.203884409E1,2.588826418E-1,-2.098091841E-1,-3.397798538E-1
1.205877742E1,-1.776754856E-2,8.513307571E-2,-9.738826752E-2
1.207864362E1,-1.259398460E-2,1.598064899E-1,3.350257874E-2
1.209851028E1,1.781523228E-1,1.084482670E-1,1.142377853E-1
1.211837742E1,-1.623157263E-1,2.008092403E-1,3.830327988E-1
1.213824408E1,-3.991125226E-1,2.508890629E-1,3.858461380E-1
1.215817742E1,-1.895641685E-1,1.704858541E-1,1.863527298E-1
1.217811075E1,1.052453518E-1,2.809426785E-1,1.377048492E-1
1.219804408E1,1.107084751E-1,2.139012814E-1,-6.809234619E-3
1.221797788E1,2.860212326E-2,5.994629860E-2,-1.640892029E-1
1.223791121E1,-2.518334985E-1,-4.526066780E-2,-1.286525726E-1
1.225784454E1,2.340221405E-2,1.364791393E-1,-9.915161133E-2
1.227777787E1,2.987065315E-1,1.220760345E-1,-2.074480057E-1
1.229771074E1,4.278312922E-1,9.598827362E-2,-4.718570709E-1
1.231764407E1,2.026263475E-1,-5.039310455E-2,-5.563793182E-1
1.233757740E1,-4.101127386E-2,-1.833325624E-1,-6.186008453E-1
1.235751120E1,6.274360418E-2,-2.100218534E-1,-7.772941589E-1
1.236751167E1,6.173253059E-3,-2.590284348E-1,-7.546873093E-1
1.237751167E1,-2.270746827E-1,-3.344126940E-1,-5.981435776E-1
1.238751167E1,-3.266716301E-1,-3.309247494E-1,-4.859037399E-1
1.239751167E1,-3.302884996E-1,-3.147215843E-1,-4.890575409E-1
1.241751120E1,-1.532975435E-1,9.442901611E-2,6.082820892E-2
1.242751120E1,-2.323492765E-1,5.555331707E-2,2.058401108E-1
1.243751120E1,-4.217517674E-1,5.660176277E-2,3.178329468E-1
1.244751120E1,-4.373245835E-1,8.789169788E-2,2.649927139E-1
1.245751120E1,-5.081686974E-1,5.926370621E-3,1.549530029E-1
1.246751167E1,-5.488548875E-1,-6.244683266E-2,1.003170013E-1
1.247751167E1,-5.802030563E-1,-7.847321033E-2,4.127788544E-2
1.248751167E1,-5.638563633E-1,-9.288239479E-2,1.642322540E-2
1.249751167E1,-4.446749985E-1,-9.331154823E-2,-7.058238983E-2
1.250751167E1,-3.561100364E-1,-1.708303690E-1,-3.541088104E-2
1.252751120E1,-1.647824049E-1,-1.442228556E-1,-1.978464127E-1
1.253751120E1,-7.449787855E-2,-1.035684347E-1,-1.586132050E-1
1.254751120E1,-9.231770039E-2,-9.672164917E-2,-1.001214981E-1
1.255751120E1,-2.887338400E-2,1.127660275E-2,4.016399384E-2
1.257744500E1,1.430290937E-1,2.963795662E-1,-9.396076202E-2
1.259737833E1,2.037699819E-1,3.479148149E-1,-3.473138809E-1
1.261731166E1,2.228036523E-1,-3.861534595E-2,-7.212038040E-1
1.263724500E1,2.223653197E-1,1.969048977E-1,-7.766265869E-1
1.265717786E1,1.308215857E-1,3.172612190E-2,-6.391258240E-1
1.267711073E1,6.494683027E-2,-1.554775238E-2,-6.869239807E-1
1.269704456E1,4.341006279E-3,2.883055210E-1,-6.084117889E-1
1.271697789E1,3.752722144E-1,2.754855156E-2,-6.340351105E-1
1.273691122E1,2.288355827E-1,-4.291819334E-1,-7.835369110E-1
1.275684456E1,2.158698440E-2,-4.680322409E-1,-1.096370697E0
1.277677742E1,4.752400517E-1,-2.422329187E-1,-9.085569382E-1
1.279671075E1,7.791538239E-1,-1.700404882E-1,-4.202060699E-1
1.281664409E1,4.205354452E-1,-1.637433767E-1,1.802473068E-1
1.283657788E1,-7.393327355E-1,-6.606044769E-1,2.787504196E-1
1.285651122E1,-9.326474071E-1,-5.650991201E-1,-3.549575806E-1
1.286651122E1,-6.553335786E-1,-4.231599569E-1,-4.048633575E-1
1.288651075E1,3.537660837E-1,-1.420130730E-1,-1.054000854E-1
1.289651075E1,3.728902936E-1,-2.405343056E-1,-9.571743011E-2
1.290651075E1,1.956533492E-1,-3.925861120E-1,-1.833543777E-1
1.291651075E1,1.213243604E-2,-3.398908377E-1,-2.041053772E-1
1.292651075E1,-7.480761409E-2,-1.676034927E-1,-1.533603668E-1
1.293651102E1,-4.875800014E-2,-1.385604143E-1,-1.600160599E-1
1.294651102E1,-6.634808779E-1,2.617768049E-1,2.259855270E-1
1.295651102E1,-5.038423538E-1,3.505879641E-1,2.529544830E-1
1.296651102E1,-2.078337967E-1,2.353426218E-1,1.583118439E-1
1.297651102E1,2.380006611E-1,-1.454780102E-1,-1.915740967E-1
1.299651052E1,2.136445194E-1,-2.050863504E-1,-4.434976578E-1
1.300651052E1,2.893529832E-2,-3.576624393E-2,-3.440742493E-1
1.301651052E1,-2.965792418E-1,1.397762299E-1,-1.729488373E-2
1.302651052E1,-3.202290535E-1,2.683336735E-1,1.750659943E-1
1.303651052E1,-8.851183206E-2,4.354031086E-1,4.297161102E-1
1.304651052E1,1.392375827E-1,4.773721695E-1,5.172986984E-1
1.305651052E1,3.592346311E-1,3.945343494E-1,3.614997864E-1
1.306651052E1,4.092164040E-1,2.906876802E-1,2.139368057E-1
1.307651098E1,3.982810974E-1,2.716606855E-1,3.143787384E-2
1.308651098E1,4.594435692E-1,2.150686979E-1,-1.600122452E-1
1.309651098E1,5.305418968E-1,-1.187360287E-2,-3.729829788E-1
1.310651098E1,4.367679954E-1,-7.649219036E-2,-6.656475067E-1
1.311651098E1,2.964206338E-1,1.169413328E-1,-5.215463638E-1
1.313651052E1,2.666023672E-1,1.547141075E-1,1.827182770E-1
1.314651052E1,2.832454145E-1,1.507663727E-1,3.930597305E-1
1.315651052E1,5.270877481E-1,2.167617083E-1,2.877550125E-1
1.316651052E1,7.342781425E-1,2.036799192E-1,8.576011658E-2
1.317651052E1,9.774052501E-1,2.593696117E-1,-1.106281281E-1
1.318651078E1,1.016127467E0,3.677841425E-1,-1.369991302E-1
1.319651078E1,9.131565690E-1,5.967757702E-1,3.841810226E-1
1.320651078E1,5.521642566E-1,7.192980051E-1,7.346181870E-1
1.321651078E1,-4.758738354E-2,7.657743692E-1,1.027301788E0
1.322651078E1,-3.846018016E-1,7.227027416E-1,1.207985878E0
1.324651051E1,-2.053721696E-1,3.246436119E-1,1.030560493E0
1.325651051E1,3.548599482E-1,1.317100525E-1,5.788383484E-1
1.326651051E1,3.861434162E-1,5.540966988E-2,2.945919037E-1
1.327651051E1,2.387904525E-1,5.465483665E-2,-1.662721634E-1
1.328651051E1,1.763418764E-1,1.555758715E-1,-3.943061829E-1
1.329651051E1,8.922374249E-2,3.627318144E-1,-6.151504517E-1
1.330651051E1,6.727304310E-2,3.747476339E-1,-5.853261948E-1
1.331651051E1,-2.986157238E-1,2.838857174E-1,-5.465116501E-1
1.332651098E1,-3.762007654E-1,8.967876434E-2,-5.823860168E-1
1.333651098E1,-4.474036098E-1,-2.390385866E-1,-4.436063766E-1
1.334651098E1,-4.621615410E-1,-2.977904081E-1,-4.003887177E-1
1.335651098E1,-4.310992956E-1,-3.138418198E-1,-3.972940445E-1
1.336651098E1,-7.487034798E-2,-1.579860449E-1,-6.925144196E-1
1.338651051E1,3.380298615E-2,-5.314041376E-1,-9.017391205E-1
1.339651051E1,-1.640692949E-1,-9.168597460E-1,-9.598245621E-1
1.340651051E1,-2.360021472E-1,-1.134580851E0,-1.042827606E0
1.341651051E1,-3.775720894E-1,-1.137210965E0,-1.370398521E0
1.342651051E1,-4.745618701E-1,-9.957525134E-1,-1.424149513E0
1.343651078E1,-4.303152859E-1,-6.554285884E-1,-1.347698212E0
1.344651078E1,-3.412775993E-1,-4.000116587E-1,-9.591856003E-1
1.345651078E1,-2.091338634E-1,-1.460118294E-1,-3.733196259E-1
1.346651078E1,-1.292640567E-1,-3.245794773E-2,2.738666534E-2
1.347651078E1,2.785152197E-2,6.609737873E-2,3.153896332E-1
1.349651051E1,-2.783361375E-1,-9.287321568E-2,2.186155319E-1
1.350651051E1,-5.093443394E-1,-6.211888790E-2,5.964851379E-2
1.351651051E1,-6.957751513E-1,1.005817652E-1,-1.512336731E-2
1.352651051E1,-6.406515241E-1,2.129346132E-1,3.018569946E-2
1.353651051E1,-3.375475407E-1,1.879899502E-1,-1.950521469E-1
1.354651051E1,-1.698892713E-1,7.204735279E-2,-2.077121735E-1
1.355651051E1,-3.702443242E-1,-1.831429005E-1,-7.266712189E-2
1.356651051E1,-6.817594767E-1,-2.926025391E-1,7.607650757E-2
1.357651098E1,-7.120684385E-1,-2.764773369E-1,4.184970856E-1
1.358651098E1,-5.711392760E-1,-2.177802324E-1,4.068174362E-1
1.359651098E1,-3.800823689E-1,-1.837792397E-1,3.721094131E-1
1.360651098E1,-3.217453957E-1,-1.326448917E-1,3.406391144E-1
1.361651098E1,-2.763005495E-1,-1.024506092E-1,3.430452347E-1
1.363651051E1,-4.928272963E-2,-1.077529192E-1,-8.780288696E-2
1.364651051E1,-4.925101995E-2,-1.958947182E-1,-5.944728851E-2
1.365651051E1,-1.102409959E-1,-4.668053389E-1,-6.009864807E-2
1.366651051E1,-1.130139828E-1,-4.847657681E-1,-1.234722137E-1
1.367651051E1,-7.781445980E-2,-2.965970039E-1,-4.101181030E-2
1.368651078E1,-5.134463310E-3,-6.871461868E-2,-1.160812378E-2
1.369651078E1,1.916243434E-1,3.219674826E-1,9.648036957E-2
1.370651078E1,2.177794874E-1,6.042217016E-1,1.516780853E-1
1.371651078E1,-5.624777079E-2,8.921871185E-1,4.581861496E-1
1.372651078E1,-1.811907887E-1,8.702777624E-1,5.708875656E-1
1.374651051E1,-3.145101666E-1,4.674518108E-1,6.843624115E-1
1.375651051E1,-1.752314568E-1,1.004518270E-1,2.855443954E-1
1.376651051E1,-1.682884097E-1,-7.387816906E-2,-5.575180054E-3
1.377651051E1,-1.798051596E-1,-2.855634093E-1,-4.708452225E-1
1.378651051E1,-1.473223567E-1,-3.725512624E-1,-6.628036499E-1
1.379651051E1,-2.620525360E-1,-4.289655685E-1,-9.010496140E-1
1.380651051E1,-5.434100032E-1,-4.600268006E-1,-7.002811432E-1
1.381651051E1,-6.091133356E-1,-3.169867992E-1,-2.813425064E-1
1.382651098E1,-5.554500222E-1,-4.099011421E-2,-1.389169693E-1
1.383651098E1,-1.329510808E-1,4.789420366E-1,-4.179954529E-2
1.384651098E1,1.566967368E-1,6.916936636E-1,-2.716846466E-1
1.385651098E1,5.803623199E-1,8.110076189E-1,-2.966728210E-1
1.386651098E1,8.155708909E-1,7.719395161E-1,-2.150621414E-1
1.388651051E1,7.846561670E-1,7.633845806E-1,-1.319484711E-1
1.389651051E1,1.732305288E-1,2.117440701E-1,-3.956794739E-2
1.390651051E1,-2.536359429E-1,-2.171504498E-1,-7.850742340E-2
1.391651051E1,-8.540793657E-1,-7.923185825E-1,-3.562021255E-1
1.392651051E1,-1.137030363E0,-1.049604416E0,-5.186777115E-1
1.393651078E1,-1.196158528E0,-1.116565585E0,-7.486391068E-1
1.394651078E1,-8.642401695E-1,-1.015603900E0,-8.932294846E-1
1.395651078E1,-2.534000874E-1,-4.978995919E-1,-9.408750534E-1
1.396651078E1,1.220296621E-1,-1.406272650E-1,-7.868738174E-1
1.397651078E1,5.055407286E-1,3.036941290E-1,-6.738471985E-2
1.399651051E1,6.227816343E-1,1.792479753E-1,7.184505463E-1
1.400651051E1,6.211316586E-1,-6.561160088E-3,8.052930832E-1
1.401651051E1,1.509277821E-1,-2.132877111E-1,8.305454254E-1
1.402651051E1,-1.420465708E-1,-2.772842646E-1,7.784538269E-1
1.403651051E1,-5.073421001E-1,-2.564104199E-1,6.343364716E-1
1.404651051E1,-4.265133142E-1,-1.898946762E-1,5.753850937E-1
1.405651051E1,-1.250900030E-1,-3.701579571E-2,3.496246338E-1
1.406651051E1,7.704019547E-3,2.271027565E-1,1.152229309E-2
1.407651097E1,3.540933728E-1,5.673455000E-1,-2.099246979E-1
1.408651097E1,6.328886747E-1,4.829362631E-1,-1.029434204E-1
1.409651097E1,6.684523225E-1,-1.774084568E-2,2.031612396E-1
1.410651097E1,4.803711176E-1,-2.555634379E-1,3.784465790E-1
1.411651097E1,6.209611893E-2,-5.285884738E-1,3.094120026E-1
1.413651051E1,-2.142248154E-1,-6.441794634E-1,-1.984109879E-1
1.414651051E1,1.273159981E-1,-6.884411573E-1,-4.074840546E-1
1.415651051E1,4.226325154E-1,-7.698926330E-1,-6.476106644E-1
1.416651051E1,4.951646328E-1,-6.683648229E-1,-8.570919037E-1
1.417651051E1,5.143350959E-1,-5.311281085E-1,-1.057968140E0
1.418651077E1,5.295451283E-1,-3.415985107E-1,-1.063820839E0
1.419651077E1,6.244357228E-1,-1.570950150E-1,-6.495380402E-1
1.420651077E1,5.908219814E-1,-6.430947781E-2,-4.015150070E-1
1.421651077E1,2.891795635E-1,5.856847763E-2,1.932258606E-1
1.422651077E1,1.020072103E-1,2.687840462E-1,3.810024261E-1
1.424651051E1,1.268949509E-1,5.242729187E-1,5.299215317E-1
1.425651051E1,6.294918060E-2,2.815719843E-1,3.759994507E-1
1.426651051E1,-1.229906082E-2,1.044597030E-1,2.711620331E-1
1.427651051E1,-3.397930861E-1,-1.511715055E-1,1.424970627E-1
1.428651051E1,-4.251827002E-1,-2.254769206E-1,9.743881226E-2
1.429651051E1,-4.415063858E-1,-3.820635974E-1,2.823829651E-2
1.430651051E1,-3.522094488E-1,-4.862203896E-1,-8.663177490E-2
1.431651051E1,1.332569122E-1,-4.798808694E-1,-2.471275330E-1
1.432651097E1,4.446787834E-1,-4.141888320E-1,-2.858066559E-1
1.433651097E1,5.138695240E-1,-2.537430525E-1,-1.861619949E-1
1.434651097E1,4.265329838E-1,-8.023440838E-2,-6.568813324E-2
1.435651097E1,4.241611958E-1,1.670218706E-1,3.320121765E-1
1.436651097E1,3.920050263E-1,2.508044839E-1,5.571451187E-1
1.438651050E1,-2.418315411E-2,4.444045424E-1,7.217407227E-1
1.439651050E1,-1.278085113E-1,4.912985563E-1,5.799503326E-1
1.440651051E1,-7.890790701E-2,3.953878284E-1,4.465417862E-1
1.441651051E1,-2.890884876E-2,1.831178665E-1,2.633533478E-1
1.442651051E1,8.085286617E-2,5.848169327E-3,-1.788902283E-2
1.443651077E1,4.236350358E-1,-1.469041705E-1,-9.334278107E-2
1.444651077E1,5.771543980E-1,-1.872308850E-1,-9.267902374E-2
1.445651077E1,5.645181537E-1,-1.327427924E-1,-4.932785034E-2
1.446651077E1,2.476828098E-1,-1.229087114E-1,2.569961548E-1
1.447651077E1,-7.283312082E-2,4.100334644E-2,3.332128525E-1
1.449651050E1,-3.260431886E-1,-1.178932190E-2,2.283039093E-1
1.450651050E1,-3.000987172E-1,-2.093964815E-2,2.771835327E-1
1.451651050E1,-3.567808270E-1,1.632332802E-3,2.734708786E-1
1.452651050E1,-5.549161434E-1,-6.441733241E-2,3.345861435E-1
1.453651050E1,-5.468617082E-1,-1.972960234E-1,2.904920578E-1
1.454651050E1,-5.340937376E-1,-3.426685631E-1,1.913022995E-1
1.455651050E1,-6.259701252E-1,-4.487601817E-1,1.805047989E-1
1.456651050E1,-5.693991780E-1,-4.325643480E-1,2.819395065E-1
1.457651097E1,-3.203241825E-1,-2.766392827E-1,5.290403366E-1
1.458651097E1,-1.302690506E-1,-1.243911088E-1,6.897354126E-1
1.459651097E1,-7.353144884E-2,8.092063665E-2,9.581632614E-1
1.460651097E1,-2.244063616E-1,2.109606564E-1,1.006505966E0
1.461651097E1,-3.630006909E-1,2.163826227E-1,9.210119247E-1
1.463651050E1,-5.427739620E-1,-2.125429958E-1,4.451637268E-1
1.464651050E1,-5.750812292E-1,-3.589827120E-1,3.228454590E-1
1.465651050E1,-4.320895970E-1,-5.110532641E-1,3.203468323E-1
1.466651050E1,-3.558862507E-1,-5.146797895E-1,3.321847916E-1
1.467651050E1,-3.521835804E-1,-4.805439711E-1,5.593614578E-1
1.468651077E1,-4.317924678E-1,-4.751442671E-1,7.073984146E-1
1.469651077E1,-4.801010787E-1,-4.504646957E-1,7.021417618E-1
1.470651077E1,-4.775279760E-1,-3.839609921E-1,6.298389435E-1
1.471651077E1,-5.654764771E-1,-2.903186679E-1,5.694961548E-1
1.472651077E1,-6.299389601E-1,-2.840751708E-1,6.096343994E-1
1.474651050E1,-4.594346583E-1,-4.252618849E-1,7.378416061E-1
1.475651050E1,-4.548493028E-2,-3.312360048E-1,5.793905258E-1
1.476651050E1,2.640102804E-1,-1.469150633E-1,4.689054489E-1
1.477651050E1,6.844214201E-1,1.098066270E-1,4.877243042E-1
1.478651050E1,9.358522296E-1,2.589173019E-1,6.669731140E-1
1.479651050E1,1.326853752E0,4.222391248E-1,1.092747688E0
1.480651050E1,1.370410323E0,4.981292784E-1,1.231143951E0
1.481651050E1,1.209629416E0,6.110312343E-1,1.345657349E0
1.482651097E1,1.092385530E0,6.302168369E-1,1.287890434E0
1.483651097E1,9.651665092E-1,4.453616738E-1,1.120138168E0
1.484651097E1,8.367832899E-1,3.023416400E-1,8.448619843E-1
1.485651097E1,3.387300372E-1,1.568072587E-1,4.930534363E-1
1.486651097E1,8.881434798E-2,7.397919893E-2,3.855419159E-1
1.488651050E1,-5.149759054E-1,3.332118690E-2,4.962730408E-1
1.489651050E1,-3.803114295E-1,9.492237121E-2,6.259307861E-1
1.490651050E1,-2.482514381E-1,1.441364288E-1,6.910429001E-1
1.491651050E1,-1.523447037E-1,3.141490221E-1,8.184070587E-1
1.492651050E1,-1.897706389E-1,3.645842373E-1,8.738718033E-1
1.493651077E1,-2.097691298E-1,3.779975474E-1,9.723606110E-1
1.494651077E1,-2.012411356E-1,3.553806543E-1,9.822616577E-1
1.495651077E1,-3.106643558E-1,2.953060269E-1,8.652439117E-1
1.496651077E1,-3.841310143E-1,2.631664872E-1,7.386589050E-1
1.497651077E1,-5.942209363E-1,1.797418147E-1,5.905237198E-1
1.499651050E1,-7.154315114E-1,-1.173940003E-1,3.325662613E-1
1.500651050E1,-7.240654826E-1,-1.517366022E-1,3.351716995E-1
1.501651050E1,-6.308498979E-1,-7.035393268E-2,4.550333023E-1
1.502651050E1,-4.743508697E-1,1.353361085E-2,4.788970947E-1
1.503651050E1,-2.953299880E-1,6.687928736E-2,5.002832413E-1
1.504651050E1,-1.821674109E-1,6.161491573E-2,5.694913864E-1
1.505651050E1,-1.878314614E-1,5.606755614E-2,5.691967010E-1
1.506651050E1,2.457679808E-1,-3.255333751E-2,4.204158783E-1
1.507651097E1,2.220901847E-1,-5.322322249E-2,2.476053238E-1
1.508651097E1,1.278843284E-1,-4.516334459E-2,9.620571136E-2
1.509651097E1,2.004948258E-2,-1.297629923E-1,-6.482410431E-2
1.510651097E1,4.705902934E-2,-1.699020863E-1,-6.063842773E-2
1.511651097E1,3.425556421E-2,-1.762625426E-1,-6.120395660E-2
1.513651050E1,3.477006257E-1,-2.093754709E-2,2.541046143E-1
1.514651050E1,3.162852228E-1,-6.057322025E-3,2.779989243E-1
1.515651050E1,2.318587452E-1,-1.296320558E-2,2.566194534E-1
1.516651050E1,1.880545318E-1,5.903892219E-3,2.546339035E-1
1.517651050E1,2.393160760E-1,9.375102073E-2,1.690692902E-1
1.518651070E1,2.782722116E-1,7.122584432E-2,1.292467117E-1
1.519651070E1,2.758522332E-1,3.178378195E-2,-3.255748749E-2
1.520651070E1,2.030901313E-1,-4.807599634E-2,-6.016349792E-2
1.521651070E1,5.946004391E-2,-1.246748492E-1,-7.105922699E-2
1.522651070E1,2.122384310E-2,-1.718590558E-1,-8.445930481E-2
1.524651043E1,-1.870531440E-1,-1.007385999E-1,-6.133079529E-2
1.525651043E1,-4.136407375E-2,-8.144052327E-2,-1.565198898E-1
1.526651093E1,4.828912020E-2,-9.511988610E-2,-1.490745544E-1
1.527651093E1,1.039621830E-1,-7.783152163E-2,-1.395416260E-1
1.528651093E1,1.348660886E-1,-7.289037108E-3,-1.063966751E-1
1.529651093E1,1.585389078E-1,5.981184542E-2,-4.958343506E-2
1.530651093E1,1.794142425E-1,4.975748062E-2,-6.473636627E-2
1.531651093E1,1.493430138E-2,5.412325263E-2,-5.357742310E-2
1.532651140E1,-1.909172535E-2,1.606462598E-1,-6.149578094E-2
1.533651140E1,1.802177429E-1,3.252363205E-1,6.723594666E-2
1.534651140E1,3.654322624E-1,3.699495792E-1,1.147823334E-1
1.535651140E1,4.738596678E-1,3.390285373E-1,1.696205139E-1
1.536651140E1,4.303383231E-1,2.842682004E-1,1.649351120E-1
1.538651093E1,1.859581172E-1,9.953323007E-2,-2.603626251E-2
1.539651093E1,-4.081666470E-3,5.409108102E-2,-1.932420731E-1
1.540651093E1,-8.035302162E-2,5.736683309E-2,-1.402492523E-1
1.541651093E1,-1.908011436E-1,1.070165485E-1,4.423999786E-2
1.542651093E1,-1.566298008E-1,1.371654868E-1,1.041507721E-1
1.543651120E1,-3.598910570E-2,4.262930155E-2,1.042661667E-1
1.544651120E1,-1.059049368E-2,-5.852755904E-2,-2.719688416E-2
1.545651120E1,1.999503374E-2,-1.351709366E-1,-2.591075897E-1
1.546651120E1,2.457094193E-2,-1.541425884E-1,-3.713655472E-1
1.547651120E1,-9.144115448E-2,-9.315645695E-2,-3.591718674E-1
1.549651100E1,3.308715224E-1,5.205547810E-2,4.068565369E-2
1.550651146E1,5.125281215E-1,7.699188590E-2,1.843013763E-1
1.551651146E1,4.378205538E-1,8.549273014E-3,2.872047424E-1
1.552651146E1,2.784588635E-1,-4.518389702E-3,2.081422806E-1
1.553651146E1,6.312096119E-2,-5.604343116E-2,4.768180847E-2
1.554651146E1,-1.448267698E-2,-7.558546960E-2,9.305000305E-3
1.555651146E1,-3.524744511E-2,-2.568680048E-2,3.793621063E-2
1.557651143E1,-8.063781261E-2,1.398496330E-2,2.028179169E-1
1.558651143E1,-1.625525355E-1,-2.730570734E-2,2.649154663E-1
1.559651143E1,-2.389184237E-1,-6.713432074E-2,1.307535172E-1
1.560651143E1,-1.969995499E-1,-1.000953764E-1,-4.624176025E-2
1.561651143E1,-9.429138899E-2,-1.525841057E-1,-1.992254257E-1
1.563651096E1,-1.038103700E-1,-2.578662038E-1,-2.969675064E-1
1.564651096E1,-1.745029092E-1,-2.618225217E-1,-2.635984421E-1
1.565651096E1,-2.099766731E-1,-1.093460321E-1,-1.442947388E-1
1.566651096E1,-2.145477533E-1,-6.420314312E-2,-4.675483704E-2
1.567651096E1,-2.203099132E-1,-8.240477741E-2,1.033716202E-1
1.568651123E1,-2.294490337E-1,-7.748039067E-2,1.027679443E-1
1.569651123E1,1.964673400E-2,-1.278269291E-2,1.837501526E-1
1.570651123E1,6.186857820E-2,1.285856962E-2,1.164512634E-1
1.571651123E1,-4.542523623E-2,-2.882301807E-2,1.098823547E-2
1.572651123E1,-1.508964598E-1,-7.203538716E-2,-7.039642334E-2
1.574651096E1,-1.531373262E-1,-1.167475581E-1,-1.110191345E-1
1.575651096E1,-7.555201650E-2,-1.842859685E-1,-1.444778442E-1
1.576651096E1,2.667814493E-3,-1.862571537E-1,-8.451080322E-2
1.577651096E1,8.063989878E-2,-5.263347924E-2,6.526947021E-3
1.578651096E1,1.464477181E-1,7.248410583E-2,4.485416412E-2
1.579651096E1,1.828273237E-1,1.518206298E-1,6.639862061E-2
1.581651049E1,1.163573861E-1,7.383573055E-2,-3.896331787E-2
1.582651056E1,7.849979401E-2,6.752729416E-2,-7.487964630E-2
1.583651056E1,1.749071479E-2,4.611194134E-2,-1.300077438E-1
1.584651056E1,6.094285846E-2,1.527965069E-2,-1.133575439E-1
1.585651056E1,1.015136242E-1,3.247600794E-2,-5.363750458E-2
1.586651056E1,1.143282652E-1,8.952617645E-3,-4.187202454E-2
1.588651009E1,1.337081194E-2,4.489707947E-2,1.031970978E-2
1.589651009E1,-6.742328405E-3,1.115725935E-1,5.268096924E-3
1.590651009E1,3.340592980E-2,1.613259017E-1,9.601402283E-2
1.591651009E1,6.620186567E-2,1.845022440E-1,1.915502548E-1
1.592651009E1,6.641575694E-2,1.564649045E-1,1.602611542E-1
1.593651036E1,-5.932289362E-2,4.737377167E-2,1.051311493E-1
1.594651036E1,-1.560048759E-1,-2.298122644E-2,3.570938110E-2
1.595651036E1,-1.704328656E-1,-1.254851669E-1,2.274513245E-3
1.596651036E1,-1.409488022E-1,-1.676354259E-1,-1.005697250E-1
1.597651036E1,-2.168307006E-1,-1.996751428E-1,-1.220197678E-1
1.599651009E1,-1.824110746E-1,-1.122762263E-1,-5.955123901E-2
1.600651009E1,-8.224928379E-2,-4.677362740E-2,-2.106666565E-2
1.601651009E1,4.358071089E-2,-2.084970474E-4,5.570507050E-2
1.602651009E1,7.706165314E-2,4.793298244E-2,1.345272064E-1
1.603651009E1,1.218461096E-1,1.099224687E-1,1.941795349E-1
1.604651009E1,1.502942741E-1,1.011601090E-1,2.395248413E-1
1.605651009E1,1.266056597E-1,1.186073422E-1,1.508874893E-1
1.606651009E1,1.086038053E-1,8.976942301E-2,1.030836105E-1
1.607651056E1,1.199826598E-2,1.059558988E-2,-6.433868408E-2
1.608651056E1,-3.475219011E-2,3.712236881E-3,-1.287641525E-1
1.609651056E1,-1.208084822E-2,1.745879650E-3,-1.883945465E-1
1.610651056E1,3.294250369E-2,-2.698972821E-2,-2.312850952E-1
1.611651056E1,1.736830175E-1,-9.250700474E-3,-1.473083496E-1
1.613651049E1,2.144156396E-1,5.493918061E-2,8.228302002E-3
1.614651049E1,1.547564268E-1,2.372333407E-2,6.072902679E-2
1.615651049E1,7.050216198E-3,-1.530802250E-2,4.384040833E-2
1.616651049E1,-5.831977725E-2,-6.535121799E-2,-4.085540771E-3
1.617651049E1,-2.892416716E-2,-3.274768591E-2,-1.357097626E-1
1.618651076E1,9.207913280E-2,-1.715219021E-2,-1.020956039E-1
1.619651076E1,1.442915499E-1,4.445552826E-2,2.958965302E-2
1.620651076E1,1.463619471E-1,9.007045627E-2,9.650516510E-2
1.621651076E1,1.262021959E-1,1.616314948E-1,1.490373611E-1
1.622651076E1,9.774786234E-2,2.045497596E-1,1.752614975E-1
1.624651049E1,1.811804920E-1,2.802745998E-1,2.519025803E-1
1.625651049E1,2.069616318E-1,2.694823146E-1,1.347475052E-1
1.626651049E1,1.450402737E-1,2.258699834E-1,7.515907288E-2
1.627651049E1,3.047347069E-2,1.260021329E-1,4.196548462E-2
1.628651049E1,-5.522716045E-2,1.190411747E-1,-7.259750366E-2
1.629651049E1,2.772063017E-2,1.340472400E-1,-1.535987854E-1
1.630651049E1,1.439302266E-1,9.509822726E-2,-1.436605453E-1
1.631651049E1,2.180675119E-1,3.434085846E-2,-6.442260742E-2
1.632651096E1,1.522146612E-1,-1.045811176E-2,-1.411914825E-2
1.633651096E1,9.943959117E-2,-5.533450842E-2,-2.610588074E-2
1.634651096E1,1.712411642E-3,-8.923453093E-2,-7.163429260E-2
1.635651096E1,-2.780258656E-3,-1.090353727E-1,-1.195354462E-1
1.636651096E1,3.968837857E-2,-1.411501765E-1,-1.027946472E-1
1.638651049E1,4.794234037E-2,-7.656642795E-2,-1.460523605E-1
1.639651049E1,-8.436620235E-3,-5.435609818E-2,-6.251239777E-2
1.640651049E1,-2.191835642E-2,-5.632561445E-2,-6.286144257E-2
1.641651049E1,9.406864643E-3,-6.639045477E-2,5.411148071E-2
1.642651049E1,-1.900351048E-2,-4.991754889E-2,6.820964813E-2
1.643651076E1,6.121397018E-4,-7.549732924E-3,8.241176605E-2
1.644651076E1,1.686164737E-2,-1.843827963E-2,1.063318253E-1
1.645651076E1,8.941875398E-2,3.528833389E-2,7.043361664E-2
1.646651076E1,1.120711416E-1,9.729829431E-2,8.723640442E-2
1.647651076E1,8.483862877E-2,7.353246212E-2,1.519174576E-1
1.649651049E1,-2.120882869E-1,1.258790493E-2,9.453105927E-2
1.650651049E1,-2.633393407E-1,-9.530276060E-3,3.242015839E-2
1.651651049E1,-2.081957757E-1,-8.531337976E-2,-6.313037872E-2
1.652651049E1,-1.483952701E-1,-1.068533063E-1,-9.878540039E-2
1.653651049E1,-1.566303670E-1,-1.210625172E-1,-1.392650604E-1
1.654651049E1,-1.521295309E-1,-1.171952486E-1,-8.887481689E-2
1.655651049E1,-2.047403455E-1,-1.599962413E-1,-1.176185608E-1
1.656651049E1,-2.579686940E-1,-1.587018669E-1,-1.057271957E-1
1.657651095E1,-2.347680628E-1,-1.166054010E-1,-9.863376617E-2
1.658651095E1,-1.152299047E-1,-4.552462697E-2,-8.195877075E-2
1.659651095E1,3.571996093E-2,-5.319145322E-2,-5.810260773E-2
1.660651095E1,5.630281568E-2,-5.317971110E-2,1.365566254E-2
1.661651095E1,3.374767303E-2,-5.266189575E-3,1.837444305E-2
1.663651049E1,-2.510538697E-2,-7.401740551E-2,-9.650993347E-2
1.664651049E1,2.051588893E-2,-9.399580956E-2,-1.323394775E-1
1.665651049E1,1.456468701E-1,-9.841933846E-2,-1.610193253E-1
1.666651049E1,1.599716991E-1,-8.180120587E-2,-1.395263672E-1
1.667651049E1,1.385722458E-1,-1.054647565E-2,-4.396820068E-2
1.668651069E1,1.364865452E-1,4.534208775E-2,2.990627289E-2
1.669651069E1,1.595312059E-1,1.424897909E-1,2.210426331E-1
1.670651069E1,1.847267300E-1,1.945904493E-1,2.279024124E-1
1.671651069E1,2.035165429E-1,2.380138338E-1,2.227687836E-1
1.672651069E1,1.692545861E-1,2.165677845E-1,1.916160583E-1
1.674651042E1,1.065776348E-1,1.435656250E-1,8.189105988E-2
1.675651042E1,7.334166765E-2,4.764062166E-2,1.755237579E-2
1.676651042E1,2.163937688E-2,1.148322225E-2,-3.661155701E-3
1.677651042E1,-9.946128726E-2,2.162039280E-3,-6.798934937E-2
1.678651042E1,-1.071902215E-1,2.540990710E-2,-4.376888275E-2
1.679651042E1,-4.979532957E-2,2.386051416E-2,-2.199840546E-2
1.680651042E1,-5.199807882E-2,-3.655695915E-2,-6.012248993E-2
1.681651042E1,-3.480660915E-2,-9.187087417E-2,-6.473064423E-2
1.682651089E1,-4.544046521E-2,-9.083533287E-2,-1.125421524E-1
1.683651089E1,-2.302309871E-2,-5.836164951E-2,-5.264091492E-2
1.684651089E1,-4.851946235E-2,-2.946051955E-2,-1.682090759E-2
1.685651089E1,1.183953881E-2,-1.217874885E-2,4.052162170E-2
1.686651089E1,8.803606033E-4,-3.984421492E-3,4.031658173E-2
1.688651042E1,-6.359875202E-3,7.176586986E-2,1.452894211E-1
1.689651042E1,6.472265720E-2,1.108435392E-1,9.494972229E-2
1.690651042E1,1.388334036E-1,4.185068607E-2,9.514713287E-2
1.691651042E1,1.370349526E-1,3.597491980E-2,9.536170959E-2
1.692651042E1,-8.859890699E-2,-2.325680256E-1,-7.938671112E-2
1.693651069E1,-1.382158399E-1,-4.379478097E-2,-4.669551849E-1
1.694651068E1,-1.261934936E-1,-7.327675819E-2,-3.541154861E-1
1.695651068E1,4.350513220E-3,-1.092751026E-1,-1.025915146E-1
1.696651068E1,9.677395225E-2,-8.281564713E-2,7.683753967E-2
1.697651068E1,1.233046651E-1,4.241943359E-3,2.299442291E-1
1.699651048E1,-7.079097629E-2,1.345552206E-1,5.809688568E-2
1.700651048E1,-4.638770223E-2,5.458548665E-2,3.952407837E-2
1.701651048E1,-1.628547907E-3,-4.252964258E-2,7.383346558E-2
1.702651048E1,1.137960851E-1,-2.096945047E-2,6.759834290E-2
1.703651048E1,1.104792058E-1,1.597106457E-2,8.775615692E-2
1.704651049E1,7.133713365E-2,-6.571745872E-2,2.181663513E-1
1.705651048E1,7.548986673E-1,-8.166692257E-1,1.403684616E-1
1.706651049E1,7.443064451E-1,-6.240531206E-1,2.803544998E-1
1.707651095E1,-3.506436348E-1,2.626948059E-1,-7.198009491E-1
1.708651095E1,-4.608662128E-1,5.914423466E-1,-9.848375320E-1
1.709651095E1,-7.014732361E-1,3.848102689E-1,-7.206678391E-1
1.710651095E1,-6.553936601E-1,8.871564269E-2,-4.105854034E-1
1.711651095E1,-2.182510495E-1,-1.861006618E-1,9.120464325E-2
1.713651048E1,3.551842272E-1,-1.393077821E-1,5.014829636E-1
1.714651048E1,2.737524807E-1,-1.185391992E-1,5.303182602E-1
1.715651048E1,7.173478603E-2,-2.853336930E-2,4.035892487E-1
1.716651048E1,-8.223569393E-2,-1.910182834E-2,2.840137482E-1
1.717651048E1,-1.971346736E-1,-3.452396393E-2,1.141328812E-1
1.718651075E1,-1.512795687E-1,-2.638539672E-2,-3.169822693E-2
1.719651075E1,-1.349779367E-1,2.441704273E-3,-2.278270721E-1
1.720651075E1,-1.398657560E-1,-6.660938263E-3,-2.278509140E-1
1.721651075E1,-2.118657827E-1,-7.319790125E-2,6.680488586E-3
1.722651075E1,-8.816725016E-2,-2.336379886E-2,2.577066422E-1
1.724651048E1,3.598403931E-2,-4.666775465E-3,4.079656601E-1
1.725651048E1,-6.324887276E-3,2.767443657E-2,4.605159760E-1
1.726651048E1,-1.070342064E-1,4.688712955E-2,3.359088898E-1
1.727651048E1,-2.322730422E-1,9.647399187E-2,7.010078430E-2
1.728651048E1,-2.812981009E-1,3.211146593E-2,-7.834529877E-2
1.729651048E1,-3.345677853E-1,7.103502750E-3,-2.028198242E-1
1.730651048E1,-2.277330756E-1,6.005823612E-2,-2.865810394E-1
1.731651048E1,-3.484106064E-2,-4.640516639E-2,-2.507209778E-1
1.732651095E1,-6.542664766E-2,-9.546968341E-2,-2.104139328E-1
1.733651095E1,-1.171993613E-1,-9.389430285E-2,-1.725740433E-1
1.734651095E1,-1.285177469E-1,-1.112753451E-1,-1.182107925E-1
1.735651095E1,-9.880006313E-3,-1.003072858E-1,-1.840400696E-2
1.736651095E1,9.119156003E-2,-1.373577118E-2,3.342056274E-2
1.738651048E1,2.091493905E-1,1.890671253E-1,4.268836975E-1
1.739651048E1,1.380100548E-1,2.014169693E-1,4.311246872E-1
1.740651048E1,7.024928927E-2,1.373365521E-1,2.897243500E-1
1.741651048E1,1.363062859E-2,2.288365364E-2,1.248254776E-1
1.742651048E1,4.541486502E-2,-6.220436096E-2,-3.973674774E-2
1.743651075E1,2.122646570E-2,-1.731698513E-1,-3.238172531E-1
1.744651075E1,-5.111122131E-2,-1.718796492E-1,-3.398513794E-1
1.745651075E1,-6.930801272E-2,-9.932655096E-2,-2.865829468E-1
1.746651075E1,-3.195449710E-2,-1.070081592E-1,-2.313499451E-1
1.747651075E1,-4.478323460E-2,-2.087931037E-1,-1.043787003E-1
1.749651048E1,6.808352470E-2,-2.159753144E-1,9.603500366E-4
1.750651048E1,6.332689524E-2,-1.069718301E-1,-7.550144196E-2
1.751651048E1,9.887555242E-2,-2.201175690E-2,-1.757612228E-1
1.752651048E1,9.613692760E-2,-2.901917696E-2,-2.328519821E-1
1.753651048E1,4.278740287E-2,-2.333533764E-2,-2.612590790E-1
1.754651048E1,2.339169383E-2,-3.167569637E-3,-2.658567429E-1
1.755651048E1,8.717665076E-2,-9.008187056E-2,-2.107200623E-1
1.756651048E1,1.172463000E-1,-1.054334641E-1,-1.246585846E-1
1.757651095E1,1.095628440E-1,-1.099861860E-1,-7.696247101E-2
1.758651095E1,7.019105554E-2,-7.841062546E-2,-7.724475861E-2
1.759651095E1,6.469905376E-2,-8.137166500E-3,3.978443146E-2
1.760651095E1,3.420886397E-2,5.275249481E-2,7.775211334E-2
1.761651095E1,9.160101414E-3,1.432526112E-2,5.835914612E-2
1.763651048E1,-2.722295523E-1,-2.636933327E-2,-1.261539459E-1
1.764651048E1,-3.443078995E-1,8.468270302E-3,-1.238508224E-1
1.765651048E1,-3.344849050E-1,7.043522596E-2,1.958751678E-2
1.766651048E1,-2.402416766E-1,1.024509668E-1,9.823894501E-2
1.767651048E1,-5.448207259E-2,1.831305027E-1,1.408576965E-1
1.768651075E1,-1.035094261E-3,2.038746476E-1,1.881561279E-1
1.769651075E1,5.370378494E-3,2.243872285E-1,2.593641281E-1
1.770651075E1,1.449504495E-2,2.778689265E-1,3.496942520E-1
1.771651075E1,7.372823358E-2,3.263309002E-1,3.897695541E-1
1.772651075E1,1.020325273E-1,3.247199059E-1,3.606452942E-1
1.774651048E1,1.064818203E-1,1.605284810E-1,2.241411209E-1
1.775651048E1,7.025524974E-2,-3.256410360E-2,3.529834747E-2
1.776651048E1,2.486637235E-2,-1.538379490E-1,-2.654933929E-2
1.777651048E1,-5.647006631E-2,-1.495776772E-1,-5.724906921E-2
1.778651048E1,-5.070674419E-2,-1.461960971E-1,-1.215209961E-1
1.779651048E1,-1.061201096E-3,-2.106313407E-1,-1.499414444E-1
1.780651048E1,-2.399668097E-2,-2.347203791E-1,-8.991813660E-2
1.781651048E1,-2.869018912E-2,-2.319103181E-1,-8.023548126E-2
1.782651095E1,-4.771658778E-2,-2.486006320E-1,-8.258819580E-2
1.783651094E1,-1.350175440E-1,-2.347697020E-1,-1.041049957E-1
1.784651095E1,-8.558562398E-2,-1.771466136E-1,-1.232080460E-1
1.785651094E1,8.845210075E-3,-7.923954725E-2,-1.183633804E-1
1.786651094E1,6.202593446E-2,-5.347269773E-2,-1.302804947E-1
1.788651048E1,1.522759050E-1,-1.007473469E-2,-9.201812744E-2
1.789651048E1,1.061368585E-1,-3.237587214E-2,-1.112966537E-1
1.790651048E1,9.525746107E-3,3.749012947E-3,-6.359863281E-2
1.791651048E1,-6.093749404E-2,2.174103260E-2,-5.667114258E-2
1.792651094E1,-7.977929711E-2,7.085502148E-3,-3.776836395E-2
1.793651121E1,-9.577110410E-2,-3.626340628E-2,6.734466553E-2
1.794651121E1,-9.369662404E-2,-3.236609697E-2,6.720066071E-2
1.795651121E1,-7.434481382E-2,-8.657786250E-2,-4.780769348E-2
1.796651121E1,-1.171988845E-1,-9.969818592E-2,-6.453418732E-2
1.797651121E1,-1.115762591E-1,-9.497952461E-2,-6.457614899E-2
1.799651094E1,6.723529100E-2,3.737556934E-2,7.369041443E-3
1.800651094E1,1.291263700E-1,2.132707834E-2,3.611373901E-2
1.801651094E1,1.065677702E-1,8.932012320E-2,1.922702789E-2
1.802651094E1,8.887979388E-2,8.894383907E-2,4.541301727E-2
1.803651094E1,5.522197485E-2,5.657577515E-2,1.027050018E-1
1.804651094E1,2.649351954E-2,5.453097820E-2,8.582592010E-2
1.805651094E1,-5.884179473E-2,-4.918259382E-2,6.425571442E-2
1.806651094E1,-1.092574596E-1,-1.819509268E-2,7.383441925E-2
1.807651141E1,-4.300227761E-2,-4.620656371E-2,8.104515076E-2
1.808651141E1,-1.038503647E-2,-5.162951350E-2,9.298229218E-2
1.809651141E1,-9.208619595E-3,-1.815730333E-2,8.332633972E-2
1.810651141E1,-2.348640561E-2,1.851397753E-2,3.540325165E-2
1.811651141E1,-4.790174961E-2,-1.565140486E-2,-1.486110687E-2
1.813651094E1,-6.133973598E-3,-5.560016632E-2,-8.419036865E-2
1.814651094E1,1.556664705E-3,-4.155701399E-2,-1.105146408E-1
1.815651094E1,-1.988539100E-2,-5.781948566E-2,-1.081705093E-1
1.816651094E1,-2.464354038E-3,-7.695314288E-2,-7.477664948E-2
1.817651094E1,1.029317677E-1,-1.706898212E-3,6.425857544E-3
1.818651121E1,6.196910143E-2,1.219129562E-2,6.113052368E-2
1.819651121E1,4.911372066E-2,6.020188332E-3,1.062822342E-1
1.820651121E1,6.752228737E-2,-2.087295055E-3,8.929252625E-2
1.821651121E1,6.617349386E-2,8.064210415E-4,8.908653259E-2
1.823651047E1,9.002152085E-2,7.858318090E-2,8.394813538E-2
1.824651047E1,4.947158694E-2,9.966838360E-2,6.703948975E-2
1.825651047E1,-3.128099442E-2,3.096055984E-2,1.191139221E-2
1.826651047E1,-8.829659224E-2,9.754300117E-4,-3.356647491E-2
1.827651047E1,-1.090486944E-1,-1.024638116E-1,-6.700038910E-2
1.828651047E1,-1.324210763E-1,-9.302577376E-2,-6.697082520E-2
1.829651047E1,-1.227854788E-1,-5.499860644E-2,-3.106880188E-2
1.830651047E1,-9.949177504E-2,-6.566786766E-2,1.200580597E-2
1.831651047E1,-6.579655409E-2,-8.530133963E-2,9.593963623E-3
1.832651094E1,-2.683669329E-2,-7.332330942E-2,2.154827118E-2
1.833651094E1,1.151320338E-2,-6.102398038E-2,1.670551300E-2
1.834651094E1,-1.573413610E-3,-3.861439228E-2,6.925392151E-2
1.835651094E1,-9.485748410E-2,-2.570506930E-2,1.193571091E-1
1.836651094E1,-1.517585516E-1,-3.490623832E-2,1.096553802E-1
1.838651047E1,-9.200048447E-2,6.627231836E-3,9.303283691E-2
1.839651047E1,8.296698332E-3,7.395392656E-2,7.166767120E-2
1.840651047E1,1.911896467E-2,6.523698568E-2,6.472015381E-2
1.841651047E1,1.640227437E-2,2.891489863E-2,8.888816833E-2
1.842651047E1,3.288060427E-3,6.532073021E-3,6.515502930E-2
1.843651074E1,5.481359363E-2,-2.548557520E-2,-4.237270355E-2
1.844651074E1,3.395134211E-2,-7.935595512E-2,-1.092100143E-1
1.845651074E1,6.995758414E-2,-1.201083660E-1,-1.354255676E-1
1.846651074E1,1.255577505E-1,-1.223945320E-1,-9.242248535E-2
1.847651074E1,5.877253413E-2,-7.181826234E-2,-1.238908768E-1
1.849651047E1,6.565606594E-2,3.603306413E-2,-5.286312103E-2
1.850651047E1,9.124994278E-2,6.636601686E-2,-5.079746246E-2
1.851651047E1,2.226427943E-1,4.988881946E-2,-1.752471924E-2
1.852651047E1,1.941350102E-1,-1.759883761E-2,-8.486270905E-2
1.853651047E1,1.331122518E-1,-1.773568988E-2,-6.129360199E-2
1.854651047E1,1.265343428E-1,-1.518097520E-2,-6.170368195E-2
1.855651047E1,-7.111302018E-2,-2.202573419E-2,-9.561538696E-2
1.856651047E1,-7.983520627E-2,-4.207548499E-2,-3.610229492E-2
1.857651094E1,-1.199519038E-1,-4.483759403E-2,-3.876686096E-2
1.858651094E1,-1.316366494E-1,-1.093664765E-2,-1.024532318E-2
1.859651094E1,-9.135690331E-2,7.786688209E-2,8.300495148E-2
1.860651094E1,-2.458930016E-2,1.034954190E-1,1.810922623E-1
1.861651094E1,-1.870894432E-2,1.271800995E-1,2.768220901E-1
1.863651047E1,-1.154026389E-1,1.258775890E-1,2.124967575E-1
1.864651047E1,-1.581118107E-1,9.139034152E-2,1.148014069E-1
1.865651047E1,-1.692584157E-1,5.569708347E-2,1.011276245E-2
1.866651047E1,-1.443774402E-1,-2.080649137E-3,-2.270507812E-2
1.867651047E1,-1.421563029E-1,-9.271866083E-2,-8.146286011E-3
1.868651074E1,-1.742555499E-1,-1.117615104E-1,-2.005672455E-2
1.869651074E1,-1.827210188E-1,-5.622750521E-2,3.504180908E-2
1.870651074E1,-1.681132913E-1,-4.804980755E-2,9.247112274E-2
1.871651074E1,-1.823356152E-1,1.750534773E-2,1.068029404E-1
1.872651074E1,-1.693844795E-1,3.413784504E-2,6.375694275E-2
1.874651047E1,-2.523656785E-1,-9.080117941E-2,-2.694797516E-2
1.875651047E1,-3.986555934E-1,-1.180320084E-1,-4.596042633E-2
1.876651047E1,-4.399095178E-1,-1.075769663E-1,-5.070114136E-2
1.877651047E1,-4.067111015E-1,-3.013101220E-2,6.417655945E-2
1.878651047E1,-3.827809095E-1,5.224293470E-2,2.436056137E-1
1.879651047E1,-2.251442671E-1,1.408862770E-1,4.253501892E-1
1.880651047E1,-2.245877385E-1,1.174903214E-1,5.018787384E-1
1.881651047E1,-3.549433649E-1,2.299779654E-2,4.707775116E-1
1.882651094E1,-4.834077656E-1,-5.889225006E-2,3.945579529E-1
1.883651094E1,-7.235068083E-1,-1.570297182E-1,3.208627701E-1
1.884651094E1,-7.892763019E-1,-1.422697604E-1,2.473602295E-1
1.885651094E1,-8.502900004E-1,-8.765825629E-2,2.384462357E-1
1.886651094E1,-8.615688086E-1,-5.678236485E-2,2.557334900E-1
1.888651047E1,-8.217321634E-1,-6.760367751E-2,3.835325241E-1
1.889651047E1,-7.550850511E-1,-1.297460794E-1,3.434324265E-1
1.890651047E1,-6.801103950E-1,-1.490533054E-1,2.963438034E-1
1.891651047E1,-5.659755468E-1,-1.292084754E-1,2.517843246E-1
1.892651047E1,-5.059582591E-1,-9.989511967E-2,2.384281158E-1
1.893651074E1,-5.299185514E-1,-5.099284649E-2,2.920989990E-1
1.894651074E1,-5.211340189E-1,-7.558166981E-4,3.146982193E-1
1.895651074E1,-3.126856685E-1,7.844576240E-2,3.972234726E-1
1.896651074E1,-2.341055870E-1,8.487099409E-2,3.985290527E-1
1.897651074E1,-2.260816097E-1,5.335366726E-2,2.587871552E-1
1.899651047E1,-2.728200555E-1,-1.165295839E-1,5.917835236E-2
1.900651047E1,-1.995698810E-1,-1.376732886E-1,-1.060848236E-1
1.901651047E1,9.712207317E-2,-1.666535139E-1,-2.400588989E-1
1.902651047E1,2.051621079E-1,-1.650490165E-1,-2.401275635E-1
1.903651047E1,2.096045017E-1,-5.219066143E-2,-7.537364960E-2
1.904651047E1,2.252899408E-1,-1.840722561E-2,-2.090454102E-3
1.905651047E1,1.619954705E-1,-7.974505424E-2,4.140853882E-3
1.906651047E1,1.160676479E-1,-1.275908649E-1,3.444004059E-2
1.907651093E1,1.189863086E-1,-1.907530725E-1,-1.194562912E-1
1.908651093E1,6.486886740E-2,-1.570783257E-1,-2.777862549E-1
1.909651093E1,2.097058296E-2,-2.754350305E-1,-2.804679871E-1
1.910651093E1,-2.111321688E-2,-3.149132431E-1,-1.588001251E-1
1.911651093E1,-1.743168235E-1,-3.303917646E-1,-3.973865509E-2
1.913651047E1,-6.941110492E-1,-3.783181310E-1,1.070947647E-1
1.914651047E1,-9.174210429E-1,-3.697887361E-1,1.375846863E-1
1.915651047E1,-1.097532392E0,-3.426410556E-1,2.088508606E-1
1.916651047E1,-1.178958774E0,-3.069564104E-1,2.489824295E-1
1.917651047E1,-1.159300685E0,-1.914941072E-1,3.657627106E-1
1.918651073E1,-1.133960843E0,-2.037951350E-1,4.131326675E-1
1.919651073E1,-1.228041768E0,-2.545811236E-1,4.055099487E-1
1.920651073E1,-1.282399178E0,-2.942497432E-1,3.887128830E-1
1.921651073E1,-1.305894613E0,-3.128509521E-1,3.098735809E-1
1.922651073E1,-1.365636826E0,-3.385623097E-1,1.306381226E-1
1.924651047E1,-1.285772800E0,-4.804953337E-1,5.732917786E-2
1.925651047E1,-1.199478507E0,-5.572082400E-1,-4.520416260E-2
1.926651047E1,-1.189757824E0,-6.198134422E-1,-1.380910873E-1
1.927651047E1,-1.200798035E0,-6.347180605E-1,-1.544961929E-1
1.928651047E1,-1.237380385E0,-6.662812233E-1,-1.519069672E-1
1.929651047E1,-1.211586475E0,-6.715104580E-1,-2.715778351E-2
1.930651047E1,-1.083293915E0,-5.707629919E-1,1.648578644E-1
1.931651047E1,-8.127664328E-1,-3.672305346E-1,1.056528091E-1
1.932651093E1,-6.452910900E-1,-3.372798264E-1,2.554950714E-1
1.933651093E1,2.338888645E-1,-3.875979483E-1,-6.369304657E-2
1.934651093E1,9.384746552E-1,-4.116674066E-1,-1.812515259E-1
1.935651093E1,1.285946727E0,-2.431674600E-1,-1.802330017E-1
1.936651093E1,1.172243118E0,8.850991726E-3,-1.473178864E-1
1.938651046E1,8.506763577E-1,4.514012933E-1,1.822986603E-1
1.939651047E1,8.740090132E-1,4.571286440E-1,3.679618835E-1
1.940651046E1,9.279904962E-1,5.071415901E-1,4.248075485E-1
1.941651046E1,1.261494875E0,5.598374009E-1,2.573394775E-1
1.942651046E1,1.448833108E0,4.835282564E-1,1.034164429E-1
1.943651073E1,1.484252930E0,3.047148585E-1,-1.961746216E-1
1.944651073E1,1.404870629E0,2.109476328E-1,-3.037538528E-1
1.945651073E1,1.298092008E0,1.951046586E-1,-2.798824310E-1
1.946651073E1,1.233833671E0,2.568887472E-1,-1.638240814E-1
1.947651073E1,1.347080827E0,5.167313218E-1,4.500579834E-2
1.949651046E1,1.333607316E0,8.515256643E-1,6.339168549E-1
1.950651046E1,1.188897491E0,8.726803660E-1,6.819515228E-1
1.951651046E1,9.049333334E-1,7.322871089E-1,7.189636230E-1
1.952651046E1,8.108427525E-1,6.801496744E-1,5.561275482E-1
1.953651046E1,6.825554371E-1,5.630213022E-1,2.055854797E-1
1.954651046E1,5.056747794E-1,4.351784587E-1,3.105831146E-2
1.955651046E1,1.425575018E-1,2.058056593E-1,-3.538961411E-1
1.956651046E1,1.713371277E-2,4.304331541E-2,-4.180259705E-1
1.957651093E1,-1.943092346E-1,-1.058680415E-1,-4.271583557E-1
1.958651093E1,-1.582531929E-1,-1.049529314E-1,-5.116710663E-1
1.959651143E1,-3.455412388E-2,-4.189330339E-2,-4.394826889E-1
1.960651143E1,2.409172058E-2,5.447542667E-2,-3.717012405E-1
1.961651143E1,1.502759457E-1,2.339400649E-1,-4.680061340E-2
1.963651096E1,5.907773972E-1,5.715631843E-1,2.337951660E-1
1.964651096E1,4.777357578E-1,6.578439474E-1,3.363714218E-1
1.965651096E1,2.670372725E-1,6.829766035E-1,3.790884018E-1
1.966651096E1,2.575117350E-1,6.143081188E-1,4.155645370E-1
1.967651096E1,2.292604446E-1,4.960651398E-1,2.249727249E-1
1.968651123E1,2.185312510E-1,3.882977366E-1,1.488113403E-1
1.969651123E1,3.064390421E-1,1.891041398E-1,-1.231451035E-1
1.970651123E1,2.780255079E-1,2.888929844E-2,-3.173599243E-1
1.971651123E1,-2.865290642E-2,-1.488823295E-1,-5.759916306E-1
1.972651123E1,2.523934841E-2,-9.965837002E-2,-6.195831299E-1
1.974651096E1,2.357825041E-1,-1.014804840E-2,-3.753185272E-2
1.975651096E1,9.625947475E-2,-1.199507713E-2,4.353513718E-1
1.976651096E1,-6.173467636E-2,-1.035898924E-2,5.918998718E-1
1.977651096E1,-2.215279341E-1,8.718502522E-2,7.033128738E-1
1.978651096E1,-2.433301210E-1,4.046201706E-2,6.300640106E-1
1.979651096E1,-7.006251812E-2,-9.248030186E-2,4.666624069E-1
1.980651096E1,-5.594789982E-2,-2.097335458E-1,3.718004227E-1
1.981651096E1,-2.861309052E-1,-3.881111145E-1,1.022968292E-1
1.982651143E1,-4.187771082E-1,-4.913292825E-1,-1.180458069E-2
1.983651143E1,-4.178407192E-1,-7.154510021E-1,-1.813716888E-1
1.984651143E1,-4.794400930E-1,-7.358341217E-1,-3.466167450E-1
1.985651143E1,-4.252120256E-1,-4.916640222E-1,-4.791021347E-1
1.986651143E1,-2.568545341E-1,-3.382454813E-1,-5.340433121E-1
1.988651096E1,3.503024578E-2,3.280466795E-2,3.421306610E-2
1.990651046E1,1.200234890E-1,1.613229513E-2,6.803798676E-2
1.991651046E1,5.828522444E-1,-1.783020794E-1,-6.715011597E-2
1.992651046E1,7.998368740E-1,-2.350557745E-1,-2.636089325E-1
1.993651073E1,8.529787064E-1,-2.434845567E-1,-7.592163086E-1
1.994651073E1,6.889386177E-1,-3.031633198E-1,-7.119445801E-1
1.995651073E1,3.217740059E-1,-2.769301534E-1,-9.052104950E-1
1.996651073E1,3.010474443E-1,-2.342436314E-1,-1.007831573E0
1.997651073E1,4.165780544E-1,3.858149052E-3,-7.853088379E-1
1.999651046E1,7.398199439E-1,5.124037862E-1,-3.117218018E-1
2.000651046E1,8.096939325E-1,6.326093078E-1,-5.044937134E-3
2.001651046E1,7.403298616E-1,7.620110512E-1,5.574941635E-1
2.002651046E1,6.603275537E-1,8.223139644E-1,7.657737732E-1
2.003651046E1,3.378028870E-1,8.369273543E-1,4.071531296E-1
2.004651046E1,3.423711061E-1,7.784802318E-1,3.118515015E-1
2.005651046E1,3.116497993E-1,6.387022734E-1,2.192220688E-1
2.006651046E1,1.415497065E-1,6.384310126E-1,1.220378876E-1
2.007651093E1,1.593425274E-1,6.752008200E-1,2.573652267E-1
2.008651093E1,2.802536488E-1,6.416629553E-1,2.251844406E-1
2.009651093E1,3.793963194E-1,5.693272352E-1,9.005641937E-2
2.010651093E1,4.579118490E-1,5.263122916E-1,7.438945770E-2
2.011651093E1,3.101727962E-1,4.598199129E-1,1.563425064E-1
2.013651046E1,7.251560688E-2,5.137457848E-1,5.098314285E-1
2.014651046E1,9.920263290E-2,5.144271255E-1,5.644435883E-1
2.015651046E1,2.487894297E-1,4.022379518E-1,5.427875519E-1
2.016651046E1,3.433907032E-1,4.122264981E-1,4.216251373E-1
2.017651046E1,3.578079939E-1,5.058379769E-1,2.170677185E-1
2.018651072E1,1.724157333E-1,5.849518776E-1,2.594060898E-1
2.019651072E1,7.774579525E-2,4.503760934E-1,2.683181763E-1
2.020651072E1,1.247360706E-1,2.924979925E-1,2.356348038E-1
2.021651073E1,3.352526426E-1,9.934371710E-2,-2.088642120E-2
2.022651072E1,2.621225119E-1,-2.578133345E-2,-2.046089172E-1
2.024651046E1,2.463048697E-1,-1.093372703E-1,-7.204637527E-1
2.025651046E1,2.479966879E-1,-4.943811893E-2,-7.378625870E-1
2.026651046E1,2.436724901E-1,9.668469429E-4,-4.464282990E-1
2.027651046E1,2.038431168E-1,7.728105783E-2,-1.269187927E-1
2.028651046E1,1.950757504E-1,1.871007085E-1,-3.791904449E-2
2.029651046E1,7.301561236E-1,4.547789097E-1,2.522745132E-1
2.030651046E1,1.146525860E0,5.653859973E-1,2.510719299E-1
2.031651046E1,1.113952875E0,7.037404776E-1,3.556795120E-1
2.032651092E1,1.017108440E0,6.578981280E-1,3.366909027E-1
2.033651092E1,7.525687814E-1,3.605886698E-1,-1.173048019E-1
2.034651092E1,5.558481812E-1,1.136612892E-1,-2.641944885E-1
2.035651092E1,8.332610130E-2,-1.917827129E-2,-5.405530930E-1
2.036651092E1,-8.390879631E-2,1.936775446E-2,-6.306505203E-1
2.038651046E1,-8.701217175E-2,9.697985649E-2,-3.947629929E-1
2.039651046E1,1.256308556E-1,2.098301649E-1,-3.817596436E-1
2.040651046E1,3.893367052E-1,3.286848664E-1,-3.281059265E-1
2.041651046E1,6.571046114E-1,4.376983047E-1,-1.691303253E-1
2.042651046E1,6.063714027E-1,5.434491038E-1,7.324028015E-2
2.043651072E1,6.191884279E-1,8.225287795E-1,3.106441498E-1
2.044651072E1,4.651629925E-1,8.620303869E-1,4.112100601E-1
2.045651072E1,-1.515768766E-1,7.099850178E-1,6.413125992E-1
2.046651072E1,-5.011104345E-1,5.268079638E-1,7.763442993E-1
2.047651072E1,-4.192615747E-1,3.722604513E-1,6.562700272E-1
2.049651046E1,-1.876950264E-3,1.083308458E-1,8.692741394E-2
2.050651046E1,6.167709827E-2,4.354810715E-2,-9.255504608E-2
2.051651046E1,-5.342042446E-2,-5.797791481E-2,-1.932954788E-1
2.052651046E1,-1.374573708E-1,-1.413364410E-1,-1.781444550E-1
2.053651046E1,-3.829681873E-2,-2.094693780E-1,-8.444690704E-2
2.054651046E1,-1.495847106E-1,-2.533138990E-1,5.343437195E-2
2.055651046E1,-4.615799189E-1,-1.855145097E-1,3.633499146E-1
2.056651046E1,-4.566744566E-1,-5.279314518E-2,5.672864914E-1
2.057651092E1,-3.628111482E-1,2.184509039E-1,9.030771255E-1
2.058651092E1,-1.731139421E-1,3.530026674E-1,8.877773285E-1
2.059651092E1,2.192062736E-1,2.581157684E-1,7.400417328E-1
2.060651092E1,3.034122586E-1,1.449398994E-1,5.387601852E-1
2.061651092E1,3.551476002E-1,-8.285367489E-2,-1.232585907E-1
2.063651046E1,5.557280779E-1,-4.635575414E-1,-2.420368195E-1
2.064651046E1,7.431527376E-1,-5.346285701E-1,-2.896518707E-1
2.065651046E1,7.393261194E-1,-5.005182028E-1,-1.437864304E-1
2.066651046E1,5.354261994E-1,-4.011651278E-1,-9.301376343E-2
2.067651046E1,1.292425990E-1,-2.600312233E-1,-1.156806946E-2
2.068651072E1,-6.647366285E-2,-2.076029778E-1,-6.700325012E-2
2.069651072E1,-1.034125090E-1,-3.361495137E-1,-5.248928070E-2
2.070651072E1,2.488731742E-1,-3.895465732E-1,-5.895996094E-2
2.071651072E1,8.979733586E-1,-3.239687681E-1,-7.633209229E-3
2.072651072E1,1.099465370E0,-2.833032608E-1,-3.787517548E-2
2.074651045E1,1.411812544E0,-4.602984786E-1,1.315784454E-2
2.075651045E1,6.953879595E-1,-5.339146852E-1,3.143882751E-2
2.076651045E1,2.683529556E-1,-6.013961434E-1,1.547813416E-2
2.077651045E1,-1.023532748E-1,-6.207413673E-1,3.779792786E-2
2.078651045E1,-1.382562518E-1,-5.800341368E-1,-7.169723511E-2
2.079651045E1,6.072479486E-2,-5.398383141E-1,-4.472446442E-2
2.080651045E1,3.279482424E-1,-5.795670748E-1,-1.450786591E-1
2.081651045E1,6.661909223E-1,-6.034600735E-1,-1.786413193E-1
2.082651092E1,7.131271958E-1,-6.429646015E-1,-1.613426208E-2
2.083651092E1,6.769726276E-1,-7.135271430E-1,2.801895142E-1
2.084651092E1,5.851221085E-1,-5.338943601E-1,4.901599884E-1
2.085651092E1,6.664696336E-1,-6.062507629E-3,7.888545990E-1
2.086651092E1,8.398703337E-1,1.881463528E-1,8.366928101E-1
2.088651045E1,6.347348094E-1,7.865738869E-2,4.694519043E-1
2.089651045E1,2.909024358E-1,-2.326221466E-1,2.192144394E-1
2.090651045E1,-2.495270967E-2,-5.132684112E-1,1.322078705E-2
2.091651045E1,-7.412415743E-2,-7.258930802E-1,-2.810840607E-1
2.092651045E1,1.312373579E-1,-8.066111207E-1,-2.736663818E-1
2.093651072E1,4.161475897E-1,-7.565761209E-1,-4.556837082E-1
2.094651072E1,4.455826283E-1,-6.895390749E-1,-5.313816071E-1
2.095651072E1,1.018185616E-1,-6.513711810E-1,-2.732896805E-1
2.096651072E1,-1.608685255E-1,-6.609338522E-1,-2.058095932E-1
2.097651072E1,-2.118884325E-1,-6.190313697E-1,-1.082239151E-1
2.099651045E1,-1.240429878E-1,-6.254881620E-1,2.243814468E-1
2.100651045E1,-1.593144238E-1,-5.236718655E-1,2.715101242E-1
2.101651045E1,-1.790627539E-1,-5.108381510E-1,2.688541412E-1
2.102651045E1,4.020395875E-2,-5.376258492E-1,2.415571213E-1
2.103651045E1,2.563431859E-1,-4.648336172E-1,7.114887238E-2
2.104651045E1,4.515758753E-1,-4.005969763E-1,-3.583335876E-2
2.105651045E1,6.515778303E-1,-3.652139306E-1,-1.339817047E-2
2.106651045E1,7.669378519E-1,-3.301610351E-1,-1.133966446E-1
2.107651092E1,1.129753590E0,-2.966511250E-1,-2.782354355E-1
2.108651092E1,1.215205312E0,-3.233849406E-1,-2.493848801E-1
2.109651092E1,1.219613194E0,-3.210621476E-1,-2.495012283E-1
2.110651092E1,3.449317515E-1,-6.077214479E-1,-1.083612442E-1
2.111651092E1,-5.220599174E-1,-6.696616411E-1,-1.825284958E-1
2.113651045E1,-6.211702824E-1,-7.102115750E-1,-7.135581970E-2
2.114651045E1,-2.454236150E-2,-8.024381399E-1,-1.373281479E-1
2.115651045E1,8.301066756E-1,-8.423187733E-1,-9.782218933E-2
2.116651045E1,1.036270857E0,-8.071344495E-1,-1.686468124E-1
2.117651045E1,9.097155333E-1,-6.970453858E-1,-2.252931595E-1
2.118651072E1,5.132889748E-1,-6.342827082E-1,-1.176052094E-1
2.119651072E1,1.015622914E-1,-6.547343731E-1,-1.771068573E-2
2.120651072E1,5.317428708E-2,-6.370574832E-1,-1.359786987E-1
2.121651072E1,1.674148291E-1,-6.473719478E-1,-1.106500626E-1
2.122651072E1,1.797285080E-1,-6.400801539E-1,9.885406494E-2
2.124651045E1,8.700612187E-2,-5.554571152E-1,3.713045120E-1
2.125651045E1,2.039155811E-1,-3.941457868E-1,2.576484680E-1
2.126651045E1,1.835342497E-1,-3.931677938E-1,2.570962906E-1
2.127651045E1,4.149409235E-1,-2.969639301E-1,1.202373505E-1
2.128651045E1,6.610136628E-1,-3.149226904E-1,6.033515930E-2
2.129651045E1,8.046525717E-1,-3.239107132E-1,9.152221680E-2
2.130651045E1,6.824975610E-1,-3.231893778E-1,1.059141159E-1
2.131651045E1,3.375802934E-1,-3.980694413E-1,2.757835388E-1
2.132651092E1,3.652562946E-2,-3.670887947E-1,2.971506119E-1
2.133651092E1,-5.732527375E-2,-1.928966045E-1,8.879470825E-2
2.134651092E1,4.478026554E-2,-1.883887053E-1,2.443790436E-2
2.135651092E1,5.154398084E-2,-3.235428333E-1,2.286996841E-1
2.136651092E1,1.912249029E-1,-3.712838292E-1,4.800415039E-2
2.138651045E1,5.841919780E-1,-4.204900861E-1,-1.519699097E-1
2.139651045E1,2.443997413E-1,-4.719977975E-1,-3.563432693E-1
2.140651045E1,4.060074687E-2,-4.955238104E-1,-2.127571106E-1
2.141651045E1,-9.017477930E-2,-4.356411695E-1,1.791973114E-1
2.142651045E1,8.760656416E-2,-3.069795370E-1,2.993202209E-1
2.143651072E1,3.642385602E-1,-2.064131498E-1,6.228923798E-1
2.144651072E1,2.673619986E-1,-2.148834467E-1,6.213846207E-1
2.145651072E1,7.324159145E-2,-2.679842710E-1,3.358535767E-1
2.146651072E1,2.162393034E-1,-3.634113073E-1,1.900911331E-1
2.147651072E1,4.630065262E-1,-4.699177146E-1,7.839488983E-2
2.149651045E1,4.744302928E-1,-4.398031831E-1,-6.411075592E-2
2.150651045E1,4.779198170E-1,-3.823764324E-1,7.202148438E-2
2.151651045E1,1.576585323E-1,-3.648004532E-1,1.625518799E-1
2.152651045E1,-1.247471347E-1,-4.294180870E-1,1.239223480E-1
2.153651045E1,-4.883365929E-1,-6.299006939E-1,6.880283356E-2
2.154651045E1,-5.237306952E-1,-7.496604323E-1,5.218505859E-3
2.155651045E1,-4.878068566E-1,-8.024155498E-1,-8.640480042E-2
2.156651045E1,-5.134717226E-1,-7.614555359E-1,-9.151840210E-2
2.157651091E1,-3.660566807E-1,-6.741196513E-1,-1.613817215E-1
2.158651091E1,-2.521466613E-1,-6.700893044E-1,-6.643676758E-2
2.159651091E1,-1.709628850E-1,-5.948419571E-1,2.074337006E-2
2.160651091E1,-1.161591485E-1,-4.484773874E-1,2.832698822E-2
2.161651091E1,-9.253403544E-2,-2.729654312E-1,1.767711639E-1
2.163651045E1,-1.038635150E-1,-3.487535715E-1,3.341655731E-1
2.165644378E1,-1.013974398E-1,-5.500051379E-1,4.441642761E-2
2.167637711E1,-7.100358009E-1,-6.249309182E-1,-3.853073120E-1
2.169631091E1,-1.280238509E0,-8.895527720E-1,-3.942985535E-1
2.171624424E1,-6.376366615E-1,-8.775526285E-1,-3.863162994E-1
2.173617731E1,6.160888672E-1,-7.634695172E-1,-2.373571396E-1
2.175611064E1,2.996530235E-1,-2.670234442E-1,-1.392679214E-1
2.177604397E1,-9.332869649E-1,-1.256628036E-1,4.807252884E-1
2.179597777E1,-2.197487354E0,-3.663410544E-1,9.167833328E-1
2.181591110E1,-8.144747615E-1,-7.705897093E-1,5.012369156E-1
2.183584444E1,7.207502127E-1,-2.920304537E-1,-4.254064560E-1
2.185577777E1,3.939460814E-1,8.329141140E-2,-3.874149323E-1
2.187564397E1,-5.075011253E-1,-2.706365585E-1,-9.915637970E-2
2.189551063E1,-1.204667807E0,-4.704564810E-1,-1.572122574E-1
2.191537777E1,-7.180393338E-1,-5.342780352E-1,-5.896863937E-1
2.193524443E1,-1.007606387E-1,-4.117177725E-1,-4.915018082E-1
2.195517776E1,-3.352527022E-1,2.395856380E-2,4.581165314E-2
2.197511110E1,-4.326556921E-1,6.435990334E-2,2.742929459E-1
2.199504396E1,9.562329948E-2,1.471647024E-1,3.562669754E-1
2.201497773E1,2.447527945E-1,1.300981045E-1,4.022598267E-1
2.203491106E1,3.304165602E-1,9.710490704E-2,3.786821365E-1
2.205484439E1,4.678555429E-1,3.620338440E-2,2.174158096E-1
2.207477772E1,1.156787351E-1,-6.359112263E-2,7.320213318E-2
2.209471059E1,-2.992112041E-1,-1.036200523E-1,8.389663696E-2
2.211464392E1,-5.663204193E-1,-4.117180705E-1,5.259227753E-2
2.213457725E1,-7.229375243E-1,-5.179179311E-1,-3.012742996E-1
2.215451105E1,-2.039023340E-1,-3.833051920E-1,-5.194816589E-1
2.216451105E1,-4.644055665E-2,-4.337886572E-1,-4.743022919E-1
2.217451105E1,9.327596426E-2,-4.051238298E-1,-1.996526718E-1
2.218451105E1,6.931921095E-2,-3.187549114E-1,3.113555908E-2
2.219451105E1,-7.778438926E-2,-1.716951132E-1,1.636686325E-1
2.221451059E1,-1.164782792E-1,-2.248982191E-1,4.316663742E-1
2.222451058E1,-6.022561342E-2,-2.157434225E-1,3.141794205E-1
2.223451059E1,-1.133574173E-1,-1.924912930E-1,9.684181213E-2
2.224451058E1,-2.720510662E-1,-2.587903738E-1,-5.299854279E-2
2.225451059E1,-4.667603970E-1,-2.989951372E-1,-2.459325790E-1
2.226451102E1,-5.679039955E-1,-3.335247040E-1,-2.023448944E-1
2.227451102E1,-6.633702517E-1,-3.896439075E-1,-6.608772278E-2
2.228451102E1,-6.766400337E-1,-4.392421842E-1,-4.058456421E-2
2.229451102E1,-7.017165422E-1,-5.467482209E-1,3.251552582E-2
2.230451102E1,-6.083104610E-1,-5.406059623E-1,1.153783798E-1
2.232451058E1,-4.734064043E-1,-4.511417747E-1,1.360378265E-1
2.233451058E1,-4.277155101E-1,-2.980716228E-1,-1.129684448E-1
2.234451058E1,-2.431162298E-1,-2.468144894E-1,-2.660160065E-1
2.235451058E1,-5.891316384E-2,-3.456801176E-1,-2.060604095E-1
2.236451058E1,-9.508720040E-2,-3.751679063E-1,-1.368436813E-1
2.237451058E1,-2.004063129E-1,-2.368446589E-1,-3.446006775E-2
2.238451058E1,-2.890844643E-1,-1.579537392E-1,3.403186798E-2
2.239451058E1,-2.635460794E-1,-1.952683926E-2,1.860513687E-1
2.240451065E1,-1.247326732E-1,3.606677055E-2,2.182350159E-1
2.241451065E1,-2.966591343E-2,-8.064985275E-3,2.482366562E-1
2.242451065E1,-9.568871558E-2,-1.302481890E-1,1.832885742E-1
2.243451065E1,-4.279136360E-1,-3.918941617E-1,-7.281303406E-2
2.244451065E1,-6.709122062E-1,-5.061081052E-1,-1.626338959E-1
