"Time (s)","Linear Acceleration x (m/s^2)","Linear Acceleration y (m/s^2)","Linear Acceleration z (m/s^2)"
0.000000000E0,-2.541296184E-3,-3.126718104E-3,5.384445190E-3
1.000000000E-2,-1.792542636E-3,-3.091171384E-3,5.389213562E-3
2.000000000E-2,-5.882196128E-3,-7.684547454E-3,-6.577491760E-3
3.000000000E-2,6.713256240E-3,6.939768791E-3,-6.574630737E-3
4.000000000E-2,7.355384529E-3,-1.676570252E-2,-8.964538574E-3
5.000000000E-2,7.415227592E-3,-4.778228700E-3,3.007888794E-3
6.000185700E-2,5.099333823E-3,-1.196544431E-2,3.007888794E-3
7.000185700E-2,9.889081120E-3,2.565607429E-5,-1.781463623E-3
8.000185700E-2,2.440981567E-3,-1.861952245E-3,-8.967399597E-3
9.000185700E-2,4.913553596E-3,-1.144366153E-2,6.093978882E-4
1.000018570E-1,2.327688038E-3,-1.442961395E-3,5.394935608E-3
1.100018570E-1,-5.070671439E-3,1.087500528E-2,6.036758423E-4
1.200018570E-1,-7.831774652E-3,-3.037437797E-3,5.388259888E-3
1.300018570E-1,4.380077124E-3,-2.619042993E-3,1.017761230E-2
1.400018570E-1,4.502251744E-3,-1.528970897E-4,-4.187583923E-3
1.500018570E-1,-1.447104663E-2,2.309840173E-3,2.996444702E-3
1.600018570E-1,1.683194190E-2,-7.257748395E-3,-4.184722900E-3
1.700018570E-1,1.934401318E-2,-1.444683969E-2,6.036758423E-4
1.800018570E-1,-9.265206754E-3,4.779018462E-3,5.393981934E-3
1.900018570E-1,1.006972045E-2,-9.518591687E-3,3.000259399E-3
2.000025230E-1,7.321760058E-4,-9.453738108E-3,1.497268677E-2
2.100025230E-1,-9.036250412E-3,-6.635222584E-3,-8.972167969E-3
2.200025230E-1,-1.611317694E-2,6.791353226E-4,-1.790046692E-3
2.300025230E-1,-8.805938065E-3,-1.604348421E-3,-4.182815552E-3
2.400025230E-1,-8.739359677E-3,1.528919116E-2,6.055831909E-4
2.500025230E-1,-3.358654678E-3,-1.579174772E-2,7.792472839E-3
2.600025230E-1,3.495110571E-2,-2.295441180E-2,-7.600784302E-2
2.700025230E-1,-8.188515902E-3,2.248004824E-2,3.173542023E-2
2.800025230E-1,4.009552300E-3,1.548047736E-2,-8.966445923E-3
2.900025230E-1,-1.746053994E-2,-6.072383374E-3,-6.571769714E-3
3.000025230E-1,-7.439926267E-3,-8.610295132E-3,-4.174232483E-3
3.100025230E-1,-9.715639055E-3,-6.203386933E-3,7.799148560E-3
3.200025230E-1,4.948385060E-3,-6.141711026E-3,1.258850098E-2
3.300025230E-1,7.647603750E-3,-8.357485756E-3,-8.957862854E-3
3.400025230E-1,1.739324629E-2,4.153706133E-3,1.498413086E-2
3.500025230E-1,7.680945098E-3,-2.419678867E-2,-4.172325134E-3
3.700020890E-1,2.124711871E-3,7.582126185E-3,-1.786231995E-3
3.800020890E-1,-5.241170526E-3,7.474781945E-3,1.257896423E-2
3.900020890E-1,6.609298289E-3,-2.370280027E-2,-2.333641052E-2
4.000020890E-1,-7.995881140E-3,1.751650125E-4,-2.333736420E-2
4.100020890E-1,-7.956996560E-4,2.529293299E-3,7.788658142E-3
4.200020890E-1,8.756749332E-3,3.120252863E-3,6.036758423E-4
4.300020890E-1,1.636110246E-3,1.035855524E-2,-1.791000366E-3
4.400020890E-1,1.076991856E-2,-4.197666422E-3,1.257324219E-2
4.500025550E-1,-1.496091485E-3,1.256002299E-2,2.693557739E-2
4.600025550E-1,8.278183639E-3,1.496318728E-2,5.389213562E-3
4.700025550E-1,-1.548717916E-2,-1.136438921E-2,-1.615810394E-2
4.800025550E-1,6.180040538E-3,-1.135125011E-2,1.736259460E-2
4.900025550E-1,-1.273468137E-2,-1.128660329E-2,-1.615619659E-2
5.100020880E-1,6.597049534E-3,-4.094140604E-3,-1.789093018E-3
5.200020880E-1,3.036551178E-2,8.260523900E-3,5.391120911E-3
5.300020880E-1,-6.016150117E-3,5.932981148E-3,-8.977890015E-3
5.400020880E-1,5.951806903E-3,3.479896113E-3,7.782936096E-3
5.500020880E-1,-5.959652364E-3,1.101942733E-3,5.388259888E-3
5.600025210E-1,-1.170970500E-3,-3.686245531E-3,-6.583213806E-3
5.700025210E-1,-3.979630768E-3,1.303907484E-2,-6.586074829E-3
5.800025210E-1,-1.834522933E-2,3.462122753E-3,5.970001221E-4
5.900025210E-1,8.101537824E-4,-8.489530534E-3,1.496219635E-2
6.000025210E-1,3.322042525E-3,-1.313146204E-3,5.979537964E-4
6.100025210E-1,-1.344442368E-3,5.941344425E-3,5.979537964E-4
6.200025210E-1,1.794476062E-2,3.500310704E-3,-8.977890015E-3
6.300025210E-1,-2.030500025E-2,1.067969017E-2,5.388259888E-3
6.400025210E-1,8.486300707E-3,-1.564103365E-2,7.783889771E-3
6.500025210E-1,-8.213847876E-3,-2.041344903E-2,5.389213562E-3
6.600025210E-1,6.410539150E-3,-8.044557646E-3,7.783889771E-3
6.700025210E-1,1.119921356E-2,-1.283298619E-2,6.008148193E-4
6.800025210E-1,1.351798326E-2,-2.524470910E-3,1.257038116E-2
6.900025210E-1,-3.591328859E-3,2.677142620E-3,-1.799583435E-3
7.000029870E-1,8.384622633E-3,1.951553486E-2,1.974964142E-2
7.100029870E-1,-1.073740423E-3,9.951576591E-3,1.496124268E-2
7.200029870E-1,-1.008160412E-3,4.887059331E-4,-4.192352295E-3
7.300029870E-1,8.298665285E-3,1.459531486E-2,1.974964142E-2
7.400029870E-1,1.320602000E-2,7.425611839E-3,5.960464478E-4
7.600025200E-1,3.815583885E-3,-7.108224556E-3,5.970001221E-4
7.700025200E-1,-1.521760225E-2,-4.661640152E-3,-4.190444946E-3
7.800025200E-1,1.604200155E-2,1.409203000E-2,-6.582260132E-3
7.900025200E-1,8.935369551E-3,-5.105495453E-3,6.008148193E-4
8.000025200E-1,-2.973824739E-3,-1.223282702E-2,-1.793861389E-3
8.100029530E-1,8.655346930E-3,9.512398392E-3,5.979537964E-4
8.200029530E-1,8.836075664E-3,-7.179468870E-3,2.993583679E-3
8.300029530E-1,6.618075073E-3,9.570410475E-3,-8.975982666E-3
8.400029530E-1,9.196467698E-3,7.302930579E-3,6.017684937E-4
8.500029530E-1,1.515187323E-3,-2.634512633E-2,3.890609741E-2
8.700025190E-1,6.487928331E-3,7.301665843E-3,1.017570496E-2
8.800025190E-1,-1.054950058E-2,1.683595031E-2,7.780075073E-3
8.900025190E-1,-8.313670754E-3,2.126075886E-2,-1.137447357E-2
9.000025190E-1,5.860202014E-3,1.108565181E-2,-2.813339233E-2
9.100025190E-1,-3.937311471E-3,7.550343871E-4,5.979537964E-4
9.200025190E-1,5.585707724E-3,1.999131031E-2,2.992630005E-3
9.300025190E-1,-6.471276283E-3,7.219335064E-3,-2.094841003E-2
9.400025190E-1,-6.432533264E-3,-3.047466278E-3,-4.186630249E-3
9.500029850E-1,-3.927178681E-3,-3.505595028E-3,-4.183769226E-3
9.600029850E-1,1.522704959E-2,1.283027232E-3,-6.578445435E-3
9.700029850E-1,-4.097074270E-3,-1.124832779E-2,2.454853058E-2
9.800029850E-1,-6.494693458E-3,-1.729827374E-3,5.393981934E-3
9.900029850E-1,-6.493337452E-3,6.843619049E-4,6.055831909E-4
1.010002518E0,7.058680058E-4,-4.163559526E-3,-1.789093018E-3
1.020002518E0,-8.463717997E-3,-8.700480685E-3,-1.787185669E-3
1.030002518E0,1.315408200E-2,-1.604432613E-2,-4.179954529E-3
1.040002518E0,1.179367304E-3,-8.920101449E-3,-1.786231995E-3
1.050002518E0,1.152373850E-3,5.997341126E-3,-1.136493683E-2
1.060002951E0,1.310247928E-2,-5.324363708E-3,-1.136684418E-2
1.070002951E0,2.507051453E-2,1.616550982E-2,6.046295166E-4
1.080002951E0,7.841683924E-3,4.240591079E-3,-4.187583923E-3
1.090002951E0,-8.859194815E-3,-5.505643785E-4,2.995491028E-3
1.100002951E0,-2.304711193E-2,-5.328953266E-3,-6.580352783E-3
1.120002517E0,-4.069276154E-3,-5.305819213E-4,-1.137065887E-2
1.130002517E0,-1.736037433E-3,1.379923150E-2,-4.187583923E-3
1.140002983E0,-1.837833971E-2,1.139852405E-2,1.496696472E-2
1.150002983E0,-1.762942970E-2,8.705507964E-3,1.018524170E-2
1.160002983E0,-1.446788013E-2,-1.076811925E-2,5.403518677E-3
1.170002983E0,1.023395360E-2,3.475014120E-3,-1.613903046E-2
1.180002983E0,8.433073759E-3,-1.834357716E-2,-4.161834717E-3
1.190002983E0,2.312782034E-2,1.066572964E-3,-8.949279785E-3
1.200003449E0,6.424427032E-3,1.060126349E-2,-1.852703094E-2
1.210003449E0,3.390051425E-3,5.614105612E-3,-1.770019531E-3
1.220003449E0,5.666904151E-3,-1.113888249E-2,-1.613616943E-2
1.230003449E0,8.003547788E-3,-3.933157772E-3,-1.771926880E-3
1.240003449E0,-4.294991493E-3,-1.421600580E-3,6.198883057E-4
1.260003215E0,-6.569355726E-3,1.776516810E-2,6.208419800E-4
1.270003215E0,-8.901439607E-3,3.455013037E-3,5.409240723E-3
1.280003215E0,3.188520670E-3,-6.109368056E-3,-4.166603088E-3
1.290003215E0,5.818948150E-3,8.262436837E-3,-4.164695740E-3
1.300003215E0,1.804605871E-2,3.478910774E-3,1.020240784E-2
1.310003648E0,-1.364886761E-3,1.060333103E-3,7.806777954E-3
1.320003648E0,3.663279116E-3,1.549110189E-2,-6.557464600E-3
1.330004114E0,1.035675406E-3,-3.963571042E-3,6.246566772E-4
1.340004114E0,3.235846758E-3,-3.299763054E-2,1.020145416E-2
1.350004114E0,2.231594548E-2,3.333486617E-3,5.410194397E-3
1.370003680E0,-8.785769343E-3,6.139244884E-3,1.019763947E-2
1.380003680E0,-1.543104649E-3,-3.421738744E-3,-8.955001831E-3
1.390004180E0,1.301162690E-2,-8.338930085E-3,3.018379211E-3
1.400004180E0,8.283086121E-3,-1.071664318E-2,5.412101746E-3
1.410004180E0,1.531226933E-2,-1.031493023E-2,5.410194397E-3
1.420004180E0,-1.944534481E-3,-1.589320600E-4,-6.567001343E-3
1.430004180E0,-2.378477156E-2,9.808434173E-3,1.737213135E-2
1.450004179E0,-1.885368675E-2,5.444390699E-3,1.258373260E-2
1.460004179E0,1.706524938E-2,-4.053821787E-3,3.006935120E-3
1.470004179E0,2.939373255E-3,-1.835390180E-2,5.401611328E-3
1.480004179E0,2.228287980E-2,-1.369356550E-2,6.151199341E-4
1.490004179E0,2.834729850E-3,-1.370877028E-3,-8.965492249E-3
1.510003712E0,4.863776267E-3,-5.685545504E-3,5.395889282E-3
1.520003712E0,7.216773927E-3,1.822066680E-2,1.018524170E-2
1.530003712E0,2.139848098E-2,2.288265899E-2,-1.615333557E-2
1.540003712E0,5.912939087E-2,5.113684386E-2,5.392074585E-3
1.560003911E0,2.671620846E-1,2.650872171E-1,5.369186401E-3
1.570003911E0,2.504996061E-1,2.708808780E-1,-9.016990662E-3
1.580003911E0,1.693946719E-1,4.654758871E-1,1.012611389E-2
1.590003911E0,2.653220892E-1,7.121927738E-1,2.943992615E-3
1.600003911E0,4.117561281E-1,1.150506973E0,3.646564484E-2
1.620003477E0,2.633563280E-1,7.037735581E-1,2.191320419E0
1.640003010E0,9.256038815E-2,9.153214097E-1,1.626789093E0
1.650003010E0,5.872580409E-1,4.395868778E-1,9.553709030E-1
1.660003010E0,3.085538447E-1,2.306735516E-1,8.453760147E-1
1.670003010E0,-1.666682065E-1,2.320298851E-1,8.471651077E-1
1.680003010E0,-4.269164205E-1,7.107202709E-2,1.149913788E0
1.700002576E0,-3.833598495E-1,-5.516789854E-2,1.500236511E0
1.710002576E0,-1.819540858E-1,-8.589991927E-2,1.150037766E0
1.720002576E0,-2.553472519E-1,-6.530432403E-2,4.865798950E-1
1.730002576E0,-3.466917872E-1,-6.834170222E-2,3.118457794E-1
1.740002576E0,-3.630256057E-1,-1.879951358E-2,-3.004837036E-1
1.750002576E0,-1.502161622E-1,7.020470500E-2,-4.427032471E-1
1.760002576E0,6.195381284E-1,2.436773181E-1,-4.972457886E-3
1.770002576E0,8.964112997E-1,3.453739583E-1,5.197277069E-1
1.780002576E0,1.226837158E0,4.113790691E-1,1.306990623E0
1.790002576E0,1.176055074E0,4.977523685E-1,1.301483154E0
1.800002576E0,6.605341434E-1,2.970407009E-1,1.387948990E0
1.810002576E0,5.062698126E-1,3.563514948E-1,1.097462654E0
1.820002576E0,6.876992583E-1,4.592756033E-1,9.995403290E-1
1.830002576E0,6.074836254E-1,5.020090342E-1,1.237576485E0
1.840002576E0,4.978747964E-1,5.083969235E-1,1.895416260E0
1.850002576E0,6.234843731E-1,3.750125468E-1,1.928868294E0
1.870002142E0,4.939283729E-1,-1.615582705E-1,1.464223862E0
1.880002142E0,3.017376065E-1,-2.749289870E-1,7.765455246E-1
1.890002142E0,2.547200918E-1,-3.073068857E-1,2.540636063E-1
1.900002142E0,1.836571693E-1,-2.577224076E-1,2.170658112E-2
1.910002142E0,8.258298039E-2,-2.638461590E-1,1.275472641E-1
1.920002142E0,5.807131529E-2,-8.058296517E-3,-1.012992859E-1
1.930002142E0,2.519423962E-1,1.963088661E-1,-1.192007065E-1
1.940002142E0,5.939406753E-1,3.502962589E-1,1.022405624E-1
1.950002608E0,7.516918778E-1,3.619377017E-1,3.918828964E-1
1.960002608E0,8.154478669E-1,5.204108357E-1,1.037663460E0
1.970002608E0,9.029416442E-1,7.060142756E-1,1.489159584E0
1.980002608E0,1.033926606E0,9.105407000E-1,1.763417244E0
1.990002608E0,1.016733885E0,9.093858004E-1,1.762590408E0
2.010002541E0,1.091261148E0,4.860888720E-1,1.592067719E0
2.020002541E0,8.643161058E-1,1.440474987E-1,1.235709190E0
2.030002807E0,5.814813972E-1,4.252015054E-2,9.323530197E-1
2.040002807E0,2.711505890E-1,7.412749529E-2,4.927005768E-1
2.060002773E0,3.128429651E-1,-1.107515991E-1,7.075977325E-1
2.070002773E0,3.239013255E-1,-2.328425497E-1,8.494014740E-1
2.080002773E0,1.446448714E-1,-1.339358389E-1,6.080446243E-1
2.090002773E0,5.241289735E-2,-1.069352627E-1,4.002246857E-1
2.100002773E0,3.366908431E-1,-4.191445708E-1,1.899585724E-1
2.110002773E0,4.569568634E-1,-7.629721165E-1,7.783794403E-2
2.120002773E0,2.119601369E-1,-9.315470457E-1,1.380052567E-1
2.130002773E0,2.545043528E-1,-6.602363586E-1,2.744865417E-1
2.140003273E0,5.553290844E-1,-1.935704350E-1,4.130496979E-1
2.150003273E0,8.306027651E-1,-2.779129148E-2,6.805009842E-1
2.160003273E0,8.506923914E-1,-7.489413023E-3,9.933071136E-1
2.170003273E0,5.995030403E-1,6.563067436E-2,9.562559128E-1
2.180003273E0,2.011699975E-1,2.078250945E-1,8.474283218E-1
2.190003273E0,-4.421289265E-2,2.243923545E-1,7.172231674E-1
2.200003739E0,-6.030313671E-2,2.302675247E-1,7.165699005E-1
2.210003739E0,-1.919527650E-1,-1.215469837E-2,3.115873337E-1
2.220003739E0,6.194156408E-2,-6.090067625E-1,1.702518463E-1
2.230003739E0,8.071409166E-2,-7.773077488E-1,1.177654266E-1
2.240003739E0,3.239448369E-2,-6.895859241E-1,4.053936005E-1
2.260003272E0,6.432372928E-1,-1.363598704E-1,4.440479279E-1
2.270003272E0,7.221224308E-1,-3.363019228E-2,4.368324280E-1
2.280003272E0,2.985911965E-1,-1.338650286E-1,4.511251450E-1
2.290003272E0,-7.752192020E-2,-2.080560774E-1,2.116298676E-1
2.300003272E0,-4.044452310E-1,-1.723269820E-1,-4.635057449E-1
2.310003705E0,-4.801425338E-1,-2.537415624E-1,-6.426210403E-1
2.320003705E0,-3.336090744E-1,-4.862012267E-1,-4.983739853E-1
2.340003438E0,6.782764196E-1,-9.222071171E-1,-6.299200058E-1
2.350003438E0,1.032607555E0,-9.121631384E-1,-5.133686066E-1
2.370003004E0,1.560208917E0,-4.453093410E-1,-1.281805038E-1
2.380003004E0,1.283730745E0,-4.427199364E-1,-1.352977753E-1
2.390003004E0,1.279623866E0,-4.241649508E-1,-1.363792419E-1
2.400003004E0,1.650759280E-1,-5.121676326E-1,2.986717224E-2
2.410003004E0,-7.179874182E-2,-4.965245426E-1,-1.200151443E-1
2.420003004E0,-1.217938066E-1,-3.219429553E-1,-1.236352921E-1
2.430003004E0,-2.093133330E-2,-2.135720700E-1,7.456493378E-2
2.450002970E0,1.545283437E0,1.705909967E-1,3.214931488E-1
2.460002970E0,2.225634098E0,8.226597309E-2,2.720499039E-1
2.470003970E0,2.121021986E0,-1.023643613E-1,1.889772415E-1
2.480003970E0,1.280422568E0,-1.686868519E-1,8.398914337E-2
2.490003970E0,6.493099928E-1,-1.092015505E-1,4.792499542E-2
2.510003503E0,-2.561029792E-1,-2.526352704E-1,-3.362226486E-1
2.520003503E0,-6.281009912E-1,-4.974500537E-1,-2.050361633E-1
2.530003503E0,-6.095643044E-1,-5.252240896E-1,-1.393604279E-2
2.540003503E0,-8.723914623E-3,-3.358271718E-1,8.144664764E-2
2.550003503E0,5.714927912E-1,-1.429184377E-1,2.584371567E-1
2.560003936E0,1.585838318E0,3.618857265E-2,5.934505463E-1
2.570003936E0,1.918892145E0,6.605485082E-2,7.105054855E-1
2.580003936E0,1.731124282E0,-1.664528251E-2,9.112863541E-1
2.590003936E0,1.084677339E0,-8.974400163E-2,6.762561798E-1
2.600003936E0,5.821229517E-2,-3.112796545E-1,3.790731430E-1
2.620003502E0,-1.238128543E0,-5.551267862E-1,1.421117783E-1
2.639936834E0,-1.078594089E0,-6.527647972E-1,-7.342014313E-1
2.659870166E0,7.959645987E-1,-1.523406267E0,-9.974966049E-1
2.679803965E0,1.288561106E0,-1.060693860E0,-7.476854324E-1
2.699737297E0,3.374497592E-1,-4.260909557E-1,-5.537662506E-1
2.719670629E0,-6.224402189E-1,-8.561469316E-1,-4.455757141E-2
2.739603961E0,-5.662525296E-1,-1.178705573E0,-6.550607681E-1
2.759536827E0,6.106476784E-1,-1.387270212E0,-9.025774002E-1
2.779469159E0,7.713826299E-1,-9.832627177E-1,-7.569608688E-1
2.799402491E0,1.944892555E-1,-5.099599361E-1,2.114162445E-1
2.819335823E0,-2.800341845E-1,-5.183815360E-1,8.457536697E-1
2.839269155E0,-5.091934800E-1,-3.977335989E-1,8.495922089E-1
2.859202054E0,-5.958137512E-1,-3.297316134E-1,6.182575226E-2
2.879135386E0,1.059212685E-1,-5.859221816E-1,-6.847686768E-1
2.899068718E0,3.006767631E-1,-3.092729449E-1,-3.810710907E-1
2.919002084E0,2.314102948E-1,2.300841510E-1,2.569255829E-1
2.929002084E0,-8.993408084E-2,9.358695149E-2,5.421714783E-1
2.939002084E0,-5.700258017E-1,-2.895610929E-1,8.345499039E-1
2.949002084E0,-9.169113636E-1,-4.249559939E-1,9.089336395E-1
2.959002084E0,-1.496524334E0,-5.138211250E-1,7.225465775E-1
2.979001617E0,-1.120477676E0,-2.888374031E-1,1.097917557E-1
2.989001617E0,-7.827762365E-1,-1.745110899E-1,2.028532028E-1
2.999001617E0,-6.271195412E-2,-2.122109234E-1,-2.545986176E-1
3.009001617E0,3.156242073E-1,-3.349604309E-1,-3.287982941E-1
3.019001617E0,4.157478213E-1,-4.782575965E-1,-5.635004044E-1
3.029001617E0,3.152149618E-1,-4.863895476E-1,-6.860857010E-1
3.039001617E0,-8.116459846E-2,-5.527215004E-1,-6.052360535E-1
3.049001617E0,-5.171630383E-1,-4.858515859E-1,-4.551353455E-1
3.059001617E0,-1.003962278E0,-4.884532988E-1,-5.276260376E-1
3.069001617E0,-1.122463107E0,-5.091803074E-1,-5.400962830E-1
3.079001617E0,-1.165801406E0,-5.800242424E-1,-3.681106567E-1
3.089001617E0,-1.086613655E0,-5.211102962E-1,-4.186544418E-1
3.099001617E0,-9.446951747E-1,-3.778570890E-1,-3.709125519E-1
3.109001617E0,-8.215122223E-1,-1.859567165E-1,-3.781337738E-1
3.119001617E0,-3.888945580E-1,-1.788010448E-1,-1.242656708E-1
3.139001183E0,-1.327518523E-1,-5.702950358E-1,-5.404024124E-1
3.149001183E0,-2.428724468E-1,-5.326498151E-1,-8.464336395E-1
3.159001183E0,-4.639680386E-1,-4.216401577E-1,-9.800987244E-1
3.169001649E0,-6.402723789E-1,-5.046716332E-1,-9.321441650E-1
3.179001649E0,-8.538047075E-1,-7.348492146E-1,-9.082355499E-1
3.189001649E0,-7.782065868E-1,-8.365021944E-1,-1.164535522E0
3.199001649E0,-5.279384851E-1,-7.872168422E-1,-1.229222298E0
3.209002082E0,-4.017545283E-1,-6.249343753E-1,-8.032941818E-1
3.229001615E0,-6.855045557E-1,-2.483166903E-1,-6.645202637E-2
3.239001615E0,-7.193036079E-1,-2.074035108E-1,4.292049408E-1
3.249001615E0,-5.623067021E-1,-1.737939119E-1,5.850973129E-1
3.259001615E0,-9.934660792E-2,8.945707977E-2,4.466514587E-1
3.269001615E0,9.200477600E-2,3.419158459E-1,6.457967758E-1
3.279001615E0,1.902576685E-1,4.374536872E-1,5.455360413E-1
3.289001615E0,2.336052358E-1,5.303946733E-1,5.719413757E-1
3.299001615E0,2.822079659E-1,6.361502409E-1,5.409002304E-1
3.309001615E0,1.323092729E-1,6.354663372E-1,2.556924820E-1
3.319001615E0,5.467715487E-2,5.878268480E-1,4.110527039E-1
3.329001615E0,-3.512109816E-1,3.797381222E-1,4.752464294E-1
3.339001615E0,-7.642305493E-1,2.314751446E-1,6.545305252E-1
3.349001615E0,-8.094525337E-1,4.337139130E-1,5.873765945E-1
3.359001615E0,-4.350688457E-1,1.026092410E0,5.754728317E-1
3.369001615E0,-1.906633079E-1,1.191506863E0,7.338075638E-1
3.379001615E0,6.718990207E-2,1.243607402E0,1.321015358E0
3.389001615E0,6.495314837E-2,1.283807516E0,1.460803032E0
3.399001615E0,1.155507565E-2,1.278516054E0,1.461998940E0
3.409001615E0,-3.079609573E-1,1.339542627E0,1.410743713E0
3.419002081E0,-3.478298783E-1,1.501652002E0,1.453072548E0
3.429002514E0,-3.340208828E-1,1.527730346E0,1.610376358E0
3.439002514E0,-3.920795918E-1,1.486605763E0,1.341613770E0
3.449002514E0,-3.658787012E-1,1.340105414E0,1.223041534E0
3.459002514E0,-5.411690474E-1,8.997553587E-1,1.262320518E0
3.479002047E0,-6.966026425E-1,5.765709877E-1,6.724081039E-1
3.489002047E0,-8.494648337E-1,4.861557484E-1,3.378801346E-1
3.499002047E0,-8.613301516E-1,4.267674983E-1,3.387956619E-1
3.509002047E0,-7.983649373E-1,3.140183091E-1,3.256320953E-1
3.519002047E0,-6.861962676E-1,1.690824330E-1,5.521898270E-1
3.529002047E0,-6.602773070E-1,2.279613614E-1,4.674386978E-1
3.539002047E0,-4.049503803E-1,3.723072410E-1,2.366504669E-1
3.549002047E0,-2.115842402E-1,2.880979180E-1,1.519575119E-1
3.559002047E0,-5.729377270E-2,2.102280855E-1,1.583919525E-1
3.569002613E0,-9.173977375E-2,1.192455888E-1,3.471031189E-1
3.579002613E0,-2.585112751E-1,-2.521693707E-3,2.849149704E-1
3.589002613E0,-5.095909238E-1,-1.530906856E-1,3.499746323E-1
3.599002613E0,-6.518711448E-1,-1.972339749E-1,3.362236023E-1
3.609002613E0,-5.667749643E-1,-1.837992668E-2,1.468658447E-3
3.619002613E0,-2.051085830E-1,8.367347717E-2,-1.399526596E-1
3.629002613E0,2.349364758E-2,3.270870447E-2,4.378128052E-2
3.639002613E0,1.703475118E-1,-7.202443480E-2,6.697368622E-2
3.649002613E0,2.081365585E-1,-2.457010746E-2,1.594696045E-1
3.659002613E0,2.055553794E-1,5.730509758E-3,3.359880447E-1
3.669003079E0,1.443032622E-1,5.518150330E-2,2.089176178E-1
3.679003079E0,1.320904493E-2,1.441914439E-1,-4.489612579E-2
3.689003079E0,-1.557224989E-2,4.793208838E-2,-4.939174652E-2
3.699003079E0,-1.692634821E-2,-2.199304104E-1,1.211862564E-1
3.709003079E0,-2.104542255E-1,-2.589330971E-1,-1.075601578E-1
3.729002612E0,-5.223259926E-1,-5.274742842E-2,-9.890251160E-1
3.739002612E0,-5.176316500E-1,-2.605764866E-1,-1.225287437E0
3.749002612E0,-4.155836105E-1,-7.294671535E-1,-8.179483414E-1
3.759002612E0,-4.262530208E-1,-1.058331490E0,-9.645643234E-1
3.769002612E0,-3.862286806E-1,-8.247247934E-1,-1.387241364E0
3.779002612E0,-3.010954261E-1,-5.561109781E-1,-1.683606148E0
3.789002612E0,-3.192666173E-1,-4.817911088E-1,-1.704573631E0
3.799002612E0,-4.643670619E-1,-5.561649799E-1,-1.287014008E0
3.809002612E0,-6.620841026E-1,-6.439223289E-1,-8.467721939E-1
3.819002612E0,-1.039178610E0,-5.271824598E-1,-6.791992188E-1
3.829002612E0,-1.000048876E0,-2.606084347E-1,-5.788373947E-1
3.839002612E0,-3.980456889E-1,8.502882719E-2,-4.114828110E-1
3.849002612E0,1.547710896E-1,1.212303042E-1,-4.570198059E-1
3.859002612E0,3.640816808E-1,-1.286721230E-1,-4.613571167E-1
3.879002045E0,-6.820267439E-1,-2.321828008E-1,-2.898330688E-1
3.889002045E0,-1.191621065E0,-1.856399775E-1,-1.236915588E-1
3.899002045E0,-1.577831149E0,2.114570141E-1,-1.549911499E-2
3.909002511E0,-1.442883968E0,4.844971895E-1,2.225885391E-1
3.919002977E0,-1.056666374E0,6.372174621E-1,5.416154861E-1
3.929002977E0,-9.578613639E-1,5.190063119E-1,4.642982483E-1
3.939002977E0,-4.098327756E-1,7.746130228E-2,2.908697128E-1
3.949002977E0,-2.322355509E-1,-2.390432358E-1,1.604747772E-1
3.959002977E0,-3.820035458E-1,-4.672719240E-1,-3.594446182E-1
3.979002510E0,-8.212742209E-1,-4.068588018E-1,-9.394369125E-1
3.989002510E0,-1.286774278E0,-4.668278098E-1,-8.029747009E-1
3.999002510E0,-1.482545376E0,-2.796430588E-1,-1.247867584E0
4.009002510E0,-1.178935528E0,-1.542693675E-1,-1.594890594E0
4.019002510E0,-8.994381428E-1,-1.841930747E-1,-1.770235062E0
4.029002510E0,-6.884233952E-1,-2.761826813E-1,-2.020919800E0
4.039002510E0,-7.554524541E-1,-5.830725431E-1,-2.240563393E0
4.049002510E0,-9.473259449E-1,-6.229420900E-1,-2.218141556E0
4.059002510E0,-1.212155223E0,-6.228921413E-1,-2.099875450E0
4.069002510E0,-1.301372766E0,-5.868515968E-1,-1.893523693E0
4.079002510E0,-8.816744089E-1,-4.591066539E-1,-1.975076675E0
4.089002510E0,-2.561237812E-1,-4.100686908E-1,-1.997374058E0
4.099002510E0,7.152336836E-2,-2.627897263E-1,-1.617883682E0
4.109002510E0,1.565901637E-1,-1.510834694E-1,-1.319768906E0
4.119002510E0,8.397829533E-2,2.568620443E-2,-6.905822754E-1
4.129002510E0,-1.241177320E-2,2.293878198E-1,-4.006462097E-1
4.139002510E0,1.177603006E-1,6.031792164E-1,-7.327117920E-1
4.149002510E0,3.149383664E-1,7.286740541E-1,-9.278888702E-1
4.159002510E0,6.989754438E-1,7.311487198E-1,-1.086948395E0
4.169002976E0,6.835805774E-1,6.257278919E-1,-1.137623787E0
4.179002976E0,4.090932310E-1,4.601131082E-1,-1.245575905E0
4.189002976E0,2.184559107E-1,3.639305234E-1,-1.190436363E0
4.199002976E0,-6.642168760E-2,1.361631751E-1,-1.132849693E0
4.219002042E0,-2.135731727E-1,-3.100840449E-1,-1.286334991E0
4.229002042E0,-3.750546277E-1,-5.102560520E-1,-1.272439957E0
4.239002042E0,-7.687470913E-1,-5.682899356E-1,-1.225198746E0
4.249002042E0,-8.846715689E-1,-3.913700879E-1,-1.127725601E0
4.259002042E0,-9.666698575E-1,4.861056805E-2,-1.027798653E0
4.269002042E0,-8.669403791E-1,3.233582973E-1,-9.326868057E-1
4.279002042E0,-6.570148468E-1,4.836319685E-1,-6.029529572E-1
4.289002042E0,-3.457239270E-1,4.936257005E-1,-5.629320145E-1
4.299002042E0,-3.619077802E-2,4.226123691E-1,-5.372657776E-1
4.309002042E0,-2.669000626E-2,3.047253489E-1,-6.024055481E-1
4.319002042E0,-5.007252097E-2,1.102280617E-2,-6.457901001E-1
4.329002042E0,-7.838585973E-2,-1.120078564E-2,-6.839179993E-1
4.339002042E0,1.073993742E-1,2.290806770E-1,-7.914161682E-1
4.359755534E0,2.708675563E-1,2.892168164E-1,-4.876422882E-1
4.369755534E0,1.462538838E-1,3.876250982E-2,-3.663311005E-1
4.379755534E0,-2.305943966E-1,-3.546446860E-1,-2.669448853E-1
4.389755534E0,-4.395495057E-1,-4.349814057E-1,-1.892719269E-1
4.399755534E0,-7.216010094E-1,-3.406847119E-1,1.302242279E-2
4.409755534E0,-9.050933123E-1,-1.158879399E-1,1.724805832E-1
4.419756034E0,-8.912482262E-1,2.668331861E-1,5.379695892E-1
4.429756034E0,-6.208391190E-1,4.274803102E-1,6.809110641E-1
4.439756034E0,-2.766811848E-2,4.946099818E-1,9.819030762E-1
4.449756034E0,2.356767654E-1,4.998775125E-1,9.619588852E-1
4.459756034E0,5.940510631E-1,5.652874708E-1,7.073678970E-1
4.479755567E0,4.490483701E-1,4.721240699E-1,6.441116333E-1
4.489755567E0,3.580522537E-1,2.690352201E-1,7.805223465E-1
4.499755567E0,1.746616364E-1,1.037747860E-1,4.598350525E-1
4.509755567E0,1.301031113E-1,2.126003504E-1,7.694721222E-2
4.519755567E0,3.214453757E-1,1.778141856E-1,-2.078027725E-1
4.529755567E0,3.420607150E-1,-5.256119370E-2,-2.194728851E-1
4.539755567E0,1.741120517E-1,-2.589316368E-1,-1.999635696E-1
4.549755567E0,1.231688261E-2,-2.672127783E-1,-2.570114136E-1
4.559755567E0,-3.431344330E-1,-1.677405238E-1,-2.398366928E-1
4.569755567E0,-5.162796974E-1,-1.617948860E-1,-1.006441116E-1
4.579755567E0,-7.223522663E-1,-1.957309991E-1,-9.813499451E-2
4.589755567E0,-6.187494993E-1,-2.166007608E-1,-1.629610062E-1
4.599755567E0,-3.083832264E-1,-1.029647291E-1,-2.807254791E-1
4.609755567E0,-1.716296077E-1,-1.390534639E-2,-2.740707397E-1
4.619755567E0,-2.572154999E-2,2.593731880E-2,-1.572322845E-1
4.629755567E0,2.777600288E-2,6.306925416E-2,-6.424903870E-2
4.639755567E0,6.700548530E-2,7.723024487E-2,8.382987976E-2
4.649755667E0,1.538852304E-1,1.255972981E-1,1.840486526E-1
4.659755667E0,1.010068953E-1,3.448310792E-1,4.255409241E-1
4.669756133E0,4.989129305E-2,3.883385956E-1,4.875154495E-1
4.679756133E0,-1.668971777E-2,3.380751014E-1,6.189947128E-1
4.689756133E0,-1.061054915E-1,2.695099711E-1,6.907968521E-1
4.699756133E0,-1.824971437E-1,1.671502292E-1,7.196397781E-1
4.709756133E0,-1.670305729E-1,9.945550561E-2,6.265316010E-1
4.729755633E0,6.593734026E-3,9.331697226E-2,1.938171387E-1
4.739755633E0,1.328300238E-1,-7.406274974E-2,4.321765900E-2
4.749755633E0,1.250458062E-1,-2.013844848E-1,-4.462242126E-3
4.759755633E0,-8.081270754E-2,-3.213463128E-1,1.728630066E-2
4.769755633E0,-2.548826337E-1,-3.861577511E-1,-6.865787506E-2
4.779755633E0,-2.887398303E-1,-3.896395266E-1,-6.602764130E-2
4.789755633E0,-1.765921116E-1,-3.248873055E-1,-9.227085114E-2
4.799755633E0,-5.511422455E-2,-1.746082753E-1,-1.065969467E-1
4.809755633E0,-8.283853531E-3,-3.253328800E-2,-5.168342590E-2
4.819755633E0,8.383661509E-2,1.338174045E-1,4.871654510E-2
4.829755633E0,1.107417047E-1,1.172667146E-1,1.060705185E-1
4.839755633E0,3.929182887E-2,1.250830889E-1,3.047618866E-1
4.849755633E0,5.479016900E-2,1.445450783E-1,2.713527679E-1
4.859755633E0,2.411232293E-1,2.434215844E-1,1.302480698E-1
4.869755633E0,2.953919470E-1,2.451488376E-1,4.420757294E-2
4.879755633E0,2.465439141E-1,1.808220744E-1,-3.464698792E-3
4.889755633E0,2.234348059E-1,1.368671954E-1,-4.382133484E-2
4.899755633E0,1.853387356E-1,7.589569688E-2,-8.174896240E-2
4.909755633E0,1.023874879E-1,-8.643269539E-3,-9.090137482E-2
4.919756099E0,-6.167693436E-2,-1.025010943E-1,-1.910476685E-1
4.929756099E0,-1.594913006E-1,-1.896564513E-1,-1.261091232E-1
4.939756099E0,-2.341502905E-1,-3.230187297E-1,-1.474065781E-1
4.949756099E0,-2.479645461E-1,-3.087077737E-1,-1.257009506E-1
4.959756099E0,-1.846685410E-1,-4.372715950E-2,-1.735124588E-1
4.979755632E0,-7.413524389E-2,2.974343002E-1,-3.078241348E-1
4.999688964E0,1.460349262E-1,1.930398643E-1,-1.743249893E-1
5.019622296E0,2.321611941E-1,2.516883612E-2,-1.074409485E-1
5.039556095E0,2.333815992E-1,-1.693345606E-1,-3.062725067E-2
5.059489427E0,-1.095601767E-1,-7.722464204E-2,-1.910219193E-1
5.079422759E0,-2.218778282E-1,2.364178896E-1,-3.301181793E-1
5.099356091E0,9.195020795E-2,5.136336684E-1,-4.214048386E-1
5.119289423E0,1.000952572E-1,3.918543756E-1,-6.725502014E-1
5.139223222E0,2.081359923E-2,-1.718594730E-1,-4.846849442E-1
5.159156554E0,-2.589620650E-2,-3.460553288E-1,-6.580314636E-1
5.179089886E0,2.164366841E-2,-5.233884454E-1,-7.792310715E-1
5.199023218E0,3.034784198E-1,-1.811309159E-1,-8.222980499E-1
5.218956084E0,4.327511787E-1,-5.142620206E-2,-2.826852798E-1
5.238889416E0,3.366154134E-1,-7.201057673E-2,6.055269241E-1
5.258822748E0,2.688537240E-1,5.968689919E-2,9.744148254E-1
5.278756547E0,3.388247490E-1,2.365565896E-1,1.004146576E0
5.288756547E0,3.369448185E-1,1.268652380E-1,1.022905350E0
5.298756547E0,1.981830597E-1,-2.610957623E-2,9.890670776E-1
5.308756547E0,2.351678908E-2,-7.631322742E-2,8.955678940E-1
5.318756547E0,-3.152472377E-1,-6.599393487E-2,6.584577560E-1
5.338756080E0,-4.012517333E-1,-7.955914736E-2,5.652036667E-1
5.348756080E0,-2.604356408E-1,-1.070648432E-1,5.389680862E-1
5.358756080E0,5.105355382E-2,-5.170127749E-2,4.409303665E-1
5.368756080E0,1.958318502E-1,3.331026435E-2,2.974472046E-1
5.378756080E0,3.103464246E-1,5.041208863E-2,1.061067581E-1
5.388756546E0,3.093750179E-1,3.406912088E-2,7.998180389E-2
5.398756546E0,1.744638383E-1,3.612107038E-2,1.280469894E-1
5.408756546E0,1.083934903E-1,2.042475343E-2,1.113843918E-1
5.418756546E0,-1.170491725E-1,-1.183919907E-1,1.736955643E-1
5.428756546E0,-2.209346890E-1,-1.466823369E-1,1.880874634E-1
5.448756079E0,-2.843235731E-1,-1.290361583E-1,2.337703705E-1
5.458756079E0,-2.002985477E-1,-6.945532560E-2,2.028055191E-1
5.468756079E0,-8.637898415E-2,-7.704430819E-2,1.789808273E-1
5.478756079E0,1.748045981E-1,-1.447250098E-1,1.958084106E-1
5.488756079E0,2.867353261E-1,-1.247790903E-1,1.168270111E-1
5.498756079E0,3.269388080E-1,5.952143669E-2,1.388454437E-2
5.508756079E0,2.709182501E-1,1.307785511E-1,-1.480579376E-2
5.518756079E0,2.038471550E-1,1.544911563E-1,-1.105194092E-1
5.528756545E0,1.484457850E-1,1.956509352E-1,-1.295862198E-1
5.538756545E0,-3.855660558E-3,1.408389807E-1,-1.965026855E-1
5.548756545E0,-1.443143338E-1,-1.214775443E-2,-2.417211533E-1
5.558756545E0,-2.806985676E-1,-1.637960374E-1,-2.940587997E-1
5.568756545E0,-2.765960097E-1,-1.470701396E-1,-3.534860611E-1
5.588756078E0,-1.856903136E-1,7.879617810E-2,-4.176158905E-1
5.598756078E0,-1.538129449E-1,5.780759454E-2,-2.619981766E-1
5.608756078E0,-1.542669982E-1,8.116990328E-3,-1.759338379E-1
5.618756078E0,-2.277715355E-1,2.595886588E-2,-4.442596436E-2
5.628756078E0,-1.834385246E-1,4.947611690E-2,-2.779769897E-2
5.638756544E0,-2.330854535E-2,-1.610651612E-2,-2.784347534E-2
5.648756544E0,6.605580449E-2,-1.244157851E-1,-3.875732422E-3
5.658756544E0,7.027843595E-2,-1.690763235E-1,-1.594667435E-1
5.668756544E0,-1.404702663E-3,-1.922969520E-1,-2.073879242E-1
5.678756544E0,-6.856374443E-2,-1.067700982E-1,-2.433605194E-1
5.698756077E0,2.110321522E-1,-3.115028143E-2,-1.097917557E-1
5.708756077E0,3.102782369E-1,-8.375623822E-2,-2.628707886E-2
5.718756077E0,3.596958816E-1,-3.364145756E-2,-1.455211639E-2
5.728756077E0,3.235556483E-1,8.219990134E-2,5.234432220E-2
5.738756077E0,2.808899581E-1,2.255413830E-1,9.059906006E-2
5.748756077E0,2.612531781E-1,2.434265018E-1,1.193361282E-1
5.758756077E0,1.864257157E-1,2.121457458E-2,1.816234589E-1
5.768756077E0,1.206233799E-1,-7.569193840E-2,1.673650742E-1
5.778756543E0,6.195399165E-2,-3.416293859E-2,2.391910553E-2
5.788756543E0,-4.211200774E-2,3.056183457E-2,-1.146268845E-1
5.798756543E0,-1.627323627E-1,1.116803288E-2,-1.717567444E-1
5.808756543E0,-2.016514987E-1,-5.245938897E-2,-1.427402496E-1
5.818756543E0,-1.804063320E-1,-1.560468078E-1,-1.376981735E-1
5.838756076E0,-1.580798477E-1,-9.157472849E-2,-9.671592712E-2
5.848756076E0,-1.088109314E-1,-2.430462837E-2,-9.430027008E-2
5.858756076E0,2.683213353E-2,3.696319461E-2,-4.411697388E-2
5.868756076E0,1.264136732E-1,1.025080681E-2,-2.993679047E-2
5.878756076E0,2.476771176E-1,-4.594826698E-2,-1.355104446E-1
5.888756542E0,3.486330509E-1,-1.159549803E-1,-1.692209244E-1
5.898756542E0,3.939111531E-1,-1.683743745E-1,-3.489036560E-1
5.908756542E0,4.420562088E-1,-1.403721869E-1,-4.998493195E-1
5.918756542E0,3.956183493E-1,-1.369486600E-1,-4.616785049E-1
5.928756542E0,3.749584854E-1,-1.221972853E-1,-5.433387756E-1
5.948756075E0,2.373170853E-1,3.663289547E-2,-1.081743240E-1
5.958756075E0,1.188011169E-1,2.681201994E-1,1.765623093E-1
5.968756075E0,4.752671719E-2,2.826131582E-1,4.280042648E-1
5.978756075E0,-4.982307553E-2,3.404424191E-1,6.652803421E-1
5.988756075E0,-1.856964380E-1,3.577080667E-1,6.752614975E-1
5.998756075E0,-4.383615851E-1,2.544399500E-1,7.069177628E-1
6.008756075E0,-4.941315651E-1,1.558076590E-1,6.452817917E-1
6.018756075E0,-4.782977998E-1,1.322931051E-1,4.112567902E-1
6.028756541E0,-4.250500798E-1,1.764937043E-1,2.035102844E-1
6.038756541E0,-2.650493383E-1,1.932761371E-1,-3.535079956E-2
6.048756541E0,-1.586532295E-1,1.214089692E-1,-1.449422836E-1
6.058756541E0,-1.337192953E-1,1.224544644E-2,-2.617101669E-1
6.068756541E0,-7.535728812E-2,-6.095540524E-2,-3.067817688E-1
6.088756074E0,5.573660135E-3,-1.614538729E-1,-2.129716873E-1
6.098756074E0,-7.270991802E-3,-1.939464211E-1,-7.890415192E-2
6.108756074E0,-1.454263926E-2,-1.449667513E-1,-4.812240601E-3
6.118756074E0,1.232109368E-1,-1.138815880E-1,-9.830474854E-3
6.128756074E0,2.312640250E-1,-8.718758821E-2,-2.688598633E-2
6.138756540E0,3.838118613E-1,-7.258668542E-2,-6.314182281E-2
6.148756540E0,3.924072087E-1,-1.755881310E-2,-6.576251984E-2
6.158756540E0,2.325869203E-1,2.333122492E-2,-5.399322510E-2
6.168756540E0,6.509944797E-2,7.607740164E-2,-1.044464111E-1
6.178756540E0,-1.388925314E-1,1.392770112E-1,-9.265327454E-2
6.198756073E0,-2.864020467E-1,5.604812503E-2,1.200208664E-1
6.208756073E0,-2.966750860E-1,3.630608320E-3,2.228746414E-1
6.218756073E0,-1.954316348E-1,-5.324678123E-2,3.880939484E-1
6.228756073E0,-1.429092139E-1,3.579366207E-2,4.025917053E-1
6.238756073E0,-7.894697785E-2,1.589379907E-1,3.907384872E-1
6.248756073E0,-3.574746847E-2,2.212882042E-1,3.955478668E-1
6.258756073E0,5.112671852E-2,2.400838733E-1,4.672899246E-1
6.268756073E0,6.041008234E-2,2.519376278E-1,4.671115875E-1
6.278756539E0,1.061491668E-1,2.551712394E-1,3.951282501E-1
6.288756539E0,9.966659546E-2,1.492739320E-1,2.562723160E-1
6.298756539E0,1.201597452E-1,-8.591708541E-2,6.001186371E-2
6.308756539E0,1.428941190E-1,-1.278825998E-1,-9.544086456E-2
6.318756539E0,1.142598987E-1,-1.184228063E-1,-2.699317932E-1
6.338756072E0,-1.040894687E-1,-2.198918760E-1,-3.580570221E-1
6.348756072E0,-1.890382916E-1,-2.651651502E-1,-3.652000427E-1
6.358756072E0,-1.576665938E-1,-2.287214696E-1,-3.629179001E-1
6.368756072E0,-2.134543657E-2,-1.573521644E-1,-3.535785675E-1
6.378756072E0,1.059925854E-1,-5.523678660E-2,-1.981964111E-1
6.388756538E0,1.230058670E-1,3.110376000E-2,-8.816146851E-2
6.398756538E0,1.625079215E-1,1.464315057E-1,1.200876236E-1
6.408756538E0,1.235959530E-1,1.937877536E-1,3.092966080E-1
6.418756538E0,3.836265206E-2,1.842614412E-1,4.506521225E-1
6.428756538E0,-3.136542439E-2,1.843697429E-1,4.148073196E-1
6.448756071E0,-1.281596124E-1,1.166430414E-1,3.097200394E-1
6.458756071E0,-6.954747438E-2,1.383209229E-1,2.741241455E-2
6.468756537E0,-1.226585507E-1,1.437150538E-1,-1.306819916E-2
6.478756537E0,-2.570965886E-1,1.274539828E-1,-9.905624390E-2
6.488756537E0,-2.579473257E-1,2.419903874E-2,-1.395950317E-1
6.498756537E0,-1.658036858E-1,-1.117965430E-1,-1.682586670E-1
6.508756537E0,-1.494385451E-1,-1.388089061E-1,-2.017736435E-1
6.518756537E0,-7.176145911E-2,-1.432233602E-1,-2.640104294E-1
6.528756603E0,-6.748357415E-2,-1.472900361E-1,-2.640275955E-1
6.538756603E0,5.359166861E-2,-6.388524175E-2,-1.395664215E-1
6.548756603E0,9.766894579E-2,-1.932200789E-2,-2.712631226E-2
6.558756603E0,1.745189130E-1,3.367170691E-2,3.741359711E-2
6.568756603E0,2.662335336E-1,3.311160207E-2,7.563304901E-2
6.588756136E0,2.322950363E-1,-4.662618041E-2,-1.135520935E-1
6.598756136E0,1.038255990E-1,-4.774177074E-2,-5.359554291E-2
6.608756136E0,2.894094586E-2,-1.123642921E-2,-9.172439575E-2
6.618756136E0,-6.386110187E-2,6.929486990E-3,-6.040096283E-2
6.628756136E0,-1.195241213E-1,-7.245421410E-3,-2.915573120E-2
6.638756602E0,-1.465437412E-1,3.960609436E-2,7.148838043E-2
6.648756602E0,-1.076027155E-1,6.394949555E-2,1.002073288E-1
6.658756602E0,5.237957835E-2,3.977867961E-2,6.185817719E-2
6.668756602E0,1.124218702E-1,4.254886508E-2,1.001462936E-1
6.678756602E0,1.225562394E-1,9.395733476E-2,-3.630733490E-2
6.698756135E0,4.784080386E-2,-6.680971384E-2,-5.013465881E-3
6.708756135E0,-5.130502582E-2,-1.663585007E-1,-1.690864563E-2
6.718756135E0,-2.725070715E-2,-1.828539819E-1,-1.103096008E-1
6.728756135E0,6.698065996E-2,-1.453093290E-1,-1.152734756E-1
6.738756135E0,2.303637266E-1,-4.081913829E-2,-5.317115784E-2
6.748756135E0,3.120080233E-1,6.618377566E-2,-7.466030121E-2
6.758756135E0,2.717327476E-1,1.812534332E-1,-7.195758820E-2
6.768756135E0,1.917203665E-1,1.738090813E-1,-1.391315460E-2
6.778756635E0,2.254697680E-2,1.756585836E-1,1.553821564E-2
6.788756635E0,-7.149630785E-2,1.146753430E-1,-2.447128296E-2
6.798756635E0,-1.204866767E-1,-2.188652754E-2,-7.659435272E-2
6.808756635E0,-1.073211730E-1,-1.477006525E-1,-1.288890839E-1
6.818756635E0,-1.886802018E-1,-1.948750317E-1,-2.269144058E-1
6.828757068E0,-2.600336969E-1,-1.334123164E-1,-2.100648880E-1
6.838757068E0,-2.915891409E-1,-3.412103653E-2,-1.171283722E-1
6.848757068E0,-2.293868512E-1,6.637111306E-2,-2.683353424E-2
6.858757068E0,-8.062186837E-2,9.558799863E-2,1.357030869E-1
6.868757068E0,3.431373835E-2,5.945613980E-2,2.335586548E-1
6.878757068E0,1.083812714E-1,2.928501368E-2,2.428808212E-1
6.888757534E0,1.276763678E-1,3.491291404E-2,1.829156876E-1
6.898757534E0,4.629516602E-2,6.531929970E-2,1.852560043E-1
6.908757534E0,4.645749927E-2,9.218832850E-2,1.804437637E-1
6.918757534E0,1.592645049E-2,8.125299215E-2,2.498178482E-1
6.928757534E0,-7.954686880E-3,8.220788836E-2,2.545003891E-1
6.948757067E0,-1.352766156E-2,1.121849716E-1,1.921014786E-1
6.958757067E0,2.628335357E-2,7.857227325E-2,6.285476685E-2
6.968757067E0,-2.955806255E-2,8.289587498E-2,-2.561283112E-2
6.978757067E0,6.121024489E-2,3.285545111E-2,-7.813739777E-2
6.988757067E0,3.524094820E-2,-1.984280348E-2,-8.997440338E-2
6.998757067E0,2.224734426E-2,3.829467297E-2,-1.904678345E-1
7.008757067E0,-9.434342384E-3,5.495238304E-2,-2.000494003E-1
7.018757067E0,7.264214754E-2,-5.256515741E-2,-2.550773621E-1
7.028757567E0,8.295449615E-2,-1.019993424E-1,-2.741069794E-1
7.038757567E0,3.219059110E-2,-6.268182397E-2,-2.643537521E-1
7.048757567E0,3.004848957E-3,-4.365476966E-2,-3.095989227E-1
7.058757567E0,1.328900456E-2,-1.138553917E-1,-2.759408951E-1
7.078756600E0,-1.389783621E-2,-6.994648278E-2,-1.993894577E-1
7.088756600E0,-5.102437735E-2,-1.724949479E-2,-1.228246689E-1
7.098756600E0,-1.994588971E-2,7.789459825E-2,-1.133289337E-1
7.108756600E0,-1.042830944E-2,1.309680343E-1,8.626937866E-3
7.118756600E0,1.026797295E-2,1.174718440E-1,1.233139038E-1
7.138756566E0,1.960585117E-1,5.445915461E-2,4.610633850E-2
7.148756566E0,2.395625412E-1,-2.042326331E-2,-4.263877869E-2
7.158756566E0,2.281304598E-1,-5.868768692E-2,-2.103471756E-1
7.168756566E0,1.988152564E-1,-5.557760596E-2,-3.540058136E-1
7.178756566E0,1.382575333E-1,-9.448562562E-2,-4.450120926E-1
7.198756099E0,9.134384990E-2,-1.226451993E-1,-1.867427826E-1
7.208756099E0,1.203734875E-1,-8.892580867E-2,-1.078538895E-1
7.218756099E0,1.034492552E-1,-3.779436648E-2,-2.645301819E-2
7.228756099E0,7.838639617E-2,-1.132106781E-2,1.921558380E-2
7.238756099E0,-1.915815473E-2,-1.939518750E-2,-6.872177124E-3
7.248756099E0,-5.524337292E-2,5.373597145E-3,-6.669998169E-3
7.258756099E0,-7.217556238E-2,1.281023026E-1,5.807399750E-2
7.268756099E0,-9.664011002E-2,1.501460969E-1,1.466712952E-1
7.278756565E0,-1.051062346E-2,1.165930480E-1,2.592039108E-1
7.288756565E0,-6.929704547E-2,1.075982153E-1,2.831392288E-1
7.298756565E0,-1.692654788E-1,8.817620575E-2,3.693704605E-1
7.308756565E0,-1.007051468E-1,1.049354523E-1,3.886852264E-1
7.318756565E0,-1.091897190E-1,1.210532337E-1,3.242406845E-1
7.338756065E0,-2.076027095E-1,1.327826381E-1,4.251804352E-1
7.348756065E0,-2.173961997E-1,4.214450717E-2,4.636135101E-1
7.358756065E0,-2.248759568E-1,-9.294505417E-2,3.870363235E-1
7.368756065E0,-2.342412770E-1,-1.567411721E-1,3.439025879E-1
7.378756065E0,-1.753298342E-1,-1.857737005E-1,2.529125214E-1
7.388756531E0,-4.741472006E-2,-1.426990479E-1,1.547040939E-1
7.398756531E0,-1.647934318E-2,-7.977114618E-2,7.558441162E-2
7.408756531E0,1.510718465E-2,-6.479515135E-2,4.420185089E-2
7.418756531E0,6.821852922E-2,-7.435992360E-2,7.023906708E-2
7.428756531E0,7.248687744E-2,-7.834795117E-2,6.750774384E-2
7.448756064E0,1.671284437E-3,-4.197750986E-2,-1.291494370E-1
7.458756064E0,-6.889456511E-2,-5.317488313E-2,-1.625032425E-1
7.468756064E0,-1.189454496E-1,-1.203513145E-2,-2.363901138E-1
7.478756064E0,-2.089769244E-1,2.872943878E-2,-2.001152039E-1
7.488756064E0,-2.150752544E-1,-3.241363168E-2,-6.326866150E-2
7.498756064E0,-2.296223938E-1,-2.789855003E-2,7.594299316E-2
7.508756064E0,-1.752550006E-1,2.824905515E-2,6.180286407E-2
7.518756064E0,-8.143487573E-2,1.101900339E-1,1.362171173E-1
7.528756530E0,-9.506151080E-2,1.136938632E-1,1.363925934E-1
7.538756530E0,-1.408792138E-1,1.322144270E-1,-1.668453217E-2
7.548756530E0,-1.959476769E-1,9.602671862E-2,-6.694698334E-2
7.558756530E0,-2.253064513E-1,-3.542518616E-2,-4.541397095E-2
7.568756530E0,-2.411733866E-1,-7.612171769E-2,-5.746459961E-2
7.588756063E0,-1.084703505E-1,-1.031423062E-1,-1.224899292E-1
7.598756063E0,-1.344593167E-1,-5.332317948E-2,-1.538152695E-1
7.608756063E0,-1.185646355E-1,3.584992886E-2,-1.827135086E-1
7.618756063E0,-3.908520937E-2,8.555671573E-2,-1.565294266E-1
7.628756063E0,1.110378504E-1,4.344418645E-2,-8.005619049E-2
7.638756529E0,2.772418559E-1,-7.753817737E-2,-1.073646545E-2
7.648756529E0,3.351263404E-1,-8.682215214E-2,-3.952884674E-2
7.658756529E0,3.832127452E-1,-1.036047935E-1,-4.914569855E-2
7.668756529E0,3.222587109E-1,-8.040104806E-2,-5.628395081E-2
7.678756529E0,2.584055960E-1,6.033718586E-3,-1.520204544E-1
7.698756062E0,-3.551831841E-2,-4.099994898E-3,-1.422328949E-1
7.708756062E0,-6.306135654E-2,-8.718027174E-2,-1.277275085E-1
7.718756062E0,-1.391487122E-1,-2.063792646E-1,-1.562805176E-1
7.728756062E0,-1.662032604E-1,-2.369824648E-1,-1.226329803E-1
7.738756062E0,-1.105223894E-1,-1.567374319E-1,-7.949256897E-2
7.748756062E0,-2.788427472E-2,-4.394385219E-2,-1.735210419E-2
7.758756062E0,4.548346996E-2,1.592240930E-1,1.359367371E-2
7.768756062E0,1.988786459E-2,2.272918820E-1,1.282663345E-1
7.778756528E0,7.229214907E-2,3.197422028E-1,2.812948227E-1
7.788756528E0,6.935334206E-2,3.094041049E-1,3.028411865E-1
7.798756528E0,6.890904903E-2,2.355046868E-1,2.430925369E-1
7.808756528E0,7.039844990E-3,2.127381265E-1,1.786289215E-1
7.818756528E0,-1.021004319E-1,1.989326775E-1,7.830715179E-2
7.838756061E0,-3.490988016E-1,1.357486248E-1,-9.617519379E-2
7.848756061E0,-3.775675297E-1,8.806097507E-2,-9.863853455E-2
7.858756061E0,-2.455636114E-1,3.286147118E-2,-8.923721313E-2
7.868756061E0,-5.373910069E-2,2.280819416E-2,-1.302614212E-1
7.878756061E0,1.895107329E-1,1.151317358E-2,-1.545286179E-1
7.888756527E0,2.744175792E-1,-4.854947329E-3,-1.332988739E-1
7.898756527E0,4.313479960E-1,1.438405216E-1,-1.719036102E-1
7.908756527E0,4.760670960E-1,2.898590565E-1,-1.649703979E-1
7.918756527E0,3.780107498E-1,3.629111946E-1,-9.096050262E-2
7.928756527E0,2.887231708E-1,3.686814010E-1,-4.541110992E-2
7.948756060E0,-2.790659666E-3,3.022923470E-1,-7.325077057E-2
7.958756060E0,-1.252132356E-1,2.026130557E-1,-7.967472076E-2
7.968756526E0,-2.127337456E-1,3.503870964E-2,-1.578302383E-1
7.978756526E0,-3.772646487E-1,-2.021761984E-1,-1.905565262E-1
7.988756526E0,-5.219748020E-1,-2.449180335E-1,-2.832889557E-1
7.998756526E0,-7.103005648E-1,-2.308878601E-1,-3.762817383E-1
8.008756526E0,-6.218410730E-1,-1.642051339E-1,-3.931369781E-1
8.018756526E0,-6.226810217E-1,-1.266632527E-1,-3.119812012E-1
8.028756992E0,-4.670034647E-1,-7.892835140E-2,-1.283397675E-1
8.038756992E0,-2.213170826E-1,-1.321399212E-2,1.510868073E-1
8.048756992E0,-8.820381761E-2,8.230865002E-3,2.414455414E-1
8.058756992E0,1.760429442E-1,9.661206603E-2,3.629713058E-1
8.068756992E0,2.905071378E-1,1.727843583E-1,4.965467453E-1
8.088756525E0,5.093839169E-1,2.686246037E-1,6.347141266E-1
8.098756525E0,4.544193745E-1,1.446800232E-1,5.579233170E-1
8.108756525E0,4.162996113E-1,6.495067477E-2,4.477262497E-1
8.118756525E0,3.402255476E-1,-7.692892849E-2,1.916093826E-1
8.128756525E0,2.049009204E-1,-1.376151145E-1,-1.887989044E-2
8.138756991E0,-2.626147866E-2,-1.843763441E-1,-2.125854492E-1
8.148756991E0,-1.528620720E-1,-1.968032122E-1,-2.171077728E-1
8.158756991E0,-2.689994574E-1,-1.326187998E-1,-6.840801239E-2
8.168756991E0,-2.754242718E-1,-5.574801564E-2,4.434299469E-2
8.178756991E0,-1.944901943E-1,1.131231785E-1,1.929636002E-1
8.198756524E0,-1.946276426E-2,1.917479038E-1,3.012561798E-1
8.208756524E0,2.265602350E-3,1.368535757E-1,2.824354172E-1
8.218756524E0,-8.594989777E-4,5.001461506E-2,9.840011597E-2
8.228756524E0,6.052076817E-2,-4.023790359E-3,-3.072834015E-2
8.238756524E0,1.116877794E-2,-7.057356834E-2,-2.796239853E-1
8.248756524E0,-8.256104589E-2,-1.495605707E-1,-2.677602768E-1
8.258756524E0,-4.742988944E-2,-1.842718720E-1,-2.989978790E-1
8.278756523E0,3.008469939E-1,-8.021306992E-2,-3.567476273E-1
8.288756523E0,3.724743426E-1,-5.394268036E-2,-3.805904388E-1
8.298756523E0,4.777638018E-1,-1.245826483E-2,-3.923921585E-1
8.308756523E0,5.056972504E-1,-6.321975589E-2,-3.467378616E-1
8.318756523E0,3.446398973E-1,-1.778317839E-1,-2.268972397E-1
8.338756056E0,4.361611605E-2,-1.552586257E-1,-4.255809784E-1
8.348756056E0,1.416021585E-2,-8.531701565E-2,-4.591960907E-1
8.358756056E0,-3.863036633E-3,4.037874937E-2,-4.233779907E-1
8.368756056E0,5.458852649E-2,1.219615340E-1,-3.563680649E-1
8.378756056E0,1.482793689E-1,1.774618924E-1,-3.276443481E-1
8.388756122E0,1.741594374E-1,1.291998923E-1,-3.371639252E-1
8.398756122E0,-3.498241305E-2,8.550763130E-3,-3.203067780E-1
8.408756122E0,-2.476363778E-1,-5.898922682E-2,-3.561105728E-1
8.418756122E0,-4.154113531E-1,-5.518889427E-2,-3.153638840E-1
8.428756122E0,-4.492102265E-1,-3.802874684E-2,-2.699861526E-1
8.448755655E0,-1.887499392E-1,-6.918159127E-2,9.251594543E-3
8.458755655E0,8.156102896E-2,-3.445467353E-2,6.379890442E-2
8.468755655E0,1.438162625E-1,-3.759324551E-3,1.063451767E-1
8.478755655E0,1.759775877E-1,-3.721904755E-2,2.518978119E-1
8.488755655E0,2.051369548E-1,-4.080268741E-2,3.544540405E-1
8.498755655E0,2.773160636E-1,-2.469590306E-2,3.803882599E-1
8.508755655E0,3.149043918E-1,2.108672261E-2,4.231061935E-1
8.518755655E0,3.039933443E-1,1.555428505E-1,4.467048645E-1
8.528756121E0,2.045215070E-1,2.006758749E-1,4.656457901E-1
8.538756121E0,1.465440392E-1,1.507788599E-1,5.397777557E-1
8.548756121E0,1.330124736E-1,1.197841167E-1,5.661497116E-1
8.558756121E0,1.794815063E-3,3.682932258E-2,4.202623367E-1
8.568756121E0,-9.495678544E-2,-1.452153921E-2,2.912139893E-1
8.588755654E0,-2.755132020E-1,-4.847986996E-2,8.587646484E-2
8.598755654E0,-2.904011607E-1,-1.308449805E-1,-9.737014771E-3
8.608755654E0,-2.701324821E-1,-2.227340937E-1,-1.461124420E-2
8.618755654E0,-2.226569802E-1,-2.322950363E-1,-5.306434631E-2
8.628756154E0,-2.083226144E-1,-1.997229904E-1,-1.036176682E-1
8.638756620E0,-1.492658556E-1,-9.372782707E-2,-8.132934570E-3
8.648756620E0,-1.169104576E-1,1.710522175E-2,1.233320236E-1
8.658756620E0,-2.666854858E-2,1.361790001E-1,3.266782761E-1
8.668756620E0,1.017598510E-1,1.774038970E-1,4.416112900E-1
8.678756620E0,2.679909170E-1,2.407394350E-1,3.387489319E-1
8.698756553E0,2.105896771E-1,2.384828031E-1,1.500759125E-1
8.708756553E0,4.962557554E-2,2.009851038E-1,-2.774238586E-3
8.718756553E0,-1.708765030E-1,6.006181240E-2,-2.753601074E-1
8.728756553E0,-2.606675625E-1,-5.290374160E-2,-3.421659470E-1
8.738756553E0,-2.828361690E-1,-2.275567651E-1,-5.047712326E-1
8.748756553E0,-2.345947176E-1,-2.896479070E-1,-6.052331924E-1
8.758756553E0,-2.075076103E-1,-2.954855263E-1,-5.549020767E-1
8.768756553E0,-1.520637572E-1,-2.164752334E-1,-5.214138031E-1
8.778757019E0,-8.727371693E-3,-9.407383204E-2,-3.539113998E-1
8.788757019E0,3.540098667E-3,-2.314740419E-2,-2.009916306E-1
8.798757019E0,1.076646745E-1,8.282828331E-2,3.327274323E-2
8.808757019E0,1.724223197E-1,1.186742485E-1,1.310691833E-1
8.818757019E0,1.982441247E-1,1.418120265E-1,2.840051651E-1
8.838756552E0,1.861624122E-1,1.423010528E-1,3.076496124E-1
8.848756552E0,9.213635325E-2,1.934626102E-1,1.639270782E-1
8.858756552E0,2.802088857E-2,2.564828694E-1,5.374717712E-2
8.868756552E0,-2.697014809E-2,1.883675158E-1,2.504253387E-2
8.878756552E0,-9.163528681E-2,5.734103918E-2,-3.955364227E-2
8.888757018E0,-1.120553017E-1,-2.051287889E-2,-1.328735352E-1
8.898757018E0,-1.319839358E-1,-8.476157486E-2,-2.046442032E-1
8.908757018E0,-1.662345678E-1,-4.414926469E-2,-2.404842377E-1
8.918757018E0,-1.206925511E-1,1.248690486E-2,-2.093658447E-1
8.938756051E0,1.045000851E-1,-3.659898043E-2,-1.114406586E-1
8.948756051E0,1.549948454E-1,-6.516879797E-2,-1.068363190E-1
8.958756051E0,1.660697758E-1,-1.967924833E-2,-1.045732498E-1
8.968756051E0,1.229412258E-1,5.927366018E-2,-9.745883942E-2
8.978756051E0,5.629047751E-2,3.424525261E-2,2.941322327E-2
8.988756051E0,8.447164297E-2,3.921863437E-2,1.035490036E-1
8.998756051E0,6.486740708E-2,8.575624228E-2,2.901935577E-1
9.008756051E0,3.779032826E-2,1.162530780E-1,4.242658615E-1
9.018756051E0,2.623200417E-3,1.652899235E-1,3.764400482E-1
9.028756517E0,-5.313053727E-2,1.504377723E-1,3.262882233E-1
9.038756517E0,-1.610351503E-1,1.492094249E-1,1.971855164E-1
9.048756517E0,-2.150816321E-1,1.621203125E-1,8.485794067E-2
9.058756517E0,-3.462430835E-1,9.484826028E-2,5.148696899E-2
9.068756517E0,-3.896491826E-1,5.366161466E-2,6.833362579E-2
9.088756050E0,-4.217927754E-1,-8.115053177E-3,-1.093864441E-3
9.098756050E0,-2.161198407E-1,-7.374809682E-2,-5.627346039E-2
9.108756050E0,-6.931594014E-2,-6.152342260E-2,-2.783012390E-2
9.118756050E0,8.223894238E-2,2.314028144E-2,-2.333641052E-2
9.128756050E0,1.678943932E-1,6.885492802E-2,-9.254455566E-3
9.138756516E0,1.691131294E-1,9.598290920E-2,-8.614063263E-2
9.148756516E0,1.680054665E-1,4.002049565E-2,-1.318225861E-1
9.158756516E0,1.393476427E-1,-3.744260967E-2,-7.450008392E-2
9.168756516E0,1.272625327E-1,-2.862432599E-2,-1.707649231E-2
9.178756516E0,1.369833946E-3,9.300976992E-3,-2.665042877E-2
9.198756049E0,-2.728870511E-2,9.207481146E-2,1.877593994E-2
9.208756049E0,3.474697471E-2,1.340568364E-1,4.263401031E-2
9.218756049E0,3.561148047E-2,1.370930970E-1,4.252338409E-2
9.228756049E0,2.849221230E-2,1.502695084E-1,8.788490295E-2
9.238756049E0,-3.151372075E-2,1.891359985E-1,1.452426910E-1
9.248756049E0,-5.432224274E-2,9.936308861E-2,9.040069580E-2
9.258756049E0,-1.049366593E-1,-5.673743784E-2,3.790855408E-2
9.268756049E0,-1.736346930E-1,-1.305820644E-1,1.163291931E-2
9.278756515E0,-1.412275285E-1,-1.668567210E-1,1.635360718E-2
9.288756515E0,-1.091542244E-1,-2.419087440E-1,1.814842224E-3
9.298756515E0,-7.464501262E-2,-1.969421208E-1,7.572460175E-2
9.308756515E0,6.893873215E-3,-6.925833225E-2,9.929656982E-2
9.318756515E0,5.844223499E-2,1.097827703E-1,1.276893616E-1
9.338756048E0,9.989628196E-2,2.776190639E-1,2.112026215E-1
9.348756048E0,2.683767676E-2,2.826938629E-1,2.065095901E-1
9.358756048E0,7.446527481E-3,1.771259606E-1,7.022094727E-2
9.368756048E0,6.101393700E-2,7.932750881E-2,5.527496338E-3
9.378756048E0,1.163503528E-1,-5.754674971E-2,-1.549139023E-1
9.388756514E0,1.530864239E-1,-1.613322347E-1,-2.602548599E-1
9.398756514E0,2.029009759E-1,-2.495805919E-1,-3.942823410E-1
9.408756514E0,2.680972815E-1,-2.631850839E-1,-4.612588882E-1
9.418756514E0,2.101655304E-1,-2.063288093E-1,-5.306558609E-1
9.428756514E0,2.287725508E-1,-1.828882843E-1,-5.378522873E-1
9.448756047E0,1.357177198E-1,-1.282703280E-1,-4.543037415E-1
9.458756047E0,8.035919070E-2,-4.907739162E-2,-4.353675842E-1
9.468756047E0,7.735466957E-2,5.325675011E-2,-3.853464127E-1
9.478756047E0,2.672564983E-2,9.559902549E-2,-3.305358887E-1
9.488756047E0,-2.861773968E-2,5.948004127E-2,-3.715620041E-1
9.498756047E0,-1.050169766E-2,-1.213437021E-1,-2.330131531E-1
9.508756047E0,3.099113703E-3,-1.906486303E-1,-2.763690948E-1
9.518756047E0,-1.277922094E-2,-1.720041037E-1,-4.490127563E-1
9.528756513E0,-4.409557581E-2,-1.329267025E-1,-4.421300888E-1
9.538756513E0,-9.641443938E-2,-8.454376459E-2,-3.443546295E-1
9.548756513E0,-8.374118060E-2,-7.506734133E-2,-3.449020386E-1
9.558756513E0,-1.945057511E-1,7.339119911E-4,-2.809190750E-1
9.568756513E0,-1.794443130E-1,2.970264852E-1,2.212009430E-1
9.588756046E0,1.960220039E-1,4.124594927E-1,6.630697250E-1
9.598756046E0,3.958835602E-1,3.778380156E-1,7.178335190E-1
9.608756512E0,3.485921025E-1,3.122364283E-1,6.363191605E-1
9.618756512E0,1.179899722E-1,1.769586653E-1,3.848552704E-1
9.628756512E0,-7.318294793E-2,1.048343331E-1,2.674942017E-1
9.638756978E0,-2.613628209E-1,-2.692902088E-2,1.764545441E-1
9.648756978E0,-3.201454282E-1,-9.429319203E-2,1.691684723E-1
9.658756978E0,-3.210108280E-1,-1.460510790E-1,2.552661896E-1
9.668756978E0,-3.406107426E-1,-1.298054457E-1,3.006744385E-1
9.678756978E0,-3.476635218E-1,-6.924448907E-2,3.891878128E-1
9.698756511E0,-3.313987851E-1,7.869572937E-2,5.254364014E-1
9.708756511E0,-2.228869945E-1,1.348893195E-1,5.994939804E-1
9.718756511E0,-1.055792421E-1,1.844346374E-1,5.729675293E-1
9.728756511E0,2.803993225E-2,1.903402805E-1,6.063213348E-1
9.738756511E0,2.502920628E-1,2.326686978E-1,5.511217117E-1
9.748756511E0,3.573405147E-1,2.713503838E-1,4.217958450E-1
9.758756511E0,4.067922831E-1,9.501038492E-2,3.308095932E-1
9.768756511E0,3.372868299E-1,-2.868358791E-2,1.920413971E-1
9.778756977E0,1.999349594E-1,-1.476920694E-1,-6.877803802E-2
9.788756977E0,1.282793880E-1,-1.460525393E-1,-1.954603195E-1
9.798756977E0,-6.601665914E-2,-1.492137313E-1,-2.670106888E-1
9.808756977E0,-4.859855771E-2,-1.028186455E-1,-2.858819962E-1
9.818756977E0,4.154063761E-2,-5.397306383E-2,-3.119897842E-1
9.838756510E0,5.187264085E-2,-1.787936687E-1,-3.236360550E-1
9.848756510E0,4.398624599E-2,-1.843817830E-1,-3.091897964E-1
9.858756510E0,7.611840963E-3,-1.781185120E-1,-2.684068680E-1
9.868756510E0,-1.385916770E-2,-1.719698012E-1,-1.988992691E-1
9.878756510E0,3.407290578E-2,-1.224639639E-1,-1.126365662E-1
9.888756976E0,9.621366858E-2,-1.243086830E-1,-1.030158997E-1
9.898756976E0,3.072327375E-1,-1.207265332E-1,-9.102344513E-2
9.918756509E0,3.827405870E-1,-3.963103890E-2,-1.412191391E-1
9.928756509E0,3.666060269E-1,-3.421381116E-2,-1.602973938E-1
9.948756042E0,1.473040134E-1,-2.338368893E-1,-1.788616180E-1
9.958756042E0,9.597516060E-2,-2.535698116E-1,-2.408485413E-1
9.968756042E0,1.387143135E-2,-1.492652446E-1,-2.262916565E-1
9.978756042E0,-4.174444079E-2,-1.124590635E-2,-1.591043472E-1
9.988756042E0,-6.908996403E-2,-6.602168083E-3,-1.254777908E-1
9.998756042E0,-4.094037414E-2,-4.888263345E-2,3.740024567E-2
1.000875604E1,-2.026721835E-2,-5.111142248E-2,6.855106354E-2
1.001875604E1,-4.734286666E-2,1.379448175E-2,5.896568298E-2
1.002875651E1,-6.075662374E-2,8.486914635E-2,3.022289276E-2
1.003875651E1,-1.738071293E-1,1.431225985E-1,3.890991211E-3
1.004875651E1,-2.141464353E-1,1.510204077E-1,4.213523865E-2
1.005875651E1,-2.842430770E-1,-3.736913204E-4,6.830883026E-2
1.006875651E1,-2.970159352E-1,-8.154501766E-2,2.011108398E-2
1.008875604E1,-7.722380757E-2,-6.780916452E-2,2.640151978E-2
1.009875604E1,9.712243080E-2,-1.603384316E-2,1.217632294E-1
1.010875604E1,1.439037323E-1,-4.064467549E-2,7.605171204E-2
1.011875604E1,1.678344458E-1,-1.175216734E-1,3.986358643E-3
1.012875604E1,1.971799284E-1,-1.907771677E-1,6.125450134E-3
1.013875651E1,2.158432156E-1,-6.479673833E-2,-2.522563934E-2
1.014875651E1,2.441623956E-1,3.279693425E-2,2.254390717E-2
1.015875651E1,2.881677151E-1,1.647734642E-1,1.853065491E-1
1.016875651E1,3.782380819E-1,1.921017915E-1,2.858629227E-1
1.017875651E1,4.780677855E-1,1.773880571E-1,3.720970154E-1
1.019875604E1,1.117234081E-1,-2.458696067E-2,2.670364380E-1
1.020875604E1,-1.207683086E-1,-7.766421884E-2,9.964656830E-2
1.021875604E1,-3.420869410E-1,-1.008642763E-1,-1.467704773E-1
1.022875604E1,-3.893384337E-1,-1.354104877E-1,-2.232999802E-1
1.023875604E1,-3.613905311E-1,-1.710145175E-1,-2.878980637E-1
1.024875604E1,-3.406090438E-1,-1.582186073E-1,-2.688264847E-1
1.025875604E1,-2.766452134E-1,-5.040875077E-2,-2.282276154E-1
1.026875604E1,-1.986692250E-1,4.469609261E-2,-1.541461945E-1
1.027875651E1,-1.219496429E-1,1.585701853E-1,-9.680557251E-2
1.028875651E1,-6.673307717E-2,2.262341976E-1,1.320362091E-2
1.029875651E1,1.955926418E-2,3.232693672E-1,1.232261658E-1
1.030875651E1,2.956116199E-2,3.262149394E-1,1.638288498E-1
1.031875651E1,2.876774967E-2,2.095343918E-1,2.882299423E-1
1.033875604E1,-7.419396937E-2,2.911086679E-1,1.636791229E-1
1.034875604E1,-6.106801331E-2,2.271217406E-1,1.996202469E-1
1.035875604E1,-2.721968293E-2,1.620340496E-1,1.326332092E-1
1.036875604E1,-1.920038462E-2,1.174433157E-1,7.283306122E-2
1.037875604E1,-2.017381787E-2,1.126126274E-1,7.288169861E-2
1.038875614E1,-4.384106398E-2,9.883233905E-2,-1.568784714E-1
1.039875614E1,-1.514113843E-1,1.046831831E-1,-1.806659698E-1
1.040875614E1,-2.067179233E-1,1.268616170E-1,-1.158628464E-1
1.041875614E1,-4.813873768E-2,1.131915823E-1,-8.144378662E-4
1.042875614E1,4.733681679E-3,9.589909017E-2,1.641273499E-3
1.044875567E1,-4.289166629E-2,9.047143906E-2,-2.163286209E-1
1.045875567E1,-8.874329925E-2,8.908583969E-2,-2.618837357E-1
1.046875567E1,-8.039470017E-2,6.409443915E-2,-3.673315048E-1
1.047875567E1,3.135822713E-2,-3.165237606E-2,-3.554744720E-1
1.049868947E1,8.283366263E-2,2.759821713E-3,-2.384195328E-1
1.051862280E1,-7.825672626E-2,2.059834599E-1,1.294612885E-2
1.053855614E1,-2.681826055E-2,1.739625335E-1,3.362998962E-1
1.055848947E1,9.826479852E-2,1.961258948E-1,3.244476318E-1
1.057842233E1,2.591614425E-2,1.048194394E-1,1.951541901E-1
1.059835567E1,-3.589138389E-2,6.399741769E-2,8.724975586E-2
1.061828926E1,-1.333789527E-2,9.616605192E-2,-9.491729736E-2
1.063822260E1,-2.555263042E-2,9.528531879E-2,-1.284790039E-1
1.065815593E1,-5.888368189E-2,-2.151085436E-2,-4.689502716E-2
1.067808926E1,-1.314001977E-1,3.477336466E-2,-6.833839417E-2
1.069802249E1,-1.216911972E-1,9.858547896E-2,-8.556365967E-3
1.071795582E1,1.493746042E-2,2.050620317E-2,9.183883667E-2
1.073788916E1,-4.085287452E-3,1.790961623E-2,-3.762912750E-2
1.075782296E1,-2.223569453E-1,-1.004664898E-1,-8.563899994E-2
1.077775629E1,-8.527995646E-2,-3.500366956E-2,1.176614761E-1
1.078775629E1,-1.183576882E-1,2.194324881E-2,1.199798584E-1
1.080775582E1,5.602553487E-2,1.856110841E-1,1.560802460E-1
1.081775582E1,1.058968902E-1,1.877092272E-1,8.191776276E-2
1.082775582E1,2.226497084E-1,2.294956148E-1,2.495346069E-1
1.083775582E1,3.737361431E-1,3.929436207E-1,1.489915848E-1
1.084775582E1,5.039319992E-1,3.905801177E-1,2.692985535E-2
1.085775609E1,6.826037169E-1,2.949364185E-1,1.660118103E-1
1.086775609E1,7.187578082E-1,2.876283526E-1,-7.276821136E-2
1.087775609E1,5.880331993E-1,3.575796485E-1,-3.472480774E-1
1.088775609E1,4.697546959E-1,3.610848188E-1,-6.479339600E-1
1.089775609E1,5.760284662E-1,-5.387349427E-2,-9.821853638E-1
1.091775582E1,-3.711800277E-1,2.205869257E-1,-1.067906380E0
1.092775582E1,-2.936743498E-1,1.038879007E-1,-1.211762428E0
1.093775582E1,-4.376519024E-1,-4.100347161E-1,-9.272203445E-1
1.094775582E1,-6.078890562E-1,-5.877939463E-1,-7.238788605E-1
1.095775582E1,-5.033287406E-1,-5.917744637E-1,-6.132135391E-1
1.096775582E1,-4.102927446E-1,-4.469314516E-1,-4.318342209E-1
1.097775582E1,-1.420459151E-2,-2.001401484E-1,1.461620331E-1
1.098775582E1,4.052159190E-1,4.373371601E-2,3.928117752E-1
1.099775629E1,7.964082956E-1,2.823153734E-1,7.865085602E-1
1.100775629E1,8.656465411E-1,4.087451100E-1,8.477582932E-1
1.101775628E1,1.372238874E0,7.843806744E-1,7.968988419E-1
1.102775628E1,5.958958864E-1,6.797379851E-1,9.680233002E-1
1.103775628E1,-2.040834725E-1,1.756511629E-1,1.047473907E0
1.105775582E1,-4.684559703E-1,1.080455184E-1,9.065494537E-1
1.106775582E1,-5.497161746E-1,5.501210690E-2,8.928880692E-1
1.107775582E1,-3.991612494E-1,3.179842234E-2,6.195716858E-1
1.108775582E1,-3.386608958E-1,-5.382865667E-2,4.859914780E-1
1.109775582E1,-1.585934162E-1,-1.854544878E-2,6.377887726E-2
1.110775608E1,-1.061998010E-1,-1.131789088E-1,-2.357435226E-1
1.111775608E1,-2.622936964E-1,-1.631279290E-1,-4.925537109E-1
1.112775608E1,-2.767170072E-1,-1.407164037E-1,-6.047668457E-1
1.113775608E1,-2.225678563E-1,-4.956969619E-2,-5.638256073E-1
1.114775608E1,-1.403181553E-1,7.784456015E-3,-5.637216568E-1
1.116775582E1,-3.523075581E-2,1.729833335E-1,-3.917951584E-1
1.117775582E1,8.788448572E-2,1.819769442E-1,-4.949283600E-2
1.118775582E1,1.391130686E-1,1.892924309E-1,6.158351898E-2
1.119775582E1,3.247722983E-1,1.790989935E-1,1.639566422E-1
1.120775582E1,4.657438397E-1,1.975561380E-1,2.022857666E-1
1.121775582E1,5.144075751E-1,1.831641495E-1,1.284637451E-1
1.122775582E1,4.447732568E-1,1.187480390E-1,1.291599274E-1
1.123775582E1,2.760626674E-1,7.185111940E-2,5.414009094E-3
1.124775628E1,2.247697115E-1,1.641841233E-2,-1.782989502E-2
1.125775628E1,4.236239195E-2,-4.231661558E-2,-1.799488068E-1
1.126775628E1,-6.350755692E-3,-6.133018434E-2,-3.138246536E-1
1.127775628E1,7.875800133E-3,-9.456391633E-2,-3.834314346E-1
1.128775628E1,-5.496007204E-2,-1.599095315E-1,-3.790903091E-1
1.130775582E1,-4.149764776E-2,-1.511165351E-1,-2.421970367E-1
1.131775582E1,4.910689592E-2,-1.214460880E-1,-7.577800751E-2
1.132775582E1,4.056537151E-2,-1.133785695E-1,-2.374649048E-4
1.133775582E1,7.689452171E-2,-2.929662913E-2,9.452342987E-2
1.134775582E1,1.191083789E-1,-1.114964485E-3,9.106445312E-2
1.135775608E1,2.343891859E-1,6.274774671E-2,1.523628235E-1
1.136775608E1,2.736331224E-1,1.235675961E-1,2.644109726E-1
1.137775608E1,3.038605452E-1,2.200403959E-1,2.784366608E-1
1.138775608E1,1.900818944E-1,2.442186475E-1,2.446184158E-1
1.139775608E1,-9.539628029E-2,1.242383048E-1,2.011985779E-1
1.141775582E1,-1.134775281E-1,-1.757916063E-2,9.103775024E-3
1.142775582E1,-1.288715005E-1,-3.597033024E-2,-1.034612656E-1
1.143775582E1,-7.876729965E-2,-3.332950920E-2,-2.206678391E-1
1.144775582E1,-3.624683619E-2,-1.285258681E-2,-2.300691605E-1
1.145775582E1,4.277843237E-2,5.291141570E-3,-2.993469238E-1
1.146775582E1,3.259819746E-2,3.106461465E-2,-3.136987686E-1
1.147775582E1,1.744061708E-2,5.851808190E-2,-2.657909393E-1
1.148775582E1,4.632371664E-2,6.393718719E-2,-2.393817902E-1
1.149775628E1,5.402702093E-2,7.037706673E-2,-1.483621597E-1
1.150775628E1,7.579404116E-2,3.646482527E-2,-1.341266632E-1
1.151775628E1,1.032370329E-1,-3.764980286E-2,-5.052089691E-2
1.152775628E1,1.146093011E-1,-6.098146737E-2,1.133537292E-2
1.153775628E1,1.241562963E-1,-2.266478539E-2,8.514118195E-2
1.155775581E1,9.393370152E-2,1.680713892E-2,1.369581223E-1
1.156775581E1,2.719032764E-2,1.874563098E-2,1.269693375E-1
1.157775581E1,-1.495062113E-1,4.521478713E-2,1.169681549E-1
1.158775581E1,-2.066986561E-1,1.558715105E-2,9.020328522E-2
1.159775581E1,-2.901335955E-1,-1.673723757E-2,9.213924408E-2
1.160775608E1,-4.233762920E-1,1.192133129E-2,1.468105316E-1
1.161775608E1,-2.970222235E-1,1.205683649E-1,2.709875107E-1
1.162775608E1,-2.111957967E-1,1.794231236E-1,3.379611969E-1
1.163775608E1,-1.407454312E-1,2.732449174E-1,3.930387497E-1
1.164775608E1,-5.667346716E-2,3.305437267E-1,3.620357513E-1
1.166775581E1,-1.861941814E-2,2.757518589E-1,1.467266083E-1
1.167775581E1,-2.705794573E-2,1.724928319E-1,5.273818970E-3
1.168775581E1,-7.718062401E-2,8.477649093E-2,-1.185703278E-2
1.169775581E1,-6.847494841E-2,-3.533855081E-3,-1.607151031E-1
1.170775581E1,-6.743833423E-2,-7.015287876E-2,-2.450056076E-1
1.171775581E1,-7.952424884E-2,-1.284883618E-1,-3.054103851E-1
1.172775581E1,-4.024451971E-2,-1.041570231E-1,-2.579278946E-1
1.173775581E1,4.499524832E-3,-5.904631317E-2,-2.223501205E-1
1.174775628E1,1.946958899E-2,-1.055945456E-2,-1.865978241E-1
1.175775628E1,9.699231386E-2,9.994924068E-2,-1.172676086E-1
1.176775628E1,1.412431896E-1,1.919744760E-1,-2.866554260E-2
1.177775628E1,2.220544815E-1,1.305770278E-1,1.557598114E-1
1.178775628E1,1.877883673E-1,8.701920509E-2,1.366758347E-1
1.180775581E1,-4.228863120E-2,1.517100185E-1,3.591661453E-1
1.181775581E1,-6.193313003E-2,2.314022779E-1,2.609682083E-1
1.182775581E1,-2.871727943E-2,2.282459140E-1,1.697597504E-1
1.183775581E1,-9.119281173E-2,9.670507163E-2,1.263370514E-1
1.184775581E1,-1.063641012E-1,4.477303475E-2,9.472942352E-2
1.185775608E1,-6.550869346E-2,-1.318189502E-2,-1.428108215E-1
1.186775608E1,-4.258492589E-2,-5.831804127E-2,-2.176847458E-1
1.187775608E1,4.131963849E-2,-1.675871015E-1,-2.614727020E-1
1.188775608E1,9.368613362E-2,-2.223458737E-1,-1.975269318E-1
1.189775608E1,8.102229238E-2,-2.570858896E-1,-1.478357315E-1
1.191775581E1,1.840898693E-1,-3.222776949E-2,-1.239776611E-4
1.192775581E1,2.633361220E-1,1.082517356E-1,5.244541168E-2
1.193775581E1,3.372389972E-1,2.652352154E-1,8.590412140E-2
1.194775581E1,2.943431139E-1,3.057942688E-1,2.103471756E-1
1.195775581E1,1.745217144E-1,2.047763467E-1,2.917261124E-1
1.196775581E1,4.747006297E-2,1.190192848E-1,2.006406784E-1
1.197775581E1,-1.266663074E-1,-3.866271302E-2,5.446147919E-2
1.198775581E1,-1.217884421E-1,-7.530842721E-2,-6.534099579E-2
1.199775628E1,-1.507664919E-1,6.854590029E-3,-2.569503784E-1
1.200775628E1,-1.291852295E-1,3.733250126E-2,-2.976331711E-1
1.201775628E1,-6.543973088E-2,1.113657653E-2,-2.472057343E-1
1.202775628E1,-6.310874224E-2,-3.879636526E-3,-1.895465851E-1
1.203775628E1,-9.511485696E-2,6.577047706E-2,8.122730255E-2
1.205775581E1,-8.605223894E-2,2.156990916E-1,1.800022125E-1
1.206775581E1,-3.727555275E-2,1.461107582E-1,2.472047806E-1
1.207775581E1,1.367351413E-2,7.062936574E-2,2.592515945E-1
1.208775581E1,3.520658612E-2,7.101640850E-2,2.280282974E-1
1.209775581E1,1.588483751E-1,1.682416797E-1,2.674865723E-2
1.210775608E1,1.857419610E-1,1.896213442E-1,-7.086753845E-3
1.211775608E1,1.884591281E-1,1.105165035E-1,2.134895325E-2
1.212775608E1,1.299433708E-1,5.118383840E-2,-2.676677704E-2
1.213775608E1,1.594482660E-1,8.632697165E-3,-9.879207611E-2
1.214775608E1,4.062564373E-1,-9.825681150E-2,-1.539297104E-1
1.216775581E1,2.199168801E-1,-1.890343428E-1,-2.735967636E-1
1.217775581E1,2.381715178E-1,-7.964548469E-2,-2.040214539E-1
1.218775584E1,2.098526061E-1,9.008750319E-3,-4.193401337E-1
1.219775584E1,1.172687709E-1,4.278719425E-2,-4.984340668E-1
1.220775584E1,9.938627481E-3,2.300072089E-2,-3.646507263E-1
1.221775584E1,-3.018360436E-1,-1.532915533E-1,-2.334156036E-1
1.222775584E1,-2.977024913E-1,-1.900871098E-1,-2.436761856E-1
1.223775584E1,-3.171150684E-1,-2.440512180E-1,-3.089952469E-1
1.224775631E1,-4.211993217E-1,-2.638437748E-1,-2.689437866E-1
1.225775631E1,-4.903249741E-1,-3.758043349E-1,-1.113471985E-1
1.226775631E1,-5.258968472E-1,-3.382550478E-1,-3.713321686E-2
1.227775631E1,-4.631656408E-1,-1.862024963E-1,1.738510132E-1
1.228775631E1,-3.672790527E-1,8.624196053E-4,3.851156235E-1
1.230775584E1,1.486199498E-1,7.362141609E-1,7.916135788E-1
1.231775584E1,8.999629617E-1,9.872543812E-1,8.883934021E-1
1.232775584E1,1.329686403E0,8.998277187E-1,8.602781296E-1
1.233775584E1,1.234124422E0,5.275257230E-1,5.853033066E-1
1.234775584E1,7.199519277E-1,2.830539942E-1,3.955507278E-1
1.235775611E1,-3.168213367E-2,1.173000932E-1,3.061666489E-1
1.236775611E1,-2.584286928E-1,3.895491362E-3,1.494970322E-1
1.237775611E1,-5.194495320E-1,-2.006469071E-1,-1.244831085E-1
1.238775611E1,-6.114885807E-1,-3.195485175E-1,-4.463310242E-1
1.239775611E1,-6.996269226E-1,-4.462712705E-1,-6.003866196E-1
1.241775584E1,-3.278678358E-1,-2.494665831E-1,-4.933433533E-1
1.242775584E1,-2.189385444E-1,-5.969110131E-2,-4.621572495E-1
1.243775584E1,3.803434968E-2,2.399345040E-1,-5.724525452E-2
1.244775584E1,1.414170563E-1,3.497872949E-1,1.802845001E-1
1.245775584E1,3.371308148E-1,3.922415972E-1,4.322633743E-1
1.246775584E1,4.086982310E-1,3.373717666E-1,5.284490585E-1
1.247775584E1,3.746697009E-1,1.946890950E-1,6.101856232E-1
1.249775627E1,-2.624928951E-3,6.518626213E-2,2.435855865E-1
1.250775627E1,-7.167176902E-2,2.864886820E-2,1.353139877E-1
1.251775627E1,-1.558105648E-2,1.107987016E-1,-3.284645081E-2
1.252775627E1,9.619632363E-2,1.173478812E-1,-2.177343369E-1
1.253775627E1,1.260154545E-1,5.526620150E-2,-3.498907089E-1
1.255775581E1,4.168459773E-2,-1.069198400E-1,-4.366016388E-1
1.256775581E1,1.100131273E-1,-8.289678395E-2,-5.491914749E-1
1.257775580E1,1.700329781E-1,-1.009931788E-1,-5.180330276E-1
1.258775580E1,1.682632267E-1,-7.910754532E-2,-4.795875549E-1
1.259775580E1,1.141134799E-1,3.871788830E-2,-4.794349670E-1
1.260775630E1,6.300696731E-2,9.040188044E-2,-4.147005081E-1
1.261775630E1,-1.821056008E-2,1.566715688E-1,-1.752061844E-1
1.262775630E1,-8.126886189E-2,1.890248656E-1,-5.784320831E-2
1.263775630E1,-1.813548505E-1,2.378512472E-1,1.218185425E-1
1.264775631E1,-2.042391449E-1,2.551468611E-1,2.560529709E-1
1.266775604E1,-3.566506505E-2,2.503760457E-1,3.451709747E-1
1.267775604E1,1.302657723E-1,3.059979975E-1,1.250753403E-1
1.268775604E1,8.312007785E-2,2.567790449E-1,5.092716217E-2
1.269775604E1,-1.705390215E-2,2.305349857E-1,-2.196207047E-1
1.270775604E1,-8.527173102E-2,2.454871833E-1,-4.376516342E-1
1.271775604E1,-2.136942446E-1,1.956435740E-1,-6.940088272E-1
1.272775604E1,-2.593768835E-1,6.945223361E-2,-7.828407288E-1
1.273775604E1,-2.202083468E-1,-9.369262308E-2,-9.195528030E-1
1.274775650E1,-1.514082700E-1,-1.132431179E-1,-9.748744965E-1
1.275775650E1,-4.128509760E-2,-2.891681343E-2,-1.015779495E0
1.276775650E1,8.133235574E-2,9.230940044E-2,-1.047066689E0
1.277775650E1,2.589203715E-1,3.867318332E-1,-1.047183037E0
1.278775650E1,3.066204190E-1,4.590098858E-1,-8.508520126E-1
1.280775604E1,3.044275343E-1,6.716794372E-1,-7.019987106E-1
1.281775604E1,2.586847544E-1,7.408080697E-1,-6.777095795E-1
1.282775604E1,3.176842332E-1,7.087085247E-1,-7.657070160E-1
1.283775604E1,1.715316474E-1,3.950492442E-1,-7.769603729E-1
1.284775604E1,-2.861595154E-2,1.754624248E-1,-9.339246750E-1
1.285775630E1,-3.772600293E-1,2.526105940E-2,-1.275048256E0
1.286775630E1,-4.144251049E-1,-5.450332165E-2,-1.345222473E0
1.287775630E1,-3.855768442E-1,-7.068631053E-2,-1.556221008E0
1.288775630E1,-3.750644624E-1,-4.855948687E-2,-1.642296791E0
1.289775630E1,-4.318957031E-1,2.399919033E-1,-1.720754623E0
1.291775580E1,-4.208005667E-1,7.037758827E-1,-1.993942261E0
1.293768914E1,-2.002123296E-1,6.909226775E-1,-1.097599030E0
1.295762247E1,-1.369583607E-2,-4.515528679E-2,-6.868610382E-1
1.297755627E1,9.477138519E-5,-4.345193803E-1,-1.825529099E0
1.299748960E1,-1.509740949E-1,-8.792961240E-1,-1.961211681E0
1.301742293E1,3.150520921E-1,-7.638996840E-1,-2.483057022E0
1.303735626E1,3.356186748E-1,-5.038688779E-1,-1.828251362E0
1.305728913E1,5.593258142E-1,-2.345213294E-1,-7.199640274E-1
1.307722246E1,7.447432876E-1,-2.883588672E-1,-5.111579895E-1
1.309715579E1,7.382059097E-1,1.031497717E-1,-2.953500748E-1
1.311708959E1,5.748516321E-1,3.717041016E-1,1.215686798E-1
1.313702292E1,3.922940493E-1,2.623664141E-1,2.296161652E-1
1.315695599E1,2.913504839E-2,1.698065400E-1,1.230840683E-1
1.317688932E1,-3.490551114E-1,-1.291585565E-1,2.127437592E-1
1.319682265E1,-4.847886562E-1,-1.410138607E-1,-1.889886856E-1
1.321675645E1,-1.390849352E-1,1.619241536E-1,-3.576793671E-1
1.322675645E1,-3.450226784E-2,2.499610186E-1,-3.821048737E-1
1.323675645E1,1.827210188E-1,2.761079371E-1,-2.653713226E-1
1.324675645E1,2.574846745E-1,3.158245385E-1,-2.853574753E-1
1.325675645E1,1.761575937E-1,3.173413277E-1,-3.720951080E-2
1.327675599E1,-1.906012893E-1,1.639194191E-1,6.345605850E-1
1.328675599E1,-2.929674685E-1,2.482428849E-1,5.358858109E-1
1.329675598E1,-2.454246581E-1,3.897164762E-1,5.688571930E-1
1.330675598E1,-9.608152509E-2,5.236714482E-1,4.944877625E-1
1.331675598E1,1.259596944E-1,7.771112323E-1,4.109973907E-1
1.332675598E1,7.476514578E-2,5.665539503E-1,3.997707367E-1
1.333675599E1,-4.748570919E-1,-3.117487431E-1,-8.176727295E-1
1.334675599E1,-9.863880277E-1,-8.539859056E-1,-6.098566055E-1
1.335675645E1,-1.676293373E0,-9.726041555E-1,-6.981277466E-2
1.336675645E1,-1.537111640E0,-8.431118727E-1,-3.939056396E-1
1.337675645E1,-1.525045156E0,-5.373363495E-1,-9.983186722E-1
1.338675645E1,-1.471954346E0,-4.847133160E-1,-8.545932770E-1
1.339675645E1,-8.368250132E-1,-4.855382442E-1,-3.039150238E-1
1.341675598E1,1.475686431E-1,8.119982481E-2,4.924964905E-2
1.342675598E1,2.792906165E-1,2.063352019E-1,4.028615952E-1
1.343675598E1,3.513891399E-1,1.633860171E-1,9.417505264E-1
1.344675598E1,3.838178515E-1,-2.572368085E-2,1.290098190E0
1.345675598E1,5.717336535E-1,-5.810534954E-2,1.359447479E0
1.346675645E1,6.397964358E-1,6.064847112E-2,9.149799347E-1
1.347675645E1,5.040814281E-1,3.796515763E-1,-2.724838257E-2
1.348675645E1,4.054430425E-1,4.905611575E-1,-3.720312119E-1
1.349675645E1,4.526690245E-1,5.587829351E-1,-5.326261520E-1
1.350675645E1,4.258957207E-1,5.184385777E-1,-4.388055801E-1
1.352675598E1,4.519566894E-1,2.064545155E-1,9.575939178E-2
1.353675598E1,2.996585369E-1,-1.871654391E-2,4.169692993E-1
1.354675598E1,2.740103602E-1,-1.056012511E-1,6.064319611E-1
1.355675598E1,-1.803582907E-2,-3.325970769E-1,5.544891357E-1
1.356675598E1,-2.472589314E-1,-3.415907621E-1,2.564382553E-1
1.357675598E1,-4.227069616E-1,-4.226805866E-1,1.144933701E-1
1.358675598E1,-3.851907849E-1,-3.710995018E-1,2.090930939E-2
1.359675598E1,-5.277641118E-2,4.345893860E-3,-2.662277222E-1
1.360675645E1,1.181201041E-1,2.025452554E-1,-2.828311920E-1
1.361675645E1,1.764045209E-1,3.991463780E-1,-1.343679428E-1
1.362675692E1,1.473090351E-1,4.497623146E-1,2.552986145E-2
1.363675692E1,1.102898419E-1,3.673845828E-1,4.008007050E-1
1.364675692E1,-6.853172183E-2,3.020820618E-1,4.501514435E-1
1.366675645E1,-4.278518260E-1,3.527462482E-2,5.177402496E-1
1.367675645E1,-5.534989834E-1,-7.877051830E-2,3.783807755E-1
1.368675645E1,-5.381087065E-1,-7.064601779E-2,1.076211929E-1
1.369675645E1,-3.316397071E-1,-1.700362563E-2,-2.754774094E-1
1.370675645E1,-9.848330915E-2,-3.088882565E-2,-3.616113663E-1
1.371675691E1,1.236948296E-1,-7.827129960E-2,-6.274480820E-1
1.372675691E1,2.346917689E-1,-1.632688046E-1,-6.039152145E-1
1.373675691E1,2.576167285E-1,-2.928589582E-1,-5.133419037E-1
1.374675691E1,1.874266267E-1,-3.862567544E-1,-5.091037750E-1
1.375675691E1,1.244799718E-1,-3.121700287E-1,-3.994264603E-1
1.377675645E1,-1.113022864E-2,-1.699887812E-1,-1.348171234E-1
1.378675645E1,9.367820621E-2,-9.303966165E-2,2.014064789E-2
1.379675645E1,1.448007077E-1,-5.035106838E-2,3.858690262E-1
1.380675645E1,1.531294733E-1,-3.637951612E-2,5.649051666E-1
1.381675645E1,2.253243625E-1,4.110604525E-3,6.123933792E-1
1.382675645E1,3.244204521E-1,5.497290194E-2,5.213022232E-1
1.383675645E1,3.771280050E-1,8.393651992E-2,4.781665802E-1
1.384675645E1,3.904903531E-1,1.488469988E-1,2.531900406E-1
1.385675691E1,3.964297175E-1,1.917005926E-1,2.126731873E-1
1.386675691E1,2.920707166E-1,1.199749634E-1,2.776813507E-1
1.387675691E1,9.382349253E-2,1.083511114E-1,4.830265045E-2
1.388675691E1,-6.264039874E-2,-2.716807649E-2,-1.552772522E-2
1.389675691E1,-1.559369266E-1,-1.368302405E-1,1.413822174E-2
1.391675645E1,-2.878502905E-1,2.019589022E-2,-8.701705933E-2
1.393675598E1,-2.323573232E-1,1.202723235E-1,5.084896088E-2
1.394675598E1,-2.780323625E-1,8.853267878E-3,3.193368912E-1
1.395675598E1,-4.887906313E-1,-1.368696839E-1,4.008588791E-1
1.396675648E1,-5.581130981E-1,-1.849440932E-1,3.363275528E-1
1.397675648E1,-5.104619861E-1,-1.991191953E-1,4.393720627E-1
1.398675648E1,-4.513084292E-1,-9.696035832E-2,3.242759705E-1
1.399675648E1,-9.276157618E-2,2.888621092E-1,4.398536682E-2
1.400675648E1,-7.570859790E-2,4.133645296E-1,2.722454071E-2
1.402675601E1,2.040673792E-1,3.713856936E-1,3.172378540E-1
1.403675601E1,1.128039956E-1,1.306065768E-1,5.329332352E-1
1.404675601E1,7.177248597E-2,-2.914720401E-2,4.494609833E-1
1.405675601E1,1.107785106E-2,-1.427125037E-1,2.608690262E-1
1.406675601E1,6.225615740E-3,-2.101527750E-1,-9.498691559E-2
1.407675601E1,-7.975846529E-2,-2.602341175E-1,-3.548393250E-1
1.408675601E1,-1.406640410E-1,-3.186950684E-1,-2.770595551E-1
1.409675601E1,-6.747031212E-2,-3.151221573E-1,-3.812770844E-1
1.410675651E1,1.676797867E-2,-2.799574733E-1,-5.360174179E-1
1.411675651E1,1.450169981E-1,-2.103430182E-1,-6.620531082E-1
1.412675651E1,1.550624669E-1,-2.013655603E-1,-4.915866852E-1
1.413675651E1,1.202925444E-1,-1.535540521E-1,-3.526983261E-1
1.414675651E1,6.909435987E-2,-6.516776979E-2,-4.008970261E-1
1.416675605E1,4.478156567E-3,3.412105143E-2,-1.698713303E-1
1.417675605E1,2.439892292E-2,-2.963247597E-1,2.987852097E-1
1.418675605E1,-6.713801622E-2,-3.554491997E-1,2.672224045E-1
1.419675604E1,-6.221294403E-3,-2.873705924E-1,3.505325317E-2
1.420675604E1,1.366728544E-2,-2.802196145E-1,-2.690124512E-2
1.421675651E1,5.023577809E-2,-3.104534149E-1,-1.606578827E-1
1.422675651E1,9.833836555E-2,-2.385044694E-1,-3.135747910E-1
1.423675651E1,9.297734499E-2,-5.091349781E-2,-2.773981094E-1
1.424675651E1,4.259228706E-3,-8.165836334E-4,-4.524707794E-2
1.425675651E1,-1.229324937E-1,-1.140337512E-1,1.029319763E-1
1.427675601E1,-2.171242833E-1,-1.740100682E-1,5.667018890E-2
1.428675601E1,-9.989768267E-2,-6.102903932E-2,3.494071960E-2
1.429675601E1,-1.336557865E-1,-9.837374091E-3,-2.267837524E-2
1.430675601E1,-5.231970549E-2,7.074713707E-2,-8.265399933E-2
1.431675601E1,-4.867732525E-2,1.905921847E-1,-1.713933945E-1
1.432675601E1,-6.101202965E-2,1.644633710E-1,-2.266969681E-1
1.433675601E1,2.169013023E-3,1.943022013E-1,-1.360187531E-1
1.434675601E1,1.019656658E-1,3.087860942E-1,-5.050945282E-2
1.435675648E1,9.932586551E-2,2.726008892E-1,5.687284470E-1
1.436675648E1,1.408463717E-2,2.000440806E-1,7.063322067E-1
1.437675648E1,7.177975774E-2,3.594491482E-1,2.862701416E-1
1.438675648E1,2.830836773E-1,4.677025974E-1,2.379035950E-1
1.439675648E1,3.029942811E-1,3.194598556E-1,4.649791718E-1
1.441675598E1,2.370449901E-2,6.756396592E-2,3.836765289E-1
1.443668974E1,-2.098041773E-1,-1.290418655E-1,2.162837982E-2
1.445662308E1,-2.219414711E-1,-7.118546963E-2,-2.601203918E-1
1.447655641E1,-1.000801325E-1,-1.807545722E-1,-6.535625458E-1
1.449648974E1,-2.851787210E-2,-3.670283556E-1,-5.899000168E-1
1.451642260E1,-6.906610727E-1,-9.668070078E-1,5.860137939E-2
1.453635594E1,-4.811958075E-1,-6.171990633E-1,-4.466390610E-1
1.455628927E1,-2.954283357E-1,-1.762548387E-1,2.391052246E-2
1.457622307E1,1.017850041E-1,-1.128030121E-1,2.847347260E-1
1.459615640E1,3.704242408E-1,-6.254065037E-2,3.775653839E-1
1.461608973E1,2.259805799E-1,-1.047090888E-1,7.630996704E-1
1.463602306E1,-2.465444803E-2,-1.206778586E-1,3.166828156E-1
1.465595593E1,-3.180142641E-1,-1.209055185E-1,5.589647293E-1
1.467588926E1,-3.766155243E-1,6.258827448E-2,6.429662704E-1
1.469582303E1,2.865141034E-1,6.609731913E-2,6.998577118E-1
1.471575636E1,4.732254744E-1,7.731497288E-2,6.081838608E-1
1.472575636E1,4.915132523E-1,3.719347715E-2,4.464855194E-1
1.474575593E1,2.854290307E-1,1.745134592E-2,1.904335022E-1
1.475575593E1,2.153973877E-1,1.120538712E-1,2.660169601E-1
1.476575593E1,1.986146569E-1,1.036665440E-1,2.192983627E-1
1.477575593E1,1.228027344E-1,2.786296606E-2,1.941194534E-1
1.478575593E1,1.808515787E-1,1.172345877E-2,3.169660568E-1
1.479575593E1,1.758049726E-1,-7.785031199E-2,6.834096909E-1
1.480575593E1,1.512955427E-1,-7.237809896E-2,7.284517288E-1
1.481575593E1,1.581004262E-1,6.396293640E-3,7.830438614E-1
1.482575639E1,7.226288319E-3,8.237046003E-2,6.773567200E-1
1.483575639E1,-1.947540641E-1,2.445625663E-1,3.230609894E-1
1.484575639E1,-1.893036962E-1,2.637078166E-1,2.803859711E-1
1.485575639E1,-3.378546238E-2,3.636722565E-1,3.167057037E-1
1.486575639E1,3.290045261E-2,3.390484452E-1,2.859840393E-1
1.488575593E1,1.225456595E-1,3.146414161E-1,3.156366348E-1
1.489575593E1,1.280688643E-1,2.564141750E-1,3.089790344E-1
1.490575593E1,3.153944016E-2,1.223091483E-1,2.785654068E-1
1.491575593E1,-2.226384878E-1,-2.980864048E-2,2.339124680E-1
1.492575592E1,-3.619499803E-1,-3.614681959E-2,1.894731522E-1
1.493575636E1,-5.203415751E-1,5.411458015E-2,1.116628647E-1
1.494575636E1,-5.808290839E-1,1.821602583E-1,1.919288635E-1
1.495575636E1,-6.412088275E-1,3.791807890E-1,1.739168167E-1
1.496575636E1,-6.389052272E-1,3.763319850E-1,2.059526443E-1
1.497575636E1,-3.893471956E-1,1.410450935E-1,4.375076294E-2
1.499575592E1,2.974277735E-2,-4.961490631E-4,-7.086181641E-2
1.500575592E1,1.628363132E-2,1.645809412E-2,-1.238517761E-1
1.501575592E1,-3.927528858E-3,1.157082915E-1,-2.871522903E-1
1.502575592E1,-3.376191854E-2,1.433945894E-1,-3.767518997E-1
1.503575592E1,-1.909503937E-1,1.180620193E-1,-2.296514511E-1
1.504575592E1,-2.080763578E-1,2.164191604E-1,-1.427526474E-1
1.505575592E1,-1.668377519E-1,2.065148950E-1,3.987159729E-1
1.506575592E1,-1.213021874E-1,1.625999212E-1,4.995670319E-1
1.507575639E1,8.361080289E-2,2.196298242E-1,4.813041687E-1
1.508575639E1,3.454601169E-1,3.946701288E-1,4.755744934E-1
1.509575639E1,5.328675508E-1,4.907832146E-1,4.916667938E-1
1.510575639E1,5.257281065E-1,4.853848815E-1,4.457750320E-1
1.511575639E1,4.533782303E-1,3.988742828E-1,4.167242050E-1
1.512575639E1,4.123109579E-1,3.326805830E-1,4.932088852E-1
1.513575639E1,1.954574585E-1,1.637186408E-1,4.332828522E-1
1.514575639E1,-1.043486595E-2,5.759662390E-2,3.762388229E-1
1.515575639E1,-3.122009039E-1,-2.811127901E-2,1.519622803E-1
1.516575639E1,-3.642506003E-1,-8.979243040E-2,2.105550766E-1
1.517575639E1,-3.737554550E-1,-1.356825829E-1,3.506021500E-1
1.518575682E1,-3.325949311E-1,-1.391162872E-1,5.432653427E-1
1.519575682E1,-3.574634790E-1,-2.263540924E-1,8.193492889E-1
1.520575682E1,-3.226372004E-1,-3.744080961E-1,9.583940506E-1
1.521575682E1,-1.650469899E-1,-3.861367404E-1,7.953405380E-1
1.522575682E1,1.991808414E-3,-2.814369798E-1,6.344165802E-1
1.524575639E1,3.999056518E-1,1.084383726E-1,1.826801300E-1
1.525575639E1,4.231174290E-1,3.809800148E-1,1.551723480E-1
1.526575639E1,4.284234345E-1,6.339188814E-1,3.067226410E-1
1.527575639E1,5.857363939E-1,1.045304298E0,7.932596207E-1
1.528575639E1,8.265663385E-1,1.189807296E0,8.990812302E-1
1.529575639E1,9.369850159E-1,1.110105038E0,8.065681458E-1
1.530575639E1,9.405742288E-1,8.978999853E-1,8.416786194E-1
1.531575639E1,8.032632470E-1,3.973365426E-1,1.054607391E0
1.532575686E1,6.922840476E-1,1.076445580E-1,9.162511826E-1
1.533575686E1,4.548033476E-1,-7.049024105E-2,4.556350708E-1
1.534575686E1,2.513803542E-1,-9.600633383E-2,1.998987198E-1
1.535575686E1,-6.952393055E-2,-7.398712635E-2,2.510852814E-1
1.536575686E1,-3.117425442E-1,-2.086431086E-1,3.604574203E-1
1.538575639E1,-7.116639018E-1,-4.704380631E-1,8.098602295E-3
1.539575639E1,-8.021861315E-1,-3.701303303E-1,-3.288869858E-1
1.540575639E1,-8.004756570E-1,-3.755352497E-1,-4.693727493E-1
1.541575639E1,-8.785600662E-1,-4.469066858E-1,-6.985940933E-1
1.543575635E1,-6.421244740E-1,-3.949332237E-1,-5.549230576E-1
1.544575635E1,-5.249143243E-1,-3.591417372E-1,-3.312282562E-1
1.545575635E1,-3.547569513E-1,-4.398918152E-1,-4.403018951E-2
1.546575635E1,-2.000780106E-1,-4.901782572E-1,5.738925934E-2
1.547575635E1,5.554330349E-2,-4.550418556E-1,1.752176285E-1
1.549575592E1,3.997917771E-1,-1.180446148E-1,3.197097778E-1
1.550575592E1,4.549950957E-1,2.153277397E-3,2.989864349E-1
1.551575592E1,4.752757549E-1,3.296661377E-2,4.578199387E-1
1.552575592E1,5.056980848E-1,-9.217977524E-3,5.520315170E-1
1.553575592E1,5.571811199E-1,8.618378639E-2,7.280340195E-1
1.554575592E1,6.167087555E-1,2.219274044E-1,9.046916962E-1
1.555575592E1,7.100911140E-1,3.962910175E-1,1.074911118E0
1.556575592E1,6.950381994E-1,4.236613512E-1,1.183623314E0
1.557575639E1,5.574119091E-1,4.127507806E-1,1.101415634E0
1.558575639E1,4.874680638E-1,3.851972222E-1,1.029706001E0
1.559575639E1,4.975621104E-1,1.903106570E-1,7.883386612E-1
1.560575639E1,5.535045266E-1,7.170367241E-2,7.177391052E-1
1.561575639E1,6.983447075E-1,-2.144116163E-2,4.174757004E-1
1.563575592E1,8.076961040E-1,-2.344086170E-1,5.177211761E-2
1.564575592E1,7.657261491E-1,-3.560941517E-1,-1.952552795E-2
1.565575592E1,6.252539754E-1,-5.227537751E-1,-3.150844574E-2
1.566575592E1,5.527406335E-1,-6.306388378E-1,-5.591583252E-2
1.567575592E1,2.900166512E-1,-8.048197031E-1,-2.602567673E-1
1.568575635E1,3.839695454E-2,-8.476000428E-1,-3.666858673E-1
1.569575635E1,-3.153018951E-1,-8.029270172E-1,-3.488893509E-1
1.570575635E1,-4.941747189E-1,-6.532499790E-1,-2.976989746E-1
1.571575635E1,-6.542131901E-1,-3.201593161E-1,-1.363391876E-1
1.572575635E1,-6.669893265E-1,-1.553879976E-1,-2.072238922E-2
1.574575592E1,-1.334367037E0,2.348818183E-1,2.411041260E-1
1.575575592E1,-5.571651459E-2,9.656789303E-1,2.587629318E0
1.576575592E1,-6.407940388E-2,9.706762433E-1,1.035820961E0
1.577575592E1,-5.905294418E-2,9.589565396E-1,-9.377574921E-1
1.578575592E1,-3.092935085E-1,7.290976644E-1,-3.029127121E-1
1.579575592E1,-2.872557640E-1,4.290171862E-1,4.632062912E-1
1.580575592E1,1.178887486E-1,4.622218013E-1,1.522655487E-1
1.581575592E1,5.889337063E-1,4.928394556E-1,-6.404876709E-3
1.582575638E1,5.050434470E-1,4.969635010E-1,2.980356216E-1
1.583575638E1,2.493169904E-1,5.412812233E-1,4.522018433E-1
1.584575688E1,1.333483458E-1,6.280663013E-1,4.592208862E-1
1.585575688E1,1.053109169E-1,6.739964485E-1,3.207740784E-1
1.586575688E1,1.795520782E-1,6.643874049E-1,2.577095032E-1
1.588575642E1,4.076597095E-1,4.090721011E-1,-3.553915024E-1
1.589575642E1,4.490005076E-1,2.578592002E-1,-8.674564362E-1
1.590575692E1,3.469696343E-1,1.285021305E-1,-1.068522453E0
1.591575692E1,1.089182198E-1,-1.541926265E-1,-1.756027222E0
1.592575692E1,-5.867130756E-1,-2.961187363E-1,-1.638844490E0
1.593575735E1,-2.513260543E-1,-3.940910697E-1,-9.009256363E-1
1.594575735E1,-3.580925465E-1,-4.517375827E-1,-9.397602081E-1
1.595575735E1,-3.869540989E-1,-4.221624732E-1,-9.419488907E-1
1.596575735E1,-3.115023375E-1,-1.163190156E-1,-1.267266655E1
1.597575735E1,-2.202256024E-1,5.371915102E-1,-4.245311260E0
1.599575692E1,-1.040054321E0,4.533072710E-1,-1.730022430E0
1.600575692E1,1.387498617E0,-8.025208861E-2,-9.709463120E-1
1.601575692E1,-1.174623489E0,1.111870408E0,-2.532661915E0
1.602575692E1,5.326704383E-1,7.244914174E-1,1.798877716E-1
1.603575692E1,7.909545302E-2,9.095089883E-2,-5.985240936E-1
1.604575692E1,2.989107370E-1,1.570904553E-1,2.346696854E-1
1.605575692E1,7.179769874E-2,4.518008977E-2,3.589725494E-2
1.606575692E1,7.149784267E-2,3.982473910E-2,-2.419471741E-3
1.607575738E1,1.165088117E-1,9.664869308E-2,2.630043030E-2
1.608575738E1,1.064667180E-1,8.182929456E-2,9.529113770E-3
1.609575738E1,1.060581133E-1,8.133099973E-2,9.518623352E-3
1.610575738E1,1.129763722E-1,9.528442472E-2,7.118225098E-3
1.611575738E1,1.462173313E-1,8.776955307E-2,-2.465248108E-3
1.613575692E1,1.241285950E-1,8.017641306E-2,-8.392333984E-5
1.615575642E1,1.305541694E-1,5.073587969E-2,1.187038422E-2
1.616575642E1,1.470574588E-1,7.677862048E-2,-2.500534058E-3
1.617575642E1,1.322829425E-1,9.810104221E-2,2.278327942E-3
1.618575685E1,1.488112211E-1,8.830536902E-2,1.424407959E-2
1.619575685E1,1.484039724E-1,8.570344746E-2,1.902389526E-2
1.621575635E1,1.235743612E-1,7.791300118E-2,-4.938125610E-3
1.622575635E1,1.421862245E-1,1.555716246E-2,-3.632640839E-2
1.624575591E1,1.517117172E-1,-1.019530557E-2,-2.953720093E-2
1.625575591E1,1.226552874E-1,1.878882572E-2,4.931735992E-2
1.626575591E1,1.131232679E-1,6.535304338E-2,-1.786327362E-2
1.627575591E1,7.038655132E-2,4.699688405E-2,-1.080513000E-2
1.628575591E1,7.186248899E-2,4.561994225E-2,-1.569557190E-2
1.629575591E1,5.748647451E-2,3.711604327E-2,-1.338386536E-2
1.630575591E1,4.149851203E-2,4.349452257E-2,8.096694946E-3
1.631575591E1,4.337143898E-2,2.832758613E-2,5.650520325E-3
1.632575638E1,3.142973036E-2,3.500567377E-2,3.213882446E-3
1.633575638E1,2.254276723E-2,3.546774387E-3,-1.608848572E-3
1.634575638E1,3.583945334E-2,3.739758581E-2,7.581710815E-4
1.635575638E1,2.787707001E-2,4.483262822E-2,1.031303406E-2
1.636575638E1,2.988934517E-2,1.373522356E-2,-4.070281982E-3
1.638575591E1,3.450096771E-2,2.898246795E-2,-4.097938538E-3
1.639575591E1,3.224603459E-2,2.705279365E-2,-4.109382629E-3
1.640575591E1,1.365808398E-2,2.532987669E-2,-6.511688232E-3
1.641575591E1,1.440457255E-2,1.647110656E-2,-1.728057861E-3
1.642575591E1,2.252063528E-2,2.967938781E-3,-1.732826233E-3
1.643575635E1,2.108096704E-2,1.132643223E-2,5.444526672E-3
1.644575635E1,2.435677126E-2,1.019114628E-2,5.439758301E-3
1.645575635E1,2.286897972E-2,6.738595665E-3,5.434036255E-3
1.646575635E1,9.553596377E-3,8.163273335E-3,1.021766663E-2
1.647575635E1,5.908258259E-3,-4.567865282E-3,-1.758575439E-3
1.649575591E1,-8.041486144E-3,1.354185119E-2,6.275177002E-4
1.650575591E1,1.056801528E-2,-1.317266375E-3,7.809638977E-3
1.651575591E1,7.468372583E-3,5.355142057E-4,5.413055420E-3
1.652575591E1,-7.245875895E-3,1.229493320E-2,7.806777954E-3
1.653575591E1,-5.053024739E-3,4.752498120E-3,-8.952140808E-3
1.654575591E1,-2.594735473E-3,3.813579679E-5,3.019332886E-3
1.655575591E1,-2.883646637E-3,-4.529133439E-4,3.019332886E-3
1.656575591E1,-7.670912892E-3,9.143691510E-3,3.019332886E-3
1.657575638E1,6.891708821E-3,-1.000437513E-2,-1.134490967E-2
1.658575638E1,2.365540713E-2,1.160247251E-2,-8.950233459E-3
1.659575638E1,4.067521542E-3,2.805776522E-2,1.498985291E-2
1.660575638E1,1.087767258E-2,1.156579703E-3,3.020286560E-3
1.661575638E1,5.805432796E-3,3.137875348E-3,1.259708405E-2
1.663575591E1,-6.505917758E-3,7.924810052E-5,-6.555557251E-3
1.664575591E1,1.019145548E-2,-9.552471340E-3,3.021240234E-3
1.665575591E1,8.037436754E-3,-2.307292074E-3,7.811546326E-3
1.666575591E1,7.978428155E-3,9.667821229E-3,-1.767158508E-3
1.667575591E1,5.248442292E-3,9.356688708E-3,6.275177002E-4
1.668575634E1,-1.870378852E-3,1.182515919E-2,-8.949279785E-3
1.669575634E1,-2.223402262E-3,-7.117651403E-4,-1.766204834E-3
1.670575634E1,-2.223510295E-3,-3.106057644E-3,-1.134300232E-2
1.671575634E1,1.787319779E-4,-2.988714725E-3,6.275177002E-4
1.672575634E1,2.637218684E-3,-2.914376557E-3,-4.160881042E-3
1.674575591E1,-9.207051247E-3,2.003569156E-3,7.810592651E-3
1.675575591E1,-1.159974560E-2,-7.553640753E-3,3.022193909E-3
1.676575591E1,-4.354100674E-3,2.078279853E-3,-6.555557251E-3
1.677575591E1,4.320815206E-4,-2.749145031E-3,6.284713745E-4
1.678575591E1,1.006783172E-2,2.035334706E-3,-8.948326111E-3
1.679575591E1,-6.692197174E-3,1.161230356E-2,1.978302002E-2
1.680575591E1,-4.237439483E-3,-9.920034558E-3,5.417823792E-3
1.681575591E1,2.961188555E-3,4.385896027E-3,-1.765251160E-3
1.682575638E1,7.809672505E-3,-1.235859841E-2,-6.553649902E-3
1.683575638E1,-1.135591045E-2,-2.684034407E-4,-1.765251160E-3
1.684575638E1,-4.216272384E-3,6.858326495E-3,3.023147583E-3
1.685575638E1,7.815018296E-3,1.166241989E-2,-4.158973694E-3
1.686575638E1,1.260352135E-2,-3.090128303E-4,-8.947372437E-3
1.688575591E1,-1.217716932E-2,1.612119377E-3,2.456951141E-2
1.689575591E1,-2.749290317E-3,3.545101732E-3,-4.159927368E-3
1.690575591E1,-2.685293555E-3,1.225028187E-3,-1.134395599E-2
1.691575591E1,-8.669123054E-5,5.547806621E-3,-1.373291016E-2
1.692575641E1,-7.269565016E-3,-4.029355943E-3,-1.133918762E-2
1.693575684E1,3.231316805E-5,-4.017531872E-3,3.026962280E-3
1.694575684E1,7.215235382E-3,5.559694022E-3,6.322860718E-4
1.695575684E1,4.885058850E-3,3.239739686E-3,-1.762390137E-3
1.696575684E1,-1.426823437E-4,-1.886200160E-3,6.322860718E-4
1.697575684E1,-9.659491479E-3,5.239509046E-4,7.816314697E-3
1.698575691E1,-9.544659406E-3,-4.311624914E-3,-1.760482788E-3
1.699575691E1,1.211732253E-2,4.103370011E-4,-6.547927856E-3
1.700575691E1,1.453244686E-2,-1.965768635E-3,-6.547927856E-3
1.701575691E1,-4.439979792E-3,4.950240254E-4,5.424499512E-3
1.702575691E1,-7.781386375E-5,-6.599590182E-3,1.739311218E-2
1.703575691E1,-2.413436770E-3,7.761988789E-3,6.341934204E-4
1.704575691E1,-9.575113654E-3,-6.585109979E-3,1.739311218E-2
1.705575691E1,2.398798242E-2,-1.131749898E-2,6.332397461E-4
1.706575691E1,-2.641920000E-3,-8.608274162E-3,6.294250488E-4
1.707575737E1,-7.441930473E-3,8.270513266E-3,-8.947372437E-3
1.708575737E1,-5.046218634E-3,-1.325826347E-2,-1.765251160E-3
1.709575737E1,1.652177796E-2,-1.288283616E-3,-1.134204865E-2
1.710575737E1,-1.448496059E-2,-6.065152586E-3,-2.091884613E-2
1.711575737E1,-6.051361561E-5,1.113794744E-3,5.418777466E-3
1.713575691E1,7.305242121E-3,5.988355726E-3,3.026008606E-3
1.714575691E1,-1.424327865E-2,-3.588810563E-3,-6.551742554E-3
1.715575691E1,1.215788722E-2,6.062682718E-3,-1.852416992E-2
1.716575691E1,5.033865571E-3,-8.306846023E-3,-4.157066345E-3
1.717575691E1,1.479258016E-2,-3.451962024E-3,-1.133918762E-2
1.718575734E1,5.216915160E-3,-8.220814168E-3,5.420684814E-3
1.719575734E1,1.217082143E-2,1.611119881E-2,-1.373767853E-2
1.721569067E1,-6.868295372E-3,-1.745534688E-2,6.294250488E-4
1.723562307E1,-2.066344023E-3,-4.996806383E-4,-1.766204834E-3
1.725555640E1,-1.998186111E-3,-5.155250430E-3,6.275177002E-4
1.727548974E1,7.639288902E-3,-5.139239132E-3,-1.134300232E-2
1.729542303E1,-4.091739655E-3,-1.465382800E-2,3.024101257E-3
1.731535637E1,-6.358869374E-3,-4.947360605E-3,5.417823792E-3
1.733528970E1,5.668736994E-3,-2.595968544E-3,-8.947372437E-3
1.735522303E1,3.465395421E-3,7.184561342E-3,7.812500000E-3
1.737515590E1,1.057770476E-2,2.224162221E-3,6.313323975E-4
1.739508923E1,-8.512552828E-3,1.187540218E-2,-6.552696228E-3
1.741502256E1,1.074150205E-3,-4.747338593E-3,6.294250488E-4
1.743495589E1,-1.083299145E-2,-2.278540283E-3,-1.765251160E-3
1.745488922E1,3.714147955E-3,-4.606489092E-3,1.020812988E-2
1.747482256E1,-5.802724510E-3,-4.590664059E-3,3.026008606E-3
1.749475546E1,8.815873414E-3,7.343668491E-3,-1.761436462E-3
1.750475546E1,4.085935652E-3,-9.420387447E-3,-6.549835205E-3
1.751475546E1,-1.786654815E-2,-1.408275589E-2,-4.158020020E-3
1.752475546E1,-1.062907279E-2,2.201199532E-4,1.020717621E-2
1.753475546E1,8.926570415E-3,-6.557278335E-3,6.313323975E-4
1.754475592E1,1.138343662E-2,5.468774587E-3,-6.551742554E-3
1.755475592E1,-7.648076862E-3,-1.122094691E-2,-1.133918762E-2
1.756475592E1,1.869073138E-2,-2.077800781E-2,-1.373386383E-2
1.757475592E1,6.537411362E-3,2.282274142E-2,6.275177002E-4
1.758475592E1,8.583560586E-3,-3.431443125E-3,-1.134681702E-2
1.760475545E1,-1.388167590E-2,6.247684360E-3,-6.564140320E-3
1.761475545E1,1.736259833E-2,3.864914179E-3,-4.169464111E-3
1.762475545E1,4.884921014E-3,-1.144353300E-3,7.801055908E-3
1.763475545E1,-4.690743983E-3,8.452441543E-3,5.405426025E-3
1.764475545E1,9.674992412E-3,-3.518801183E-3,3.011703491E-3
1.765475545E1,1.582279801E-4,-8.291516453E-3,6.170272827E-4
1.766475545E1,-4.575520754E-3,-8.354093879E-3,7.802009583E-3
1.767475545E1,-6.905533373E-3,-1.096680760E-3,-1.374626160E-2
1.768475545E1,-1.167841628E-2,-1.156590879E-3,3.013610840E-3
1.769475545E1,-4.495494068E-3,-3.550738096E-3,-6.564140320E-3
1.770475545E1,-4.447255284E-3,-3.416750580E-3,7.801055908E-3
1.771475545E1,4.054196179E-4,1.446194947E-3,-6.564140320E-3
1.772475545E1,1.734723151E-2,-3.275617957E-3,-8.957862854E-3
1.773475545E1,7.785785943E-3,-3.335528076E-3,-4.168510437E-3
1.774475545E1,-1.791071147E-3,-5.729481578E-3,-6.563186646E-3
1.775475545E1,-1.882932708E-2,4.377838224E-3,5.403518677E-3
1.776475545E1,1.992830634E-2,4.622589797E-3,3.010749817E-3
1.777475545E1,2.757623792E-3,-4.926439375E-3,7.797241211E-3
1.778475545E1,1.233481243E-2,2.256512642E-3,7.797241211E-3
1.779475592E1,-9.204242378E-3,-9.577762336E-3,5.401611328E-3
1.780475592E1,2.886109054E-3,1.122429967E-5,5.402565002E-3
1.781475592E1,5.335375667E-3,1.670872420E-2,6.141662598E-4
1.782475592E1,2.653922886E-3,6.954725832E-3,6.141662598E-4
1.783475592E1,2.375647426E-3,-5.351416767E-3,7.797241211E-3
1.785475545E1,2.168934792E-3,-1.000870019E-3,6.151199341E-4
1.787468878E1,-4.885628819E-3,6.330747157E-3,6.141662598E-4
1.789462212E1,-2.886727452E-5,6.463978440E-3,-8.962631226E-3
1.791455592E1,-2.427600324E-2,-3.544379026E-3,6.151199341E-4
1.793448925E1,2.132390067E-2,8.577127010E-3,3.009796143E-3
1.795442258E1,-2.202466130E-4,1.821336895E-2,-4.174232483E-3
1.797435591E1,9.436849505E-3,1.583373174E-2,6.151199341E-4
1.799428924E1,1.665538922E-2,-2.818893827E-2,6.198883057E-4
1.801422304E1,-9.995535016E-3,-8.738134056E-3,-1.778602600E-3
1.803415638E1,4.493325949E-3,-3.878671676E-3,-1.777648926E-3
1.805408971E1,-2.443835139E-3,1.302206516E-2,5.405426025E-3
1.807402304E1,2.393775433E-2,-3.662228584E-3,6.179809570E-4
1.809395590E1,1.450275257E-2,8.377954364E-3,3.012657166E-3
1.811388924E1,-4.881341010E-3,-1.694198698E-3,3.013610840E-3
1.813382257E1,4.826262593E-3,1.256453246E-2,-1.774787903E-3
1.815375637E1,9.471118450E-3,1.697016507E-2,6.217956543E-4
1.816375637E1,-2.892352641E-4,1.629487053E-2,-4.163742065E-3
1.817375637E1,6.858926266E-3,2.536313981E-2,1.020431519E-2
1.818375637E1,-1.486940682E-2,-4.279740155E-3,-1.763343811E-3
1.819375637E1,-4.720240831E-4,-2.575602382E-3,3.029823303E-3
1.821375590E1,-1.484076679E-2,1.834447682E-2,7.821083069E-3
1.822375590E1,-4.948209971E-3,-1.545225084E-2,5.430221558E-3
1.823375590E1,-1.446532831E-2,-3.465361893E-3,5.430221558E-3
1.824375590E1,9.541392326E-3,-1.057397202E-2,3.037452698E-3
1.825375590E1,9.486787021E-3,-1.290543005E-2,6.418228149E-4
1.826375637E1,9.549584240E-3,1.588071510E-2,-1.752853394E-3
1.827375637E1,-4.814472049E-3,-3.253601491E-3,-1.372337341E-2
1.828375637E1,9.555336088E-3,3.988001496E-3,-8.934974670E-3
1.829375637E1,4.766732454E-3,3.987938166E-3,-1.752853394E-3
1.830375637E1,-9.996674955E-3,1.522753388E-3,7.822036743E-3
1.832375590E1,-3.454424441E-4,-3.330014646E-3,-4.148483276E-3
1.833375590E1,-5.015000701E-3,-5.712386221E-3,7.822990417E-3
1.834375590E1,2.231951803E-3,-1.042652503E-2,-8.935928345E-3
1.835375590E1,-7.163614035E-3,-3.177281469E-3,5.430221558E-3
1.836375590E1,5.005501211E-3,-4.975661635E-3,-4.149436951E-3
1.837375590E1,-4.567496479E-3,-2.522550523E-3,-4.149436951E-3
1.838375590E1,-2.006813884E-3,2.687253058E-3,6.370544434E-4
1.839375590E1,-1.140652969E-2,-4.488036036E-3,3.032684326E-3
1.840375637E1,7.807958871E-3,-9.260687977E-3,-1.755714417E-3
1.841375637E1,-1.367639005E-2,-4.397731274E-3,3.033638000E-3
1.842375637E1,-2.073771507E-2,4.416666925E-4,-1.755714417E-3
1.843375637E1,6.188012660E-3,-4.072438926E-3,-8.934974670E-3
1.844375637E1,-3.330275416E-3,-4.076302052E-3,7.824897766E-3
1.846375590E1,-8.003041148E-4,-1.607648283E-2,3.037452698E-3
1.847375590E1,-5.337599665E-3,5.985822529E-3,-1.752853394E-3
1.848375590E1,-4.861876369E-4,-1.550785825E-2,-6.541252136E-3
1.849375590E1,-9.878125042E-3,8.559677750E-3,3.037452698E-3
1.850375640E1,1.198425889E-4,8.963901550E-3,7.825851440E-3
1.851375686E1,2.635464072E-3,1.831740141E-3,5.431175232E-3
1.852375687E1,-4.077635705E-3,4.194218665E-3,5.434036255E-3
1.853375686E1,6.639659405E-4,-1.507464051E-2,7.828712463E-3
1.854375687E1,3.044091165E-3,-7.812079042E-3,-6.537437439E-3
1.855375686E1,5.545854568E-3,-2.041496336E-4,-8.932113647E-3
1.856375687E1,7.994934916E-3,-5.055259913E-3,1.261711121E-2
1.857375686E1,8.055068552E-3,1.890319958E-2,6.456375122E-4
1.858375686E1,1.523799077E-2,1.172050089E-2,7.828712463E-3
1.859375686E1,5.661129951E-3,9.326562285E-3,-1.749038696E-3
1.860375686E1,2.894856036E-3,-1.249141246E-2,5.433082581E-3
1.861375687E1,2.203485370E-2,-5.228918046E-3,-4.144668579E-3
1.862375686E1,9.493585676E-3,6.742209196E-3,-8.935928345E-3
1.863375687E1,-2.957955003E-3,-1.014221087E-2,-1.756668091E-3
1.864375686E1,6.749778986E-3,6.510842592E-3,1.021671295E-2
1.865375733E1,1.567709446E-2,-3.081146628E-3,-1.133632660E-2
1.866375733E1,-3.480989486E-3,-5.534000695E-3,3.030776978E-3
1.867375733E1,-1.299782097E-2,1.664727926E-3,-6.546974182E-3
1.868375733E1,6.097774953E-3,-7.908251137E-3,7.819175720E-3
1.869375733E1,1.389142126E-3,8.866194636E-3,7.818222046E-3
1.871375686E1,1.453358680E-3,1.757916063E-3,7.819175720E-3
1.872375686E1,3.906436265E-3,1.611970738E-2,1.021385193E-2
1.873375686E1,1.593793929E-2,-6.245076656E-4,6.370544434E-4
1.874375686E1,-7.673129439E-4,-6.872639060E-4,-1.757621765E-3
1.875375686E1,6.415609270E-3,1.707144082E-3,3.031730652E-3
1.876375733E1,-1.210693270E-3,-1.282468066E-2,3.029823303E-3
1.877375733E1,1.560515910E-2,-5.684990436E-3,3.030776978E-3
1.878375733E1,1.516456157E-2,-7.911637425E-3,-8.944511414E-3
1.879375733E1,-9.221509099E-3,4.188265651E-3,6.294250488E-4
1.881375636E1,2.817872912E-3,9.109806269E-3,-8.948326111E-3
1.882375636E1,5.424357951E-4,-1.242694631E-2,5.417823792E-3
1.883375636E1,5.438663065E-4,1.958400011E-3,-6.553649902E-3
1.884375636E1,-6.579957902E-3,4.348959774E-3,-4.158973694E-3
1.885375636E1,1.024394110E-2,-9.942475706E-3,6.294250488E-4
1.887375590E1,1.256994531E-2,7.255040109E-3,1.020336151E-2
1.888375590E1,-8.863676339E-3,-2.369038761E-3,6.275177002E-4
1.889375590E1,-1.604992896E-3,4.769656807E-3,-4.159927368E-3
1.890375636E1,-6.338667125E-3,-1.205287874E-2,-1.765251160E-3
1.891375636E1,-1.427292824E-3,1.196029782E-2,1.020622253E-2
1.892375636E1,-1.334384829E-2,7.109187543E-3,-1.764297485E-3
1.893375636E1,-1.253638417E-3,4.726640880E-3,-6.551742554E-3
1.894375636E1,-1.253541559E-3,-4.850331694E-3,-6.551742554E-3
1.896375590E1,-1.236289740E-3,-7.284615189E-3,-1.763343811E-3
1.897375590E1,8.744072169E-3,-7.135130465E-3,7.816314697E-3
1.898375590E1,-5.680125207E-3,-7.131058723E-3,6.322860718E-4
1.899375590E1,3.961089998E-3,4.914723337E-3,1.260375977E-2
1.900375590E1,1.625616103E-3,9.699419141E-3,-1.762390137E-3
1.901375636E1,-7.832795382E-3,1.210522652E-2,-8.942604065E-3
1.902375636E1,-1.010838524E-2,-2.248886973E-3,-1.133728027E-2
1.903375636E1,6.706360728E-3,-4.705715925E-3,-6.547927856E-3
1.904375636E1,-1.709813252E-2,-4.695512354E-3,1.021194458E-2
1.905375636E1,-2.858862281E-4,2.859346569E-4,1.260662079E-2
1.907375589E1,-4.480563104E-3,1.231556758E-2,7.821083069E-3
1.908375589E1,2.910339832E-2,-4.369936883E-3,-4.150390625E-3
1.909375589E1,-2.434331924E-3,-4.361484200E-3,5.423545837E-3
1.910375589E1,-4.204995930E-4,6.104484200E-4,3.026962280E-3
1.911375589E1,-3.563836217E-4,1.265624538E-2,-1.762390137E-3
1.912375589E1,2.365047112E-2,-6.423536688E-3,-6.550788879E-3
1.913375589E1,-5.772400647E-3,-1.686420292E-3,1.738834381E-2
1.914375589E1,-8.650086820E-4,7.902413607E-3,5.417823792E-3
1.915375636E1,3.983661532E-3,7.352977991E-4,7.812500000E-3
1.916375636E1,1.243401319E-3,7.744953036E-3,-8.948326111E-3
1.917375636E1,-1.032229513E-3,-1.820676029E-3,-8.947372437E-3
1.918375636E1,3.873683512E-3,2.959843725E-3,-4.158973694E-3
1.919375636E1,-5.752597004E-3,5.495402962E-3,6.284713745E-4
1.921375589E1,1.124765724E-2,-1.624830067E-3,-1.765251160E-3
1.922375589E1,1.726765186E-3,1.509206370E-2,-6.552696228E-3
1.923375589E1,-1.258029416E-2,-4.066139460E-3,-1.763343811E-3
1.924375589E1,-1.239472628E-2,-3.941029310E-3,-1.763343811E-3
1.925375589E1,-5.155760795E-3,1.277590543E-2,3.026008606E-3
1.926375636E1,-5.091793835E-3,-3.909792751E-3,-1.133918762E-2
1.927375636E1,-5.025025457E-3,5.780868232E-3,-1.762390137E-3
1.928375636E1,-7.414039224E-3,3.464795649E-3,-4.157066345E-3
1.929375636E1,1.658751070E-2,2.022087201E-2,5.419731140E-3
1.930375636E1,1.189390197E-2,7.908999920E-3,-8.942604065E-3
1.932375589E1,9.438902140E-3,7.303714752E-3,-8.939743042E-3
1.933375589E1,-4.203617573E-4,-5.061194301E-3,6.370544434E-4
1.934375589E1,-1.261918247E-2,-7.288791239E-4,-4.150390625E-3
1.935375589E1,-3.107655793E-3,-1.069455594E-2,6.399154663E-4
1.936375589E1,6.532073021E-3,-8.245624602E-3,-1.754760742E-3
1.937375589E1,-6.454885006E-4,-5.773141980E-3,6.399154663E-4
1.938375589E1,-5.371265113E-3,-9.297393262E-4,6.399154663E-4
1.939375589E1,-7.584016770E-3,-8.046112955E-3,7.822990417E-3
1.940375636E1,4.591450095E-3,9.112928063E-3,6.399154663E-4
1.941375636E1,1.183691621E-2,9.167585522E-3,-6.543159485E-3
1.942375636E1,-4.867061973E-3,1.941513270E-3,-4.147529602E-3
1.943375636E1,9.573187679E-3,6.666325033E-3,-1.132965088E-2
1.944375636E1,1.634462178E-2,8.793611079E-3,-1.133155823E-2
1.946375589E1,-3.473982215E-4,4.137933254E-3,-1.754760742E-3
1.947375589E1,-3.157936037E-3,-9.955987334E-4,-1.372623444E-2
1.948375589E1,4.024986178E-3,-9.954683483E-4,7.822036743E-3
1.949375589E1,4.147797823E-3,3.863520920E-3,-1.133155823E-2
1.950375589E1,1.618328318E-2,-1.761052758E-2,-1.755714417E-3
1.951375636E1,1.353405416E-3,-1.031745225E-2,3.030776978E-3
1.952375636E1,6.072092801E-3,-6.171651185E-4,1.021194458E-2
1.953375636E1,5.658943206E-3,-3.334581852E-4,1.020812988E-2
1.954375636E1,3.268893808E-3,1.169693470E-2,6.303787231E-4
1.955375636E1,9.232051671E-4,-1.450568065E-2,-8.946418762E-3
1.957375589E1,1.541583985E-2,2.383645624E-3,6.303787231E-4
1.958375589E1,-1.840148121E-3,4.418522120E-3,5.417823792E-3
1.959375589E1,1.154281199E-4,-7.529743016E-4,6.284713745E-4
1.960375589E1,4.589330405E-3,1.348234713E-3,-6.555557251E-3
1.961375589E1,1.381520927E-2,1.096710563E-3,5.415916443E-3
1.962375589E1,6.149586290E-3,3.327265382E-3,-4.163742065E-3
1.963375589E1,1.528567821E-2,5.594305694E-3,-6.559371948E-3
1.964375589E1,-1.951944083E-3,-1.125132293E-2,-1.773834229E-3
1.965375636E1,-4.299174994E-3,8.017569780E-3,-1.374435425E-2
1.966375636E1,2.885069698E-3,1.043153554E-2,-1.773834229E-3
1.967375636E1,-2.408672124E-3,3.582350910E-4,-6.563186646E-3
1.968375636E1,-2.566616982E-3,-2.339541912E-3,6.208419800E-4
1.969375636E1,-4.898041487E-3,-1.186184958E-2,3.015518188E-3
1.971375589E1,-1.195780188E-2,4.968818277E-3,-4.166603088E-3
1.972375589E1,-4.667747766E-3,-2.083528787E-3,-1.853275299E-2
1.973375589E1,2.909358591E-3,-4.170402884E-3,3.016471863E-3
1.974375589E1,-4.268053919E-3,-4.092004150E-3,7.804870605E-3
1.975375589E1,2.910889685E-3,-1.372768730E-2,-6.561279297E-3
1.976375636E1,-1.813489944E-3,7.123313844E-4,-1.772880554E-3
1.977375636E1,6.435699761E-4,7.671788335E-4,-1.772880554E-3
1.978375636E1,-8.932102472E-3,1.515252516E-2,-1.772880554E-3
1.979375636E1,-1.698624343E-3,7.848184556E-3,-1.771926880E-3
1.980375636E1,8.300766349E-4,-6.565760821E-3,7.806777954E-3
1.982375589E1,3.169968724E-3,-2.326256409E-2,-1.770973206E-3
1.983375589E1,-8.741419762E-3,1.266708598E-2,-4.164695740E-3
1.984375589E1,6.093967706E-3,1.263539493E-2,7.809638977E-3
1.985375589E1,8.473444730E-3,1.212541759E-2,1.978397369E-2
1.986375589E1,5.894880742E-3,6.936658174E-3,1.739025116E-2
1.987375589E1,5.949776620E-3,-3.087669611E-4,-6.551742554E-3
1.988375589E1,-3.551594913E-3,-1.711300761E-2,-4.156112671E-3
1.989375589E1,1.093171909E-2,6.822101772E-3,-1.762390137E-3
1.990375635E1,-1.780228317E-2,-1.476557180E-2,-1.612758636E-2
1.991375635E1,-9.077712893E-4,1.946248114E-3,6.341934204E-4
1.992375635E1,6.333708763E-3,1.870213822E-2,-6.548881531E-3
1.993375635E1,1.824647561E-2,4.340585321E-3,-6.548881531E-3
1.994375635E1,-8.589398116E-3,6.336104125E-3,5.420684814E-3
1.996375589E1,-3.502339870E-2,-1.338141412E-2,-1.758575439E-3
1.997375589E1,6.283707917E-3,-1.195218414E-3,5.426406860E-3
1.998375589E1,-3.291744739E-3,3.613159060E-3,-1.756668091E-3
1.999375589E1,-8.464567363E-4,1.097816974E-3,-1.133251190E-2
2.000375589E1,-1.509326696E-2,-1.325609535E-2,-1.754760742E-3
2.001375635E1,1.609658822E-2,-8.393045515E-3,-6.543159485E-3
2.002375635E1,4.199240357E-3,-1.085152477E-2,3.035545349E-3
2.003375635E1,-7.830742747E-3,-8.453149348E-3,7.822990417E-3
2.004375635E1,6.787583232E-3,-5.525276065E-3,-4.150390625E-3
2.005375635E1,-7.459226996E-3,6.457842886E-3,-8.936882019E-3
2.007375589E1,-7.277611643E-3,6.524447352E-3,7.822990417E-3
2.008375589E1,-4.745077342E-3,1.746132970E-3,1.021766663E-2
2.009375589E1,1.022815704E-4,-6.519928575E-4,5.430221558E-3
2.010375589E1,-4.684839398E-3,4.156257957E-3,-4.146575928E-3
2.011375589E1,-9.434204549E-3,-1.021197438E-2,3.036499023E-3
2.012375589E1,-4.744924605E-3,8.929140866E-3,3.035545349E-3
2.013375589E1,2.970270813E-3,1.769326627E-3,1.740360260E-2
2.014375589E1,4.924796522E-4,-5.486413836E-3,-1.132774353E-2
2.015375635E1,3.985017538E-4,-7.815480232E-3,-8.934020996E-3
2.016375635E1,1.001081616E-2,-5.482506007E-3,-4.145622253E-3
2.017375635E1,-9.164009243E-3,1.604793593E-2,-4.145622253E-3
2.018375635E1,2.787854522E-3,8.866496384E-3,1.021957397E-2
2.019375635E1,1.000207290E-2,-8.304044604E-4,3.038406372E-3
2.021375588E1,1.696711779E-2,3.639232367E-3,7.827758789E-3
2.022375589E1,-1.400373876E-4,-2.289052308E-2,6.437301636E-4
2.023375588E1,-7.763396949E-3,-1.174408942E-3,-1.754760742E-3
2.024375589E1,-6.546638906E-4,-1.110155135E-3,1.021575928E-2
2.025375588E1,1.778800040E-3,8.464355022E-3,3.033638000E-3
2.026375635E1,-7.829599082E-3,-1.056990772E-2,6.380081177E-4
2.027375635E1,-4.024878144E-4,-2.971269190E-3,5.425453186E-3
2.028375635E1,9.155098349E-3,-2.969879657E-3,5.425453186E-3
2.029375635E1,-4.415214062E-4,4.214324057E-3,6.370544434E-4
2.030375635E1,-7.581036538E-3,-2.912186086E-3,1.500225067E-2
2.032375588E1,-5.123756826E-3,-7.645741105E-3,5.425453186E-3
2.033375588E1,-1.220493391E-2,-5.199458450E-3,-1.756668091E-3
2.034375588E1,1.675261930E-2,4.814483225E-3,1.260852814E-2
2.035375588E1,6.749171764E-3,2.802766860E-3,6.322860718E-4
2.036375588E1,4.389893264E-3,3.147263452E-2,-1.762390137E-3
2.037375588E1,-1.467016339E-2,5.070485175E-3,-1.133823395E-2
2.038375588E1,1.643192023E-2,2.618901432E-3,3.027915955E-3
2.039375588E1,-5.077365786E-3,1.458769292E-2,6.341934204E-4
2.040375638E1,1.168702915E-2,-5.372725427E-3,3.032684326E-3
2.041375638E1,-2.713933587E-3,-1.249438524E-2,1.739788055E-2
2.042375638E1,9.296778589E-3,-5.313951522E-3,-4.150390625E-3
2.043375638E1,6.886959076E-3,6.717506796E-3,7.820129395E-3
2.045368925E1,4.555311054E-3,-4.106387496E-4,-4.150390625E-3
2.047362258E1,2.120986581E-3,-4.270598292E-4,-8.939743042E-3
2.049355618E1,6.502885371E-3,-1.231166348E-2,-8.942604065E-3
2.051348951E1,-2.992015332E-3,6.895877421E-3,-4.153251648E-3
2.053342284E1,-8.222579956E-3,-5.221989006E-3,3.027915955E-3
2.055335618E1,-1.017428935E-3,2.115297690E-2,1.499748230E-2
2.057328904E1,-8.321687579E-3,4.342220724E-3,-8.944511414E-3
2.059322238E1,-8.081052452E-3,5.933970213E-3,5.426406860E-3
2.061315571E1,-1.045294479E-2,-1.210968941E-3,-4.150390625E-3
2.063308951E1,6.728637964E-3,1.059481502E-2,-1.611804962E-2
2.065302284E1,-2.672549337E-3,1.297692955E-2,7.825851440E-3
2.067295617E1,9.381324053E-3,-1.330636814E-2,3.037452698E-3
2.069288950E1,-4.909913987E-3,9.954050183E-4,-8.932113647E-3
2.071282233E1,-2.392321452E-2,-1.349486411E-3,3.039360046E-3
2.073275593E1,-6.749361753E-3,-1.032579690E-2,1.261425018E-2
2.074275593E1,7.910002023E-3,9.103272110E-3,3.038406372E-3
2.075275593E1,-3.864243627E-3,4.615832120E-3,-1.751899719E-3
2.076275593E1,1.293471083E-2,-2.172396332E-2,3.038406372E-3
2.077275593E1,3.338094801E-3,-1.741051674E-4,3.038406372E-3
2.079275567E1,-1.368550956E-2,8.048851043E-3,-1.758575439E-3
2.080275567E1,7.232986391E-4,-6.260674447E-3,6.361007690E-4
2.081275567E1,-4.100415856E-3,1.056060195E-2,-1.759529114E-3
2.082275567E1,3.116298467E-3,3.296919167E-3,3.030776978E-3
2.083275567E1,-1.121031493E-2,3.294143826E-3,-4.151344299E-3
2.084275567E1,1.245032996E-3,-3.999978304E-3,-1.372528076E-2
2.085275567E1,-3.504332155E-3,-6.396833807E-3,-1.611995697E-2
2.086275567E1,-3.461174667E-3,-6.340708584E-3,-1.611995697E-2
2.087275613E1,1.354936510E-3,3.352545202E-3,7.822990417E-3
2.088275613E1,-3.453135490E-3,8.142482489E-3,-6.543159485E-3
2.089275613E1,6.044264883E-3,1.291663200E-2,-1.755714417E-3
2.090275613E1,8.465681225E-3,-1.922376454E-3,-1.752853394E-3
2.091275613E1,3.638047725E-3,1.723453030E-2,-1.372337341E-2
2.093275567E1,-8.557651192E-3,1.442345232E-2,-1.851177216E-2
2.094275566E1,-3.541339189E-3,4.437699914E-3,-8.931159973E-3
2.095275566E1,2.062526718E-2,1.354739815E-2,-6.532669067E-3
2.096275566E1,8.479695767E-3,-1.357097179E-3,6.523132324E-4
2.097275566E1,-1.304533333E-2,8.277252316E-3,1.022911072E-2
2.098275593E1,1.575209573E-2,-1.776035875E-3,7.838249207E-3
2.099275593E1,-1.313649118E-3,-7.015839219E-3,5.444526672E-3
2.100275593E1,7.255189121E-4,-1.690303534E-2,-6.526947021E-3
2.101275593E1,1.034180820E-2,-2.539969981E-3,3.050804138E-3
2.102275593E1,-1.586399972E-3,-4.878118634E-3,3.050804138E-3
2.104275566E1,1.465113088E-2,-4.174292088E-3,-4.138946533E-3
2.105275566E1,7.448788732E-3,1.258702204E-2,-1.746177673E-3
2.106275566E1,-6.937913597E-3,5.385756493E-3,7.831573486E-3
2.107275566E1,2.841092646E-4,1.256600022E-2,-1.132202148E-2
2.108275616E1,-1.165221259E-2,-2.101532742E-2,5.437850952E-3
2.109275616E1,1.952048764E-2,3.042243421E-3,1.022624969E-2
2.110275616E1,-1.945582032E-2,-1.740384847E-3,-1.749992371E-3
2.111275616E1,-7.638145238E-3,7.886689156E-3,-1.611614227E-2
2.112275663E1,-2.924002707E-3,-4.020810127E-3,1.021957397E-2
2.113275663E1,-5.235753953E-3,-1.593857259E-2,3.037452698E-3
2.114275663E1,-1.674746722E-2,-5.960013717E-3,-6.539344788E-3
2.115275663E1,5.409434438E-3,-8.978098631E-4,-1.749038696E-3
2.116275663E1,-1.564272493E-2,-5.326483399E-3,-4.141807556E-3
2.118275616E1,8.685152978E-3,9.209837765E-3,-4.140853882E-3
2.119275616E1,-8.035738021E-3,-1.952422783E-2,6.484985352E-4
2.120275616E1,-7.633361965E-3,-1.939372718E-2,6.504058838E-4
2.121275616E1,9.047169238E-3,2.140726894E-3,-1.745223999E-3
2.122275616E1,4.293683916E-3,-2.186350152E-2,-1.371479034E-2
2.123275643E1,-5.478661507E-3,-4.500787705E-3,-4.142761230E-3
2.124275643E1,1.624628901E-3,1.224492863E-2,5.434036255E-3
2.125275643E1,-3.062210977E-3,-2.068758011E-3,-1.749038696E-3
2.126275643E1,-5.488418043E-3,1.777569205E-2,1.021862030E-2
2.127275643E1,-3.129255027E-3,-1.317083836E-3,-6.541252136E-3
2.129275616E1,4.660289735E-3,-3.752239048E-3,-1.749038696E-3
2.130275616E1,1.182359830E-2,3.431975842E-3,1.022148132E-2
2.131275616E1,1.431972533E-2,1.545550674E-2,7.828712463E-3
2.132275616E1,1.673743874E-2,1.790703088E-2,-1.132583618E-2
2.133275616E1,-3.580115736E-4,-6.347153336E-3,6.446838379E-4
2.134275616E1,-2.656888217E-3,-8.786920458E-3,5.434036255E-3
2.135275616E1,-2.673767507E-3,5.619253963E-3,-4.142761230E-3
2.136275616E1,-3.052599728E-3,5.251500756E-3,-4.143714905E-3
2.137275663E1,8.439768106E-3,-1.879661158E-2,-1.751899719E-3
2.139275613E1,7.586963475E-4,-3.057711013E-2,-1.756668091E-3
2.140275613E1,7.960986346E-3,5.335561931E-3,7.821083069E-3
2.141275613E1,5.609869957E-3,-1.376251504E-2,-1.756668091E-3
2.143275566E1,5.361028016E-4,8.218184114E-3,7.817268372E-3
2.145268899E1,-1.421407983E-2,-8.122652769E-3,6.294250488E-4
2.147262232E1,1.700617746E-2,-9.992342442E-3,-1.373767853E-2
2.149255612E1,-1.445045322E-2,-1.414933801E-2,6.217956543E-4
2.151248946E1,-9.925700724E-3,-8.433237672E-4,-8.963584900E-3
2.153242252E1,-1.460427791E-2,1.398661733E-2,-4.177093506E-3
2.155235585E1,4.499308765E-3,6.925247610E-3,-4.178047180E-3
2.157228919E1,-7.221687585E-3,1.766268164E-3,7.797241211E-3
2.159222299E1,2.768825740E-3,6.271444261E-3,1.019477844E-2
2.161215632E1,-2.109541371E-2,1.344930008E-2,-1.135253906E-2
2.163208965E1,1.300060004E-2,1.026942208E-2,6.265640259E-4
2.165202298E1,-6.206572056E-3,1.158636436E-2,7.814407349E-3
2.167195585E1,8.287277073E-3,5.786534399E-3,3.032684326E-3
2.169188918E1,-1.136355102E-3,-2.035576850E-3,-1.132869720E-2
2.171182251E1,1.108792424E-2,2.421490848E-3,1.022243500E-2
2.173175631E1,-1.278438047E-2,-4.883900285E-3,5.435943604E-3
2.174175631E1,3.895994276E-3,4.678983241E-3,6.465911865E-4
2.175175631E1,8.665088564E-3,-2.502501011E-3,-6.536483765E-3
2.176175631E1,-1.517549157E-2,-9.632777423E-3,1.501274109E-2
2.177175631E1,-3.106076270E-3,-6.202980876E-5,1.022434235E-2
2.179175584E1,-5.266778171E-4,6.273016334E-5,3.042221069E-3
2.180175584E1,6.758153439E-3,-1.903912053E-2,-1.611137390E-2
2.181175584E1,1.643330231E-2,-1.186264306E-2,-4.138946533E-3
2.182175584E1,1.724831760E-3,5.642287433E-4,-1.749992371E-3
2.183175584E1,-6.341561675E-4,2.897169441E-3,3.039360046E-3
2.184175634E1,8.981909603E-3,2.894442528E-3,-1.749038696E-3
2.185175634E1,-8.199214935E-3,1.263767853E-2,-1.752853394E-3
2.186175634E1,1.401688904E-3,-1.670379192E-3,-6.541252136E-3
2.187175634E1,-3.343708813E-3,7.800161839E-4,3.036499023E-3
2.188175634E1,1.100094989E-2,-6.421186030E-3,-1.372337341E-2
2.190175588E1,3.841608763E-3,1.279033348E-2,-1.372337341E-2
2.191175588E1,-5.653053522E-3,-1.521639526E-3,3.036499023E-3
2.192175588E1,1.103961095E-2,-9.113095701E-3,5.431175232E-3
2.193175588E1,1.114168763E-2,-9.060792625E-3,5.432128906E-3
2.194175588E1,1.315303147E-2,-1.438945532E-3,-1.612186432E-2
2.195175588E1,2.041824162E-2,1.537459344E-2,-1.612186432E-2
2.196175588E1,6.095744669E-3,1.543071866E-2,-1.755714417E-3
2.197175588E1,-3.910683095E-3,3.213156015E-3,7.820129395E-3
2.198175638E1,3.252621740E-3,-8.756831288E-3,-1.757621765E-3
2.199175638E1,3.794990480E-4,-8.862018585E-3,1.260662079E-2
2.200175638E1,-1.396256685E-2,5.561072379E-3,-6.547927856E-3
2.201175638E1,-1.151746511E-2,-1.743059605E-3,5.424499512E-3
2.202175638E1,3.360982984E-3,-4.112929106E-3,1.021575928E-2
2.204175591E1,3.375060856E-3,7.778588682E-3,-1.133251190E-2
2.205175591E1,-1.495670527E-3,1.011950523E-2,-1.754760742E-3
2.206175591E1,3.316093236E-3,1.257089898E-2,1.021575928E-2
2.207175591E1,1.053795591E-2,-1.616317779E-2,-4.149436951E-3
2.208175591E1,-1.330694929E-2,1.016723737E-2,-4.148483276E-3
2.209175638E1,-1.292575151E-3,3.040347248E-3,1.261138916E-2
2.210175638E1,-5.979269743E-3,-1.845596731E-2,-1.133155823E-2
2.211175638E1,5.968622863E-3,-6.541907787E-3,-4.147529602E-3
2.212175638E1,1.207623631E-3,1.272844151E-2,-1.754760742E-3
2.213175638E1,1.182671636E-3,5.468536168E-3,-4.148483276E-3
2.215175588E1,1.078340039E-2,-1.656774431E-3,1.021671295E-2
2.216175588E1,-3.601912409E-3,1.510434598E-2,6.399154663E-4
2.217175588E1,-3.804568201E-3,1.472474262E-2,6.408691406E-4
2.218175588E1,1.303779706E-2,-1.155861467E-2,-6.541252136E-3
2.219175588E1,-3.741640598E-3,1.238552481E-2,6.408691406E-4
2.220175588E1,-1.821391284E-3,9.212642908E-5,5.428314209E-3
2.221175588E1,7.806528360E-3,-4.817735404E-3,3.035545349E-3
2.222175588E1,7.324881852E-3,-4.962258041E-3,3.033638000E-3
2.223175634E1,-5.152568221E-3,1.187123731E-2,-6.547927856E-3
2.224175634E1,2.014700323E-3,1.193132997E-2,6.351470947E-4
2.225175634E1,1.920875162E-3,-2.368938178E-3,-1.133728027E-2
2.226175634E1,6.686151028E-3,2.362422645E-3,3.028869629E-3
2.227175634E1,-2.793200314E-3,-3.858655691E-5,-4.153251648E-3
2.229175584E1,-5.165163428E-3,-4.789188504E-3,6.341934204E-4
2.230175584E1,-2.790406346E-3,2.395018935E-3,5.422592163E-3
2.231175584E1,6.767172366E-3,9.579226375E-3,-8.942604065E-3
2.232175584E1,-5.724579096E-4,2.112124115E-3,-8.941650391E-3
2.233175584E1,8.858356625E-3,1.126690209E-2,-1.757621765E-3
2.234175631E1,8.838992566E-3,-7.885728031E-3,-6.546974182E-3
2.235175631E1,-5.483653396E-3,8.930131793E-3,7.819175720E-3
2.236175631E1,4.060965031E-3,9.030677378E-3,-1.759529114E-3
2.237175631E1,-6.844289601E-4,-5.278840661E-3,-4.153251648E-3
2.238175631E1,-5.433630198E-3,-2.886954695E-3,6.351470947E-4
2.240175584E1,1.713681966E-3,-1.778088138E-2,-4.150390625E-3
2.241175584E1,-5.857568234E-3,-3.054760396E-3,6.341934204E-4
2.242175584E1,8.535631001E-3,1.849945635E-3,7.817268372E-3
2.243175584E1,-1.002438366E-3,6.635725498E-3,1.021099091E-2
2.244175584E1,6.283566356E-3,-1.005246863E-2,-8.942604065E-3
2.245175584E1,-7.984191179E-3,1.388373598E-2,-1.759529114E-3
2.246175584E1,-1.279621944E-2,1.143214479E-2,-6.548881531E-3
2.247175584E1,4.069469869E-3,-4.284270108E-4,6.341934204E-4
2.248175631E1,-3.152590245E-3,1.968365163E-3,1.021099091E-2
2.249175631E1,4.347946495E-3,6.224270910E-3,6.399154663E-4
2.250175631E1,-2.789583057E-3,-1.103008911E-2,6.427764893E-4
2.251175631E1,-4.110187292E-4,-1.097018644E-2,3.036499023E-3
2.252175631E1,-5.179949105E-3,-1.394346356E-3,1.261425018E-2
2.254175584E1,-3.720447421E-4,-3.790196031E-3,5.431175232E-3
2.255175584E1,-3.834739327E-4,1.117337495E-3,-6.541252136E-3
2.256175584E1,-3.560781479E-4,3.627575934E-3,-4.146575928E-3
2.257175584E1,-7.495757192E-3,8.472248912E-3,5.429267883E-3
2.258175584E1,2.120759338E-3,-1.107286662E-3,5.430221558E-3
2.259175630E1,9.268466383E-3,-1.062297449E-2,5.429267883E-3
2.260175631E1,-7.512357086E-3,-3.458399326E-3,-1.753807068E-3
2.261175630E1,-5.079038441E-3,3.721650690E-3,-8.934974670E-3
2.262175630E1,1.650862023E-2,8.507620543E-3,6.418228149E-4
2.263175630E1,9.361173958E-3,6.052251905E-3,3.036499023E-3
2.265175584E1,2.374138683E-3,-1.072075590E-2,-8.934020996E-3
2.266175584E1,9.537447244E-3,-1.142267138E-3,-1.751899719E-3
2.267175584E1,2.393811941E-3,-1.551049948E-2,-1.751899719E-3
2.268175584E1,-1.200680435E-2,1.567667350E-2,1.021957397E-2
2.269175584E1,9.057763964E-3,-3.660865128E-3,3.035545349E-3
2.270175584E1,4.233937711E-3,-3.599647433E-3,-1.754760742E-3
2.271175584E1,1.941677183E-3,3.635529429E-3,1.021766663E-2
2.272175584E1,3.771156073E-3,-1.544116065E-2,-6.546020508E-3
2.273175630E1,1.578187943E-2,-5.866453052E-3,-1.372814178E-2
2.274175630E1,1.299520209E-2,-1.514179260E-2,-1.133823395E-2
2.275175630E1,3.088444471E-3,1.155168563E-2,-1.765251160E-3
2.276175630E1,7.241848856E-3,-7.402312011E-3,6.237030029E-4
2.277175630E1,6.824549288E-3,-7.177568972E-3,6.198883057E-4
2.279175584E1,-7.800336927E-3,-6.649032235E-3,1.258754730E-2
2.280175584E1,1.666400582E-3,3.328930587E-3,-8.963584900E-3
2.281175584E1,-3.024045378E-3,-1.466028392E-3,-1.780509949E-3
2.282175584E1,-1.262102649E-2,-3.859236836E-3,-4.175186157E-3
2.283175584E1,-7.250197232E-4,-1.099745557E-2,-1.781463623E-3
