"Time (s)","Linear Acceleration x (m/s^2)","Linear Acceleration y (m/s^2)","Linear Acceleration z (m/s^2)","Absolute acceleration (m/s^2)"
0.000000000E0,-4.807336771E-2,-1.349818541E-2,-7.919550193E-2,9.362252516E-2
1.001400000E-2,-4.858905444E-3,2.213340602E-2,-5.975406263E-2,6.390653038E-2
2.001200005E-2,-4.632084012E-3,2.233417109E-2,-5.975586247E-2,6.396119527E-2
3.002300003E-2,-3.945427948E-2,1.185063990E-2,-6.242217910E-2,7.479041569E-2
4.001900001E-2,-1.994250914E-2,3.613461644E-3,-4.211752632E-2,4.674020538E-2
5.001700000E-2,-1.991677454E-2,3.977787433E-3,-4.211299930E-2,4.675473677E-2
6.002000003E-2,-1.454710167E-2,6.379854743E-3,-4.499472187E-2,4.771630445E-2
7.000900002E-2,-3.726003414E-2,1.505307312E-2,-7.353450410E-3,4.085313192E-2
8.000700001E-2,-3.781255491E-2,1.552206207E-2,-7.336547161E-3,4.152768527E-2
9.001700004E-2,-3.931143325E-3,3.130676005E-2,-6.679272156E-2,7.387039167E-2
1.000060000E-1,-8.746947824E-4,-1.848087025E-4,-4.013631607E-2,4.014627147E-2
1.100040000E-1,-9.022382231E-4,1.262113594E-4,-4.013157891E-2,4.014191810E-2
1.200140000E-1,-1.322583193E-2,9.574738544E-3,-3.506980192E-2,3.868448339E-2
1.300090000E-1,-1.169846725E-2,1.663280692E-2,-3.734445560E-2,4.252190925E-2
1.400070000E-1,-1.141373526E-2,1.673180531E-2,-3.734848470E-2,4.248689175E-2
1.500120000E-1,-4.745373815E-3,4.102607500E-3,-5.052900185E-2,5.091689297E-2
1.599980000E-1,-2.771923811E-5,1.317097431E-2,-4.095642004E-2,4.302213007E-2
1.699960000E-1,2.026493304E-4,1.342561713E-2,-4.095733824E-2,4.310210920E-2
1.800090000E-1,-1.784155202E-2,1.125271984E-2,-3.259387611E-2,3.882403176E-2
1.899970000E-1,-2.953193367E-2,9.177514030E-4,8.126876585E-3,3.064349029E-2
1.999950000E-1,-3.008171584E-2,1.648979624E-3,8.146990094E-3,3.120900846E-2
2.100060000E-1,-7.578592767E-3,5.483302423E-3,-2.805929870E-2,2.957745624E-2
2.199870000E-1,3.691249940E-2,1.299304537E-2,-1.130774580E-1,1.196572745E-1
2.299850000E-1,-3.482632021E-2,2.112971593E-1,1.596727158E-2,2.147424407E-1
2.400040000E-1,-6.854679489E-2,7.827047058E-1,-5.949316717E-2,7.879497170E-1
2.500040000E-1,1.510641229E-1,8.554676767E-1,-1.177552579E-1,8.766479429E-1
2.600020000E-1,1.909544585E-1,2.772781274E-1,-3.333441684E-2,3.383163438E-1
2.700010000E-1,-3.720073516E-1,-4.315671359E-2,1.606963897E-2,3.748469085E-1
2.800010000E-1,1.322182271E-1,7.090389980E-1,-2.208874335E-2,7.215995238E-1
2.899990000E-1,2.030570802E-1,9.977580616E-1,-1.020153117E-1,1.023308581E0
2.999990000E-1,5.404114016E-1,1.599321216E0,-8.897953824E-2,1.690499983E0
3.099980000E-1,2.478157253E-1,2.307289662E0,1.171800472E-1,2.323516598E0
3.199960000E-1,-5.312777218E-1,1.379744381E0,-4.531508991E-2,1.479190330E0
3.299950000E-1,-4.527086120E-1,-1.348398627E-1,-1.175696819E-1,4.867745947E-1
3.399950000E-1,-1.544791321E-2,-9.668095531E-1,7.514021119E-2,9.698481332E-1
3.499930000E-1,1.941045728E-1,-1.263141545E0,-2.159789517E-1,1.296090296E0
3.599930000E-1,-2.288654476E-1,-4.056534364E-1,-1.459471331E-1,4.880928900E-1
3.699930000E-1,-3.214293016E-1,9.112987921E-1,1.928064315E-2,9.665164394E-1
3.799910001E-1,-3.762763306E-1,1.228729950E0,-2.193916061E-1,1.303646365E0
3.899900001E-1,1.804644439E-1,6.411560402E-1,1.072108917E-1,6.746426156E-1
3.999900000E-1,2.361543308E-1,5.564049251E-1,-5.330369754E-2,6.067920507E-1
4.099880000E-1,4.225919065E-1,1.750104718E-1,-2.896280316E-2,4.583136793E-1
4.199880000E-1,2.715738944E-1,6.071469164E-2,1.945445210E-1,3.395382520E-1
4.299870000E-1,1.171075326E-1,4.286197281E-1,6.313098955E-2,4.487923432E-1
4.399850000E-1,1.333800048E-1,4.327886832E-1,6.295412041E-2,4.572302388E-1
4.499850000E-1,1.272854063E-1,9.322356979E-1,-2.114865177E-1,9.643606785E-1
4.599860000E-1,-2.100987176E-1,9.504668047E-1,-9.715586434E-2,9.782473511E-1
4.699840000E-1,2.749519771E-1,1.237626197E0,1.232012449E-1,1.273772248E0
4.799830000E-1,-2.230839583E-1,1.135870538E0,1.879855164E-1,1.172734789E0
4.899820000E-1,-3.650881585E-1,7.941364510E-1,1.123163972E-1,8.812247383E-1
4.999800000E-1,-3.132584025E-1,7.801767352E-1,-1.088148378E-1,8.477306375E-1
5.099680000E-1,-5.111935593E-1,6.328855191E-1,-1.452285194E-1,8.264104660E-1
5.199790000E-1,-3.531412006E-1,6.249416381E-1,-1.892805102E-1,7.423529283E-1
5.299770000E-1,-2.037782246E-1,8.871063758E-1,-1.879754117E-1,9.294181203E-1
5.399670000E-1,-1.973403306E-1,1.499241588E0,5.033201921E-2,1.513010859E0
5.499780001E-1,-6.896946179E-2,1.396955514E0,4.516519562E-2,1.399386076E0
5.599760000E-1,6.942511520E-2,1.053749171E0,-1.821433805E-1,1.071626509E0
5.699660000E-1,5.154005579E-1,6.193636867E-1,-3.161366944E-1,8.655585024E-1
5.799750000E-1,6.191188346E-1,2.285765403E-1,-2.993480043E-1,7.246824089E-1
5.899730001E-1,3.685800426E-1,6.173947830E-1,-1.766961510E-1,7.404384483E-1
5.999510000E-1,7.094787634E-2,7.849017240E-1,-5.465441441E-1,9.590697675E-1
6.099720000E-1,-8.690630743E-2,5.539138651E-1,-1.083041109E-1,5.710543377E-1
6.199700000E-1,-8.556203255E-2,6.206653500E-1,6.617354482E-3,6.265701298E-1
6.299630000E-1,1.134994899E-1,7.068797674E-1,-5.772481498E-3,7.159570248E-1
6.399690000E-1,5.702589798E-2,3.737125093E-1,-1.302890410E-2,3.782627988E-1
6.499670000E-1,3.216183997E-2,2.528440933E-1,-5.424118437E-1,5.993122121E-1
6.599620000E-1,-1.141676622E-1,9.326148167E-1,-2.623244352E-2,9.399429730E-1
6.699470000E-1,4.644058756E-2,-1.493025852E-1,-3.437870443E-2,1.600933648E-1
6.799450000E-1,4.800767790E-2,-2.835345020E-1,2.781163075E-1,4.000565353E-1
6.899610001E-1,7.642724731E-2,1.006841748E-1,-3.519356875E-2,1.312136215E-1
6.999640000E-1,5.142836872E-3,8.812712383E-2,-7.867605904E-2,1.182487251E-1
7.099620000E-1,-4.333807503E-1,-3.711700668E-1,2.915266408E-1,6.407603885E-1
7.199480000E-1,-7.495450728E-1,-2.540443074E-1,-1.657603046E-1,8.085992857E-1
7.299610000E-1,-7.492837753E-1,-5.602017780E-1,-1.206193703E-1,9.432927650E-1
7.399590000E-1,-6.803387439E-1,-2.377647819E-1,-2.988034641E-1,7.801771646E-1
7.499370000E-1,9.804949248E-2,-6.319683240E-3,1.513162224E-2,9.941130400E-2
7.599590000E-1,4.095563798E-1,5.216185601E-1,1.147360846E-1,6.730428809E-1
7.699570000E-1,4.202050366E-1,5.236910326E-1,1.146488150E-1,6.811526416E-1
7.799550000E-1,2.726356757E-1,6.336150324E-1,5.411549481E-1,8.767250988E-1
7.899570000E-1,2.983715741E-1,9.583046318E-1,2.162325016E-1,1.026708263E0
7.999550001E-1,4.682079704E-3,6.964258960E-1,-1.711634425E-1,7.171665598E-1
8.099540001E-1,2.532111157E-2,5.421093234E-1,-5.331825620E-1,7.607938759E-1
8.199540000E-1,-9.335972403E-2,2.671279275E-1,-5.163744482E-1,5.888258983E-1
8.299520000E-1,-7.401782444E-2,2.668506598E-1,-5.165131368E-1,5.860663218E-1
8.399510000E-1,-1.168340382E-1,2.732160164E-2,-2.048733031E-2,1.217226072E-1
8.499400000E-1,5.252094814E-1,9.497465190E-2,-1.982244113E-1,5.693488396E-1
8.599380000E-1,6.142837720E-1,1.709421071E-1,-3.171845885E-1,7.121599677E-1
8.699490000E-1,6.358654064E-1,-7.889652648E-2,-4.721994831E-2,6.424789494E-1
8.799490000E-1,4.538366130E-1,9.746489882E-2,-3.463634006E-1,5.791672324E-1
8.899470000E-1,4.312444335E-1,9.029075808E-2,-3.464043311E-1,5.604642210E-1
8.999470000E-1,1.583820138E-1,1.629519600E-1,-3.426038237E-1,4.111150490E-1
9.099460000E-1,8.113926259E-2,1.369360165E-1,2.308887121E-1,2.804365346E-1
9.199440000E-1,2.599897928E-1,3.128722304E-1,6.195260201E-1,7.411452047E-1
9.299430000E-1,5.738136210E-1,4.175702812E-1,8.600774753E-1,1.115060660E0
9.399420000E-1,2.641669888E-1,5.091355587E-1,-3.570867921E-1,6.756583398E-1
9.499400000E-1,2.761881516E-1,5.104553849E-1,-3.571251645E-1,6.814565123E-1
9.599410000E-1,-3.224393350E-1,-8.679075183E-2,-1.931442042E-1,3.857517893E-1
9.699320000E-1,-1.494896047E-1,-5.180239112E-1,-4.787042364E-1,7.210087798E-1
9.799300000E-1,-1.396308428E-1,-3.615807154E-2,-4.873853052E-1,5.082800548E-1
9.899390001E-1,-1.930240622E-1,-2.748586409E-1,-1.444145505E-1,3.655969412E-1
9.999340000E-1,-3.909998754E-1,-1.322555579E-1,-1.015884855E-2,4.128869547E-1
1.009932000E0,-4.117467833E-1,-1.457678520E-1,-1.015527398E-2,4.369059508E-1
1.019937000E0,-5.773432196E-1,-4.441805211E-1,8.835674217E-1,1.145125721E0
1.029935000E0,-2.168187033E-1,1.495810497E-1,-3.364339879E-1,4.272852311E-1
1.039933000E0,-2.299404034E-1,1.477274275E-1,-3.363242064E-1,4.333704579E-1
1.049933000E0,-3.186911967E-1,-8.409404156E-1,8.743506932E-2,9.035428893E-1
1.059931000E0,-2.852437162E-1,-5.244880081E-1,-3.245778080E-1,6.795604474E-1
1.069929000E0,-2.890845694E-1,-5.251627768E-1,-3.245456117E-1,6.816859134E-1
1.079931000E0,-2.488669633E-1,-2.670653805E-1,-1.894099164E-1,4.112600143E-1
1.089927000E0,4.753408997E-2,2.854636080E-1,-8.152381752E-2,3.006577690E-1
1.099925000E0,5.020111010E-2,2.834214862E-1,-8.157290672E-2,2.991688978E-1
1.109929000E0,2.956590508E-1,2.753989419E-1,2.950131801E-2,4.051285960E-1
1.119898000E0,-1.543874336E-1,-4.131190152E-1,-4.503026655E-2,4.433176347E-1
1.129896000E0,-1.605387044E-1,-4.162119364E-1,-4.499260226E-2,4.483630068E-1
1.139925000E0,-3.771276852E-1,-6.501828256E-1,-1.192646527E-1,7.610433989E-1
1.149897000E0,-2.433063709E-1,8.545493715E-2,-5.790866309E-2,2.642989778E-1
1.159895000E0,-2.385024264E-1,8.583866067E-2,-5.794360021E-2,2.600175838E-1
1.169923000E0,1.461717667E-1,2.409812987E-1,1.944274487E-1,3.424035696E-1
1.179896000E0,2.818994926E-1,-5.075533021E-1,-1.205247916E-1,5.929619750E-1
1.189894000E0,2.892619045E-1,-5.037571801E-1,-1.205152168E-1,5.932686266E-1
1.199920000E0,4.924675954E-1,-3.508718231E-1,-8.125511055E-2,6.101129090E-1
1.209895000E0,4.368425943E-1,-2.733738684E-1,-1.422214700E-1,5.345948659E-1
1.219893000E0,4.396068655E-1,-2.759064620E-1,-1.422895992E-1,5.381680983E-1
1.229903000E0,3.866942417E-1,-2.996669151E-1,-4.816400069E-3,4.892401192E-1
1.239896000E0,1.262858156E-1,-3.106398000E-1,2.359818197E-1,4.100397686E-1
1.249894000E0,1.330985162E-1,-3.096238828E-1,2.359549956E-1,4.114084634E-1
1.259915000E0,1.422882356E-2,6.075603785E-2,-1.340996052E-1,1.479069291E-1
1.269890000E0,7.271830360E-2,1.491687114E-1,2.378613158E-1,2.900297600E-1
1.279888000E0,2.288177928E-1,4.318930725E-1,-1.570547849E-2,4.890152047E-1
1.289912000E0,-1.006672361E-1,2.548902898E-1,-6.139702972E-2,2.808425672E-1
1.299891000E0,-3.984904876E-1,-1.749961461E-1,-5.862761594E-3,4.352616361E-1
1.309889000E0,-5.445413996E-1,-7.006622037E-1,2.418907234E-1,9.197630030E-1
1.319911000E0,-3.449836770E-1,-3.210007738E-1,-3.903751370E-1,6.119215487E-1
1.329910000E0,-5.270768263E-1,-1.135662121E-1,9.301611332E-3,5.392529882E-1
1.339908000E0,-4.496811065E-1,3.237908093E-1,7.576238235E-2,5.592794688E-1
1.349908000E0,-1.583590634E-1,7.763166958E-1,-4.175721678E-3,7.923147366E-1
1.359908000E0,1.399366065E-1,6.368698119E-1,1.001487160E-1,6.597084026E-1
1.369906000E0,3.927901101E-1,3.087844419E-1,-1.568857661E-1,5.236841088E-1
1.379906000E0,8.058265334E-2,-1.375739066E-2,2.185308411E-1,2.333207199E-1
1.389905000E0,1.810262335E-2,-7.472208045E-2,-1.452388982E-1,1.643332950E-1
1.399903000E0,-1.805688287E-3,-1.512448658E-1,1.592109297E-1,2.196050775E-1
1.409903000E0,8.024237280E-2,1.148760615E-1,-9.855665621E-2,1.713148049E-1
1.419902000E0,1.488057820E-1,-2.709740797E-1,-1.428758465E-1,3.405636801E-1
1.429900000E0,2.710550089E-1,-2.323581905E-1,-9.814790843E-2,3.702622833E-1
1.439900000E0,3.934653905E-1,-2.701409977E-1,2.777030190E-1,5.521866884E-1
1.449900000E0,3.655448992E-1,-1.689343171E-2,-4.216778040E-2,3.683565977E-1
1.459898000E0,1.275395792E-3,-2.268719673E-1,5.000920265E-3,2.269306621E-1
1.469897000E0,-6.374606182E-2,-9.840206131E-2,-2.837218869E-1,3.069928911E-1
1.479898000E0,-4.818132376E-1,-5.829705982E-2,-1.934571216E-1,5.224635882E-1
1.489896000E0,-3.215437974E-1,3.039257895E-1,-1.746213396E-1,4.756615513E-1
1.499880000E0,-1.114550109E-1,3.556464767E-1,1.485497836E-1,4.012152466E-1
1.509895000E0,1.551573657E-1,2.414570428E-1,2.773859263E-2,2.883482983E-1
1.519893000E0,2.213182088E-1,-4.212605047E-2,-9.215523415E-2,2.434110533E-1
1.529889000E0,1.447656209E-1,-2.062614092E-1,-2.612715481E-2,2.533445917E-1
1.539893000E0,4.819185605E-1,-7.915120927E-2,-1.521750756E-1,5.115346191E-1
1.549891000E0,5.209585556E-1,-4.709293582E-2,-1.464882381E-1,5.432074790E-1
1.559877000E0,3.336233775E-1,-8.932160036E-2,-5.740635301E-3,3.454212807E-1
1.569890000E0,3.752575629E-1,2.358286409E-1,-1.362705028E-2,4.434175040E-1
1.579888000E0,1.017384277E-1,4.021571669E-1,1.129983333E-2,4.149804583E-1
1.589862000E0,1.712622787E-1,4.218747821E-1,-1.171219314E-1,4.701347112E-1
1.599888000E0,2.261323128E-1,1.833169259E-2,9.936202794E-2,2.476785951E-1
1.609886000E0,5.124384681E-2,2.658408457E-1,7.596598080E-4,2.707357829E-1
1.619862000E0,-1.170789178E-1,6.080673046E-1,-1.949750862E-2,6.195429548E-1
1.629885000E0,-2.984666828E-1,3.296601713E-1,1.780501720E-2,4.450564098E-1
1.639883000E0,-3.619659647E-1,-8.836082974E-2,-4.683507361E-2,3.755269896E-1
1.649860000E0,-1.871356785E-1,2.271456901E-1,-1.739125103E-3,2.943092782E-1
1.659882000E0,1.340007667E-3,3.053556347E-1,3.250857985E-2,3.070841367E-1
1.669880000E0,2.240148716E-1,3.403948141E-2,-4.979492961E-2,2.319932844E-1
1.679868000E0,1.838483715E-2,-4.855881269E-1,-2.296597873E-2,4.864784347E-1
1.689879000E0,2.793919872E-1,-4.421038093E-1,-1.162035622E-1,5.357414755E-1
1.699877000E0,2.366893876E-1,-2.198770529E-1,1.556305311E-2,3.234346815E-1
1.709878000E0,4.249329855E-1,-8.989876622E-2,-1.149352098E-1,4.492882513E-1
1.719877000E0,2.529867105E-1,1.873520072E-2,1.148652716E-1,2.784731837E-1
1.729875000E0,-8.026719606E-2,1.159592948E-1,-1.535125805E-1,2.084598119E-1
1.739863000E0,-2.580364756E-1,1.064987922E-1,-3.457592462E-2,2.812833270E-1
1.749874000E0,-1.340220931E-1,3.427437914E-1,-1.085131032E-1,3.836799728E-1
1.759872000E0,-8.444012089E-3,3.782574769E-1,1.944540170E-1,4.253967383E-1
1.769861000E0,6.787896064E-2,2.613251507E-1,-1.818738970E-2,2.706088853E-1
1.779871000E0,1.634928640E-1,4.231240762E-1,-8.016385566E-2,4.606410145E-1
1.789869000E0,5.174190624E-2,5.834273206E-1,9.531792914E-2,5.934224220E-1
1.799841000E0,1.630047311E-1,1.104441242E0,-1.881657409E-3,1.116406978E0
1.809870000E0,2.509437847E-1,7.947090396E-1,-2.293452299E-1,8.643694089E-1
1.819868000E0,2.480478050E-1,7.961887506E-1,-2.292949438E-1,8.648817326E-1
1.829860000E0,3.160286305E-1,-1.502468557E-1,-6.937529053E-2,3.567367992E-1
1.839867000E0,2.148938181E-1,-6.304299809E-2,-1.994090572E-1,2.998628766E-1
1.849865000E0,2.113736116E-1,-6.061899830E-2,-1.993347793E-1,2.967959246E-1
1.859842000E0,1.876268149E-2,6.603593197E-1,1.607984419E-2,6.608214817E-1
1.869865000E0,9.310004713E-3,4.671931884E-1,6.720786245E-3,4.673342706E-1
1.879863000E0,7.889144443E-3,4.703799210E-1,6.786261927E-3,4.704950180E-1
1.889833000E0,1.239447093E-1,1.896334148E-2,-2.046485827E-1,2.400061284E-1
1.899863000E0,1.218997187E-1,-1.049119652E-2,1.264486971E-1,1.759513559E-1
1.909861000E0,1.248900579E-1,-8.136952754E-3,1.264566914E-1,1.779186088E-1
1.919849000E0,8.716674607E-2,3.017067894E-1,-4.897073715E-2,3.178414093E-1
1.929846000E0,-1.855847228E-1,2.641550568E-1,-7.882889978E-2,3.323154809E-1
1.939844000E0,-1.800909896E-1,2.734118205E-1,-7.871364567E-2,3.367233674E-1
1.949857000E0,-2.196255860E-1,7.271562668E-2,8.113615626E-2,2.451653243E-1
1.959857000E0,6.515726134E-4,-4.712493563E-2,-6.943884246E-2,8.392220771E-2
1.969855000E0,5.392027044E-3,-4.117943650E-2,-6.935305284E-2,8.083728029E-2
1.979855000E0,4.823844648E-2,-1.258938055E-1,-5.112186841E-2,1.441861415E-1
1.989854000E0,-5.916142448E-2,1.073496443E-1,-2.291118529E-1,2.598389144E-1
1.999852000E0,-5.987093385E-2,1.115726131E-1,-2.290108423E-1,2.616848153E-1
2.009852000E0,-1.729244228E-1,1.957367682E-1,-1.169789121E-1,2.861814185E-1
2.019852000E0,-2.983938666E-1,1.223541204E-1,-1.739842306E-1,3.664422778E-1
2.029850000E0,-2.977450632E-1,1.287758342E-1,-1.738424539E-1,3.680442051E-1
2.039836000E0,-1.411823558E-1,-1.581143026E-1,1.697847055E-1,2.715868858E-1
2.049849000E0,1.239658415E-1,-1.144735355E-1,-5.222064702E-2,1.766315831E-1
2.059847000E0,1.243190864E-1,-1.015592563E-1,-5.188712732E-2,1.687062292E-1
2.069848000E0,4.632360122E-1,-2.280257143E-1,-2.227317361E-3,5.163218863E-1
2.079829000E0,3.739403314E-1,-5.094814580E-1,2.837239152E-1,6.927495851E-1
2.089827000E0,3.670635307E-1,-4.991844382E-1,2.841247967E-1,6.816506722E-1
2.099845000E0,5.393535672E-1,1.103776957E-2,-7.953961605E-1,9.610822831E-1
2.109828000E0,2.279988171E-1,-3.794582757E-1,4.315312760E-1,6.182162128E-1
2.119826000E0,2.237078562E-1,-3.781384861E-1,4.316139410E-1,6.158932648E-1
2.129842000E0,2.568714727E-1,-1.179363845E-1,-3.572613817E-2,2.849005111E-1
2.139826000E0,-7.278094190E-2,-5.036722858E-1,-7.235063251E-2,5.140208663E-1
2.149824000E0,-6.791353687E-2,-5.083238921E-1,-7.256169416E-2,5.179484793E-1
2.159839000E0,5.721369684E-1,-4.819924913E-1,-2.128076047E-1,7.777818132E-1
2.169818000E0,7.598412886E-1,1.330123886E0,-1.078468678E-1,1.535649466E0
2.179816000E0,7.492110506E-1,1.339749718E0,-1.075035997E-1,1.538766886E0
2.189807000E0,4.146732416E-1,4.837511145E-1,-2.036115973E-1,6.688996342E-1
2.199824000E0,-1.874838071E-1,-1.134311871E-1,-5.754456428E-2,2.265572532E-1
2.209822000E0,-1.700304713E-1,-1.106544175E-1,-5.755420762E-2,2.108725874E-1
2.219834000E0,4.255398443E-2,-2.592175766E-2,1.127499591E-1,1.232693489E-1
2.229823000E0,4.102027895E-1,-4.821623894E-1,-7.762178048E-1,1.001629162E0
2.239821000E0,4.215094407E-1,-4.925527820E-1,-7.765669566E-1,1.011600064E0
2.249832000E0,3.878631001E-1,-6.427467752E-1,-8.817972502E-1,1.158070633E0
2.259827000E0,3.034864626E-1,-3.205489668E-1,3.344624164E-1,5.538237816E-1
2.269825000E0,2.939591738E-1,-3.259551562E-1,3.343302328E-1,5.517567075E-1
2.279829000E0,-1.556171944E-1,-5.701810748E-1,8.526773123E-1,1.037488201E0
2.289801000E0,-3.144131545E-1,2.253381878E-1,3.557503013E-1,5.255389686E-1
2.299799000E0,-3.404756930E-1,2.159743288E-1,3.556814138E-1,5.376596287E-1
2.309827000E0,-4.996522885E-1,-6.873977128E-2,-5.520590643E-2,5.073709271E-1
2.319819000E0,-5.591823160E-1,-3.783053510E-1,-1.092972696E-1,6.839193624E-1
2.329817000E0,-6.113917756E-1,-6.581025868E-1,-2.045887401E-1,9.212792577E-1
2.339825000E0,-5.597335257E-1,-7.377381556E-1,-3.980167169E-1,1.007956603E0
2.349824000E0,-5.845255739E-1,-2.464949124E-1,-8.292753300E-2,6.397709466E-1
2.359822000E0,-2.101070636E-2,-6.056212042E-2,6.363679746E-1,6.395884765E-1
2.369822000E0,-2.284463530E-2,3.756642368E-1,-1.800614063E-1,4.172141011E-1
2.379822000E0,-4.642951256E-1,-1.881900045E-1,2.039394982E-1,5.409036517E-1
2.389820000E0,-2.944319943E-1,-5.992685973E-1,-8.825740711E-2,6.735001268E-1
2.399820000E0,1.653907605E-1,-1.483903739E-1,-3.691530332E-1,4.308686211E-1
2.409820000E0,1.768297781E-1,-1.497603217E-1,-3.692699410E-1,4.359555180E-1
2.419818000E0,1.404024560E-1,2.382699813E-1,4.821939278E-1,5.558744622E-1
2.429817000E0,-2.527837938E-1,-2.041701708E-1,3.063470849E-1,4.465799386E-1
2.439817000E0,-2.522579282E-1,-2.048257351E-1,3.063267110E-1,4.465688054E-1
2.449815000E0,-1.686991151E-1,-4.329170296E-1,-8.007513329E-2,4.714748911E-1
2.459815000E0,-1.837331837E-1,-4.967418369E-1,-1.315598763E-1,5.457273462E-1
2.469814000E0,-1.759499001E-1,-4.983755490E-1,-1.316297139E-1,5.446677306E-1
2.479812000E0,-8.687317359E-3,-5.962648460E-1,1.011055306E-1,6.048384614E-1
2.489812000E0,4.346994802E-1,-1.749409448E-1,2.916764985E-2,4.694877251E-1
2.499811000E0,4.379917549E-1,-1.752294683E-1,2.914612479E-2,4.726432487E-1
2.509809000E0,2.935258403E-1,7.332077238E-2,-2.999141062E-2,3.040276950E-1
2.519789000E0,-2.288332331E-1,-4.120404962E-1,1.036465843E-1,4.825812196E-1
2.529810000E0,-2.265181194E-1,-4.134311103E-1,1.035992128E-1,4.826681451E-1
2.539808000E0,-9.843535390E-2,4.586110108E-1,-3.843203543E-2,4.706278779E-1
2.549794000E0,2.727002509E-1,-1.700811959E-1,3.518472940E-2,3.233125504E-1
2.559807000E0,2.736510630E-1,-1.712286755E-1,3.515325722E-2,3.247151291E-1
2.569805000E0,2.429517738E-1,-8.807337879E-1,1.806801057E-2,9.138074318E-1
2.579773000E0,2.122527587E-1,-8.883217927E-1,-1.340489446E-1,9.231121062E-1
2.589789000E0,-3.237775754E-2,-1.055825061E-1,-6.177054347E-2,1.265368911E-1
2.599787000E0,-3.157759577E-2,-1.076712686E-1,-6.182430130E-2,1.281112441E-1
2.609791000E0,-2.106182975E-1,-3.039659343E-1,-1.615751600E-1,4.035615055E-1
2.619802000E0,1.007407009E-1,-2.409209810E-1,-7.198047635E-2,2.708741348E-1
2.629800000E0,1.080088448E-1,-1.380342241E-1,-5.556944336E-2,1.838676714E-1
2.639799000E0,2.484197793E-1,-3.484973054E-1,1.383330168E-2,4.281986908E-1
2.649800000E0,1.929676183E-1,3.737800446E-1,-2.287966332E-1,4.788485385E-1
2.659798000E0,-1.893680460E-3,5.492622588E-1,1.529417369E-1,5.701611964E-1
2.669789000E0,2.187778311E-1,2.878144263E-1,-1.862559466E-1,4.066843506E-1
2.679797000E0,1.869984699E-1,3.912518904E-1,-7.041711361E-2,4.393233882E-1
2.689795000E0,1.936686994E-1,7.293884042E-5,3.020461837E-1,3.588028255E-1
2.699788000E0,-6.006910421E-2,-7.485264147E-1,-1.240866504E-1,7.611160146E-1
2.709794000E0,4.429610477E-1,-5.698229694E-1,4.164090972E-1,8.332522082E-1
2.719792000E0,2.376107443E-2,-9.114117164E-2,-1.628768050E-1,1.881492903E-1
2.729786000E0,-4.255720862E-1,-4.266127078E-1,5.364446345E-3,6.026099736E-1
2.739771000E0,-2.858540924E-1,-2.549753230E0,3.505130234E-1,2.589558548E0
2.749769000E0,9.629227627E-2,1.158982096E-1,-1.421196736E-1,2.071294260E-1
2.759785000E0,1.712390109E-2,8.870259949E-2,-9.200959851E-3,9.080769134E-2
2.769789000E0,1.409201356E-1,9.093921429E-2,-7.865619678E-2,1.852436844E-1
2.779787000E0,3.799834790E-2,9.014923719E-2,-4.318034456E-2,1.069359695E-1
2.789784000E0,8.034805208E-2,8.896577901E-2,-7.341351014E-2,1.405712018E-1
2.799786000E0,3.611162272E-2,7.989739621E-2,-3.329609473E-2,9.378844887E-2
2.809784000E0,7.599482287E-2,8.276001027E-2,-3.074778451E-2,1.164897363E-1
2.819771000E0,7.286345160E-2,6.820646410E-2,-5.738950343E-2,1.151293161E-1
2.829784000E0,6.041655673E-2,9.696446853E-2,-6.053040384E-2,1.292911376E-1
2.839782000E0,6.033417037E-2,9.702799304E-2,-6.052879586E-2,1.292995695E-1
2.849781000E0,6.109926027E-2,6.555993207E-2,-3.657573404E-2,9.679363935E-2
2.859781000E0,7.044736838E-2,6.268210611E-2,-6.097238482E-2,1.122920739E-1
2.869779000E0,7.036356591E-2,6.279797235E-2,-6.096976271E-2,1.123028437E-1
2.879779000E0,8.249110230E-2,7.285501425E-2,-2.608383974E-2,1.131061526E-1
2.889779000E0,7.094244026E-2,9.388166112E-2,-6.440058452E-2,1.341418332E-1
2.899777000E0,7.023549361E-2,9.384327963E-2,-6.439778425E-2,1.337410196E-1
2.909777000E0,3.140970302E-2,7.859204186E-2,-8.862632987E-2,1.225475615E-1
2.919777000E0,1.013705831E-1,8.516215609E-2,-1.207898897E-1,1.792171460E-1
2.929775000E0,9.987678392E-2,8.533643053E-2,-1.207777842E-1,1.784515382E-1
2.939774000E0,4.153655977E-2,1.045841854E-1,2.519788835E-2,1.153172633E-1
2.949774000E0,8.290046222E-2,8.647862015E-2,-5.849951967E-2,1.333162863E-1
2.959772000E0,8.062290777E-2,8.670760260E-2,-5.847868439E-2,1.320530883E-1
2.969772000E0,4.994169472E-2,8.194130871E-2,-2.268870193E-2,9.860693759E-2
2.979771000E0,6.045473722E-2,1.014530379E-1,-8.084945996E-2,1.431227771E-1
2.989769000E0,6.445331910E-2,1.016545750E-1,-8.087584552E-2,1.450130524E-1
2.999770000E0,4.450214877E-2,8.602129480E-2,-1.839874713E-2,9.858305280E-2
3.009769000E0,7.256553596E-2,8.822162032E-2,-2.086637149E-2,1.161215603E-1
3.019767000E0,7.373492884E-2,8.827529593E-2,-2.087365082E-2,1.168977198E-1
3.029767000E0,1.574322386E-2,5.372941139E-2,-4.743565975E-3,5.618896835E-2
3.039766000E0,4.703877599E-2,5.809964321E-2,-4.878334760E-2,8.926382240E-2
3.049764000E0,4.778617806E-2,5.799619317E-2,-4.879045105E-2,8.959679319E-2
3.059764000E0,3.513865060E-2,5.495396909E-2,-2.950753753E-2,7.159160744E-2
3.069764000E0,5.155294068E-2,6.974251395E-2,-5.288967356E-2,1.015826831E-1
3.079762000E0,5.183082503E-2,6.984782321E-2,-5.289002074E-2,1.017964004E-1
3.089762000E0,4.886613595E-2,4.611962567E-2,-4.002715586E-2,7.821184258E-2
3.099761000E0,2.504598865E-2,5.462248222E-2,-6.489557873E-2,8.844406848E-2
3.109759000E0,1.292364394E-2,4.373685788E-2,1.099166336E-2,4.691215166E-2
3.119760000E0,1.252300917E-2,-1.030283966E-2,-4.224999773E-2,4.525523806E-2
3.129753000E0,-3.798543378E-2,-6.330575278E-2,-2.287800326E-2,7.729110264E-2
3.139751000E0,-2.070958252E-1,-2.015362194E-1,4.802760868E-2,2.929371601E-1
3.149757000E0,-6.719739365E-1,-9.311911659E-1,3.658188504E-2,1.148914354E0
3.159735000E0,-6.284147380E-1,-1.396376932E0,-1.348906421E-1,1.537195207E0
3.169733000E0,-6.264140401E-1,-1.396151960E0,-1.349086497E-1,1.536175508E0
3.179755000E0,-6.189954583E-1,-1.001651211E0,-6.731863292E-2,1.179403376E0
3.189753000E0,2.188480708E-1,2.085912688E-1,1.717552538E-1,3.477134779E-1
3.199751000E0,2.270343189E-1,2.168016002E-1,1.718549305E-1,3.578849437E-1
3.209752000E0,1.026488210E-1,-1.827621621E-1,1.374192340E-1,2.506448368E-1
3.219745000E0,3.452520642E-1,-9.056047735E-1,4.536501051E-2,9.702458336E-1
3.229743000E0,3.437570042E-1,-8.956944738E-1,4.558419430E-2,9.604766458E-1
3.239749000E0,1.769805632E-1,-9.255938456E-1,-4.051610643E-1,1.025768773E0
3.249720000E0,9.957040809E-2,-8.546537443E-1,9.516884342E-2,8.656814642E-1
3.259718000E0,1.043346189E-1,-8.506967141E-1,9.523647926E-2,8.623459858E-1
3.269747000E0,-8.032471804E-2,-1.120806722E0,3.076091333E-2,1.124102309E0
3.279724000E0,-5.235199924E-2,-8.049191552E-1,-1.281977181E-1,8.167436765E-1
3.289722000E0,-4.869662608E-2,-8.021504986E-1,-1.281426538E-1,8.137796529E-1
3.299733000E0,1.444464086E-1,-3.465046006E-3,1.010600411E-1,1.763232923E-1
3.309741000E0,-1.929813958E-1,3.018637140E-1,-6.774405441E-2,3.646269023E-1
3.319739000E0,-1.872671312E-1,3.026329335E-1,-6.773698293E-2,3.622760960E-1
3.329742000E0,-1.270904473E-1,-3.204018362E-1,-1.077046891E-1,3.611227194E-1
3.339738000E0,-1.490133673E-1,-5.378131548E-1,-3.959797937E-2,5.594783043E-1
3.349736000E0,-1.387415453E-1,-5.378697631E-1,-3.959264379E-2,5.568847959E-1
3.359739000E0,5.263964571E-2,-4.285452857E-1,-2.668132194E-1,5.075542219E-1
3.369737000E0,3.446586449E-1,-1.479341906E-1,-3.757235997E-2,3.769426859E-1
3.379735000E0,3.473181047E-1,-1.448124809E-1,-3.748895492E-2,3.781612649E-1
3.389737000E0,4.267888917E-1,9.683066779E-2,-1.769208485E-1,4.720444078E-1
3.399708000E0,3.980379862E-1,3.528930229E-1,1.558909172E-1,5.543191338E-1
3.409706000E0,2.459813624E-1,-1.853679624E-2,2.033836478E-3,2.466872108E-1
3.419735000E0,2.639032246E-1,-1.880901816E-1,1.177453176E-1,3.447996348E-1
3.429710000E0,2.843504444E-1,-4.906132606E-1,2.572278422E-1,6.226738387E-1
3.439708000E0,2.834743670E-1,-4.897326333E-1,2.572476131E-1,6.215883713E-1
3.449732000E0,4.709038315E-1,-1.964085219E-2,-1.819445090E-2,4.716643082E-1
3.459712000E0,4.732511597E-1,-2.161741665E-2,-1.823612145E-2,4.740954851E-1
3.469710000E0,6.155082520E-1,5.720532802E-1,1.264112567E-1,8.497500629E-1
3.479730000E0,-3.957296151E-1,1.076784277E0,-7.187569242E-2,1.149448748E0
3.489723000E0,-3.967931871E-1,1.078737394E0,-7.182981919E-2,1.151641750E0
3.499721000E0,-6.008526811E-1,1.209810334E0,7.538977310E-3,1.350822647E0
3.509727000E0,-3.882687506E-1,6.923628120E-1,-3.057800283E-2,7.943890108E-1
3.519709000E0,-3.871116963E-1,6.941792496E-1,-3.052574106E-2,7.954068876E-1
3.529707000E0,6.036257962E-2,3.020255175E-1,-9.344450752E-3,3.081401840E-1
3.539724000E0,1.813790581E-1,-6.261771365E-2,-8.189925444E-2,2.086308430E-1
3.549708000E0,1.062381069E-1,-3.303415912E-1,-9.727063422E-2,3.603799085E-1
3.559706000E0,9.143306647E-2,-2.917779431E-1,3.252592507E-3,3.057857961E-1
3.569721000E0,-2.142789286E-1,-2.106236742E-2,-6.286232826E-2,2.243005905E-1
3.579707000E0,-5.575495907E-1,1.470322119E-1,-6.307433094E-2,5.800503328E-1
3.589705000E0,-3.354886758E-1,2.922933569E-1,-2.817474010E-3,4.449674103E-1
3.599720000E0,6.308623551E-2,2.337749480E-2,4.379603810E-2,8.027747708E-2
3.609702000E0,1.477023667E-1,-8.443002257E-1,-8.917249636E-2,8.617485679E-1
3.619700000E0,2.473510179E-1,-9.994896414E-1,-1.876548290E-2,1.029812708E0
3.629689000E0,3.538951260E-1,-7.020393692E-1,2.326009596E-2,7.865380272E-1
3.639704000E0,3.996606251E-1,-1.648810204E-2,9.667313558E-3,4.001173949E-1
3.649702000E0,1.750237742E-1,8.546982562E-1,3.481110431E-3,8.724417166E-1
3.659687000E0,-3.902197838E-1,6.193329158E-1,-1.882001458E-1,7.558201076E-1
3.669714000E0,-1.021218845E0,3.297233486E-2,3.205125907E-2,1.022253583E0
3.679712000E0,-1.402771246E-1,1.925061085E-1,3.603157708E-1,4.319302353E-1
3.689686000E0,9.365928968E-1,7.518894408E-1,1.600402339E-2,1.201166148E0
3.699702000E0,7.566354065E-1,2.758284016E-1,-1.749642423E-1,8.241304093E-1
3.709700000E0,8.712708002E-1,-3.221983567E-1,-2.279692704E-1,9.565012162E-1
3.719685000E0,9.256579457E-1,-5.878610450E-1,-2.480553150E-1,1.124257390E0
3.729709000E0,6.768638168E-1,-4.579167270E-1,-1.205123845E-1,8.260481766E-1
3.739707000E0,4.187601896E-1,-2.101237327E-1,-4.959174800E-2,4.711384307E-1
3.749684000E0,-1.619554254E-2,-2.738766376E-1,-3.874514013E-2,2.770774154E-1
3.759707000E0,-2.356847811E-1,-1.426036769E-1,-1.051918116E-1,2.948702120E-1
3.769705000E0,-5.065736011E-1,6.469783778E-2,-5.714895903E-2,5.138760815E-1
3.779690000E0,-4.050873163E-1,-5.490037114E-2,-1.321090326E-2,4.090040495E-1
3.789703000E0,-2.161994968E-2,-2.418843098E-1,8.171563360E-2,2.562281919E-1
3.799701000E0,3.133422369E-1,-6.120712952E-1,-2.334569600E-2,6.880113730E-1
3.809681000E0,1.764422722E-1,-1.032010905E0,-1.731775890E-1,1.061211035E0
3.819702000E0,-1.626677670E-1,-3.303927908E-1,-1.235577241E-1,3.884413853E-1
3.829700000E0,-1.991220685E-1,3.198823842E-1,6.996981075E-2,3.832363661E-1
3.839679000E0,-2.112753784E-1,4.848185602E-1,-8.113030904E-2,5.350406049E-1
3.849696000E0,-2.110931645E-1,1.888335820E-1,-1.314744612E-1,3.122562725E-1
3.859694000E0,7.974996415E-2,7.545888810E-1,9.428149190E-2,7.646263374E-1
3.869682000E0,-2.264623516E-1,4.537862904E-1,7.488699478E-2,5.126551044E-1
3.879697000E0,-4.928992661E-1,-2.283873463E-1,-1.197899062E-1,5.562913698E-1
3.889695000E0,-5.021620597E-1,-1.181576560E-1,-1.467168391E-2,5.160845126E-1
3.899678000E0,-2.149163117E-1,8.041666551E-2,-6.832857498E-2,2.394256780E-1
3.909694000E0,-4.602302784E-2,-4.680647251E-2,9.147898653E-3,6.627706247E-2
3.919692000E0,-1.326498795E-1,-3.695445774E-1,-5.657233677E-2,3.966857881E-1
3.929692000E0,-1.623617566E-1,-4.383523820E-1,-7.950387860E-2,4.741677103E-1
3.939691000E0,-6.183500502E-4,-5.240288189E-1,-1.123872581E-1,5.359454088E-1
3.949689000E0,2.962926880E-1,-9.358126590E-1,1.817385774E-2,9.817662546E-1
3.959689000E0,2.486548373E-1,-1.110056177E0,-1.573435117E-1,1.148394934E0
3.969689000E0,1.086827090E-1,-6.193532348E-1,-1.335489254E-1,6.428418750E-1
3.979687000E0,1.096043032E-1,-6.160950201E-1,-1.334877855E-1,6.398477678E-1
3.989686000E0,4.445926401E-1,2.519626803E-1,2.482759926E-1,5.681450312E-1
3.999687000E0,-6.341332327E-2,7.875953901E-1,-1.554123774E-1,8.052830279E-1
4.009685000E0,-1.814234056E-1,7.413352165E-1,-7.197994645E-2,7.665986356E-1
4.019684000E0,4.025532518E-2,8.677383511E-1,3.580343699E-1,9.395631683E-1
4.029683000E0,5.549653132E-2,6.988513941E-1,8.023567591E-2,7.056280180E-1
4.039681000E0,5.454224288E-2,6.938692009E-1,8.015310226E-2,7.006096232E-1
4.049682000E0,5.943190388E-2,2.392786626E-2,-8.461135752E-2,1.061309371E-1
4.059681000E0,4.712046342E-1,-1.651858704E-1,-1.467600148E-1,5.204408526E-1
4.069679000E0,4.727449370E-1,-1.134473126E-1,-2.293490169E-2,4.867073843E-1
4.079679000E0,2.390142771E-1,1.610268145E-2,-2.816395473E-2,2.412059894E-1
4.089671000E0,-9.923200049E-2,4.560993393E-1,-5.161609061E-2,4.696145420E-1
4.099669000E0,-1.012303504E-1,4.581180905E-1,-5.158449737E-2,4.719965350E-1
4.109676000E0,-4.858356925E-2,1.059338890E0,4.087906321E-2,1.061240004E0
4.119654000E0,-4.510384279E-1,2.706735511E-1,-5.061729481E-2,5.284524059E-1
4.129652000E0,-7.939810612E-1,-1.223501736E-1,-1.098090015E-1,8.108227348E-1
4.139674000E0,-6.091020060E-1,1.599529231E-1,-8.547491818E-2,6.355282472E-1
4.149674000E0,-2.197267977E-1,3.079220142E-1,-1.136451769E-1,3.949823524E-1
4.159672000E0,-2.192905589E-1,3.073758842E-1,-1.136526778E-1,3.943161353E-1
4.169671000E0,-3.174227529E-1,-5.476633514E-3,-7.016663351E-2,3.251315949E-1
4.179652000E0,-2.024591842E-1,-2.110801910E-1,-2.568409804E-2,2.936055878E-1
4.189650000E0,-2.000449236E-1,-2.200660093E-1,-2.579236517E-2,2.985167768E-1
4.199670000E0,-7.092739738E-2,-4.891143999E-1,-2.219419057E-1,5.417765235E-1
4.209651000E0,5.726345025E-2,-3.148940331E-2,-9.288154056E-2,1.135678909E-1
4.219649000E0,5.393827119E-2,-2.623724235E-2,-9.282201773E-2,1.105154150E-1
4.229667000E0,2.820117774E-1,3.646648932E-1,-4.443667366E-2,4.631260572E-1
4.239640000E0,6.379424105E-1,1.573586048E-1,-6.975732842E-2,6.607558812E-1
4.249638000E0,6.396286013E-1,1.559133924E-1,-6.977339912E-2,6.620438511E-1
4.259665000E0,6.108647953E-1,-1.713962713E-1,-1.327591128E-1,6.481955430E-1
4.269643000E0,3.771705526E-1,-5.093367760E-1,-1.013021250E-1,6.418284020E-1
4.279641000E0,3.752678321E-1,-5.082456490E-1,-1.012897727E-1,6.398431086E-1
4.289662000E0,1.089485015E-1,-2.532897790E-1,-6.006949707E-2,2.821946714E-1
4.299647000E0,-3.187840213E-1,5.650364021E-1,9.141083792E-2,6.551681687E-1
4.309645000E0,-3.195324649E-1,5.673555175E-1,9.144128912E-2,6.575369105E-1
4.319660000E0,-4.936636068E-1,7.802689020E-2,-1.073174389E-1,5.111839052E-1
4.329653000E0,-4.426881289E-1,-9.692351061E-2,-1.315685534E-2,4.533652493E-1
4.339651000E0,-4.456461257E-1,-9.458180124E-2,-1.312450836E-2,4.557613840E-1
4.349657000E0,-3.497044996E-1,-2.724327408E-1,-1.371924991E-1,4.640416114E-1
4.359645000E0,-1.295049728E-1,-3.831538988E-1,-6.248546608E-2,4.092467246E-1
4.369643000E0,-1.303940694E-1,-3.820897055E-1,-6.246968316E-2,4.085310486E-1
4.379653000E0,-6.777916968E-2,-1.848211678E-1,1.730726954E-2,1.976168552E-1
4.389640000E0,-2.157564469E-1,1.905794532E-2,-8.911559564E-2,2.342128072E-1
4.399638000E0,-2.134302783E-1,2.032244339E-2,-8.909704900E-2,2.321718535E-1
4.409651000E0,-3.236879714E-1,3.908787284E-1,-7.920117555E-2,5.136466776E-1
4.419632000E0,-2.495830645E-1,9.612806453E-1,-9.819686059E-2,9.979953950E-1
4.429630000E0,-2.763250678E-1,1.343019627E0,7.427124642E-2,1.373161855E0
4.439649000E0,-1.888712052E-1,1.156542346E0,-9.395022886E-2,1.175622888E0
4.449648000E0,-1.914416229E-1,1.158977565E0,-9.391332745E-2,1.178430568E0
4.459646000E0,1.534954522E-2,1.008029061E0,-6.306228477E-2,1.010116354E0
4.469647000E0,2.335388530E-1,1.122058665E-1,-2.194313105E-4,2.590957361E-1
4.479647000E0,2.369657233E-1,1.124970579E-1,-2.151890099E-4,2.623135307E-1
4.489645000E0,3.583054249E-1,-2.108577410E-1,-1.494660880E-1,4.417961927E-1
4.499644000E0,3.125933182E-1,-2.760586175E-1,3.616426593E-2,4.186057776E-1
4.509645000E0,3.151305347E-1,-2.759477762E-1,3.616803464E-2,4.204313925E-1
4.519643000E0,1.539219587E-1,-4.319760298E-1,4.681876993E-2,4.609634009E-1
4.529641000E0,3.134067390E-1,-6.966713968E-2,-4.478814614E-2,3.241655016E-1
4.539641000E0,3.145539993E-1,-6.803123492E-2,-4.476166465E-2,3.249247205E-1
4.549639000E0,2.761215299E-1,-3.923630076E-1,7.443854074E-2,4.855233520E-1
4.559640000E0,3.487967833E-2,-3.350640949E-1,-7.283725790E-2,3.446589703E-1
4.569639000E0,3.217903900E-2,-3.330382174E-1,-7.280505253E-2,3.424186334E-1
4.579637000E0,-1.047503925E-1,-5.664170394E-2,4.546726826E-2,1.274684268E-1
4.589637000E0,2.059378024E-1,1.355472845E-1,-1.438831893E-2,2.469624840E-1
4.599636000E0,2.008662930E-1,1.394761292E-1,-1.431998988E-2,2.449610589E-1
4.609634000E0,-2.194648470E-2,3.120041016E-1,1.415618493E-1,3.433190423E-1
4.619634000E0,-8.657570221E-2,-4.524541668E-2,-8.890575369E-2,1.320860817E-1
4.629635000E0,-9.045691950E-2,-4.228444149E-2,-8.884515278E-2,1.336558620E-1
4.639633000E0,7.622787553E-2,4.958488940E-1,9.819303477E-3,5.017701002E-1
4.649632000E0,2.248760020E-1,3.143755861E-1,2.916833050E-2,3.876235505E-1
4.659632000E0,-1.863022675E-1,2.244053559E-1,-1.153009599E-2,2.918890915E-1
4.669630000E0,-7.718836293E-3,4.526218174E-2,-7.915351161E-2,9.150696110E-2
4.679607000E0,4.044930656E-2,-1.278669210E-1,6.664824508E-2,1.497600897E-1
4.689629000E0,-9.893546443E-2,-9.782379909E-2,-1.200383581E-2,1.396488950E-1
4.699627000E0,-1.626813618E-1,-5.586555458E-3,-4.552360253E-2,1.690231743E-1
4.709596000E0,-1.843466114E-1,1.174001401E-1,-4.043963182E-3,2.185928170E-1
4.719626000E0,-2.870953832E-1,2.737659790E-1,-1.390757159E-2,3.969445690E-1
4.729624000E0,-2.890556440E-1,3.451982332E-1,-1.530575666E-1,4.755434830E-1
4.739609000E0,-3.280134720E-2,3.949349785E-1,-2.016651003E-2,3.968075777E-1
4.749625000E0,-2.324693059E-1,1.470750610E-1,-1.258900779E-1,3.025249799E-1
4.759623000E0,-1.440012619E-1,4.334829669E-1,-1.830369904E-2,4.571420692E-1
4.769612000E0,2.360805828E-1,1.540260391E-1,3.256781489E-2,2.837582155E-1
4.779622000E0,2.442105697E-1,7.462346716E-1,9.300047658E-1,1.217133457E0
4.789620000E0,-4.159875952E-3,4.661015133E-1,-9.826038328E-1,1.087556076E0
4.799618000E0,-7.413546768E-2,2.527671476E-1,-5.376554261E-1,5.987158388E-1
4.809596000E0,3.481001698E-1,2.529516638E-1,-3.940217165E-1,5.834478430E-1
4.819594000E0,5.871608409E-1,-1.136900726E-1,1.766691076E-1,6.236146721E-1
4.829609000E0,5.635342890E-1,-5.084265472E-1,1.610575900E-1,7.758917425E-1
4.839617000E0,4.522651372E-1,-3.494183880E-1,8.104581677E-2,5.772394552E-1
4.849615000E0,-1.729097134E-1,-4.751566942E-1,2.842461035E-2,5.064381616E-1
4.859605000E0,-1.992734383E-1,-2.547631129E-1,-9.894882166E-2,3.382381058E-1
4.869614000E0,-2.856775979E-1,1.536811630E-1,-2.294533303E-2,3.252015961E-1
4.879612000E0,-5.944951131E-1,2.729843159E-1,-7.031592024E-2,6.579431624E-1
4.889612000E0,-8.058071280E-1,6.401318273E-1,-3.041238273E-2,1.029572143E0
4.899612000E0,-7.589005447E-1,1.090473559E0,-8.841588493E-2,1.331495396E0
4.909610000E0,-2.338231738E-1,1.683937466E-2,5.328873232E-2,2.404090892E-1
4.919599000E0,1.787714557E-1,-4.977426610E-1,2.271983881E-1,5.756093272E-1
4.929610000E0,3.991359837E-1,8.487296560E-2,1.960193715E-1,4.526991802E-1
4.939613250E0,1.131251767E-1,1.346694621E-1,-2.385217405E-1,2.963541637E-1
4.949609250E0,-5.951784334E-1,1.095986241E0,-1.506030882E-1,1.256226293E0
4.959612250E0,-6.436272197E-1,6.260097782E-1,-6.922028450E-2,9.005196767E-1
4.969610250E0,-6.478424044E-1,6.284373229E-1,-6.911406617E-2,9.052126843E-1
4.979608250E0,-3.656127269E-1,4.330953548E-3,-1.768655558E-1,4.061684971E-1
4.989609250E0,-2.225890646E-1,-1.927821153E0,-2.595706022E-2,1.940802427E0
4.999607250E0,3.232177091E-1,-1.668574469E0,-2.068744898E-2,1.699717157E0
5.009592250E0,7.182453659E-1,-7.092210656E-1,4.593754885E-2,1.010436136E0
5.019607250E0,6.364129981E-1,3.029179488E-1,-6.343680235E-3,7.048553257E-1
5.029605250E0,6.581294109E-1,3.051948180E-1,-6.506907773E-3,7.254795230E-1
5.039598250E0,-1.258638312E0,-1.337738715E0,1.858962697E-1,1.846150777E0
5.049604250E0,1.054516692E0,4.762336782E-1,-3.297414110E-1,1.203134808E0
5.059602250E0,1.053662048E0,4.806127311E-1,-3.296217989E-1,1.204094198E0
5.069574250E0,7.745134145E-1,-2.144825360E0,3.264540470E-2,2.280616709E0
5.079602250E0,1.591614476E-1,-1.698786009E0,1.611146552E-1,1.713815685E0
5.089600250E0,1.516026971E-1,-1.691600073E0,1.613576253E-1,1.706027687E0
5.099586250E0,-4.150462392E-2,-1.033435652E0,-8.191043724E-2,1.037507205E0
5.109599250E0,-2.576541590E-1,-1.467527606E0,-9.124416486E-2,1.492765366E0
5.119597250E0,-2.683657099E-1,-1.455888870E0,-9.080499329E-2,1.483198605E0
5.129579250E0,5.226799759E-1,1.173541298E0,-3.430237999E-1,1.329683745E0
5.139597250E0,-2.618810747E-1,1.942237317E0,-1.117479382E-1,1.962996459E0
5.149595250E0,-2.652136039E-1,1.928449875E0,-1.121297157E-1,1.949828262E0
5.159587250E0,-9.460509874E-2,1.748919597E0,-3.197284562E-1,1.780420222E0
5.169567250E0,-4.541303990E-1,2.444410962E0,-9.637015387E-2,2.488105017E0
5.179565250E0,-4.468179077E-1,2.420059794E0,-9.699622622E-2,2.462873102E0
5.189569250E0,-2.478033720E-3,2.234497674E0,3.649619318E-1,2.264107596E0
5.199591250E0,-4.581781706E-1,1.432671532E-1,5.999162860E-2,4.837889092E-1
5.209589250E0,-4.570052192E-1,1.372398981E-1,5.985775934E-2,4.809069674E-1
5.219568250E0,-3.269909173E-1,-1.919559769E-1,-1.347879322E-1,4.024151385E-1
5.229584250E0,2.159115078E-1,-1.012070876E0,-4.390711235E-2,1.035776555E0
5.239582250E0,2.153068874E-1,-1.013287755E0,-4.392547170E-2,1.036840671E0
5.249581250E0,-9.932340891E-3,-1.263468989E0,-7.822673706E-2,1.265927313E0
5.259582250E0,3.916307443E-2,-1.218745830E0,-1.499071508E-1,1.228554963E0
5.269580250E0,2.647910238E-2,-1.209397886E0,-1.495761344E-1,1.218900082E0
5.279566250E0,1.308636282E-1,-1.318330929E0,-1.776434365E-2,1.324929168E0
5.289581250E0,-8.088154656E-2,-8.716650487E-1,-9.606540430E-2,8.806647170E-1
5.299579250E0,-7.388874259E-2,-8.773485424E-1,-9.628409931E-2,8.857034712E-1
5.309564250E0,-9.775281938E-2,-5.416383667E-1,5.657563497E-2,5.532888364E-1
5.319580250E0,4.487842532E-1,-1.434105834E-4,-1.308982181E-1,4.674844062E-1
5.329578250E0,4.472927381E-1,-1.739845584E-3,-1.309119956E-1,4.660598366E-1
5.339576250E0,4.826617051E-1,3.242169982E-1,-4.095552469E-2,5.828862140E-1
5.349578250E0,3.915595636E-1,-3.470458803E-1,-3.643328353E-2,5.244874822E-1
5.359576250E0,3.883810172E-1,-3.517859988E-1,-3.648322698E-2,5.252849030E-1
5.369553250E0,-6.573600178E-2,-6.902200998E-1,-2.855593014E-1,7.498460660E-1
5.379547250E0,-2.247841641E-1,-2.759090018E-1,-2.004632462E-2,3.564485277E-1
5.389545250E0,-2.248744671E-1,-2.785456027E-1,-2.009522196E-2,3.585526415E-1
5.399575250E0,-5.863722708E-1,-2.977336246E-1,-1.708730368E-1,6.794669572E-1
5.409546250E0,-1.909611828E-1,2.019845501E-2,9.418499457E-2,2.138807240E-1
5.419544250E0,-2.003889957E-1,1.575470930E-2,9.425513375E-2,2.220089879E-1
5.429573250E0,-1.820261621E-1,-1.300415188E-1,-4.956251307E-3,2.237607757E-1
5.439563250E0,-3.195190163E-1,1.624421033E-2,-4.862065796E-1,5.820250116E-1
5.449561250E0,-3.201054920E-1,1.620654490E-2,-4.861960911E-1,5.823373740E-1
5.459570250E0,-5.713538070E-1,9.069692943E-2,5.357598707E-3,5.785324621E-1
5.469545250E0,-5.818241603E-1,-2.414855297E-1,8.048967576E-3,6.299995241E-1
5.479543250E0,-2.087408297E-1,-7.245977901E-2,1.639110130E-1,2.751181087E-1
5.489567250E0,-1.287088653E-1,2.467941619E-1,-3.497613455E-2,2.805292504E-1
5.499567250E0,-2.900676143E-1,4.351202970E-1,1.258582563E-2,5.230939654E-1
5.509565250E0,-3.118840144E-1,6.960182720E-1,-8.996605488E-2,7.679889090E-1
5.519565250E0,-3.455074048E-1,6.483122282E-1,-8.099289947E-2,7.390831900E-1
5.529564250E0,-1.829216632E-1,1.479492837E-1,-2.417447258E-1,3.373274935E-1
5.539562250E0,2.227873217E-1,1.853027043E-1,-6.342948077E-2,2.966388072E-1
5.549563250E0,3.046000100E-1,1.870138188E-1,-3.835813668E-2,3.594811277E-1
5.559561250E0,4.625917221E-1,5.099695909E-1,5.800496171E-3,6.885446469E-1
5.569559250E0,5.188739502E-1,5.833714797E-1,1.390654902E-1,7.930269037E-1
5.579560250E0,3.613791235E-1,5.676255858E-1,1.564955193E-1,6.908578175E-1
5.589560250E0,5.117193519E-2,7.836422338E-1,-1.769034348E-1,8.049897780E-1
5.599558250E0,-4.871947133E-2,6.142019840E-1,-2.390904736E-1,6.608947864E-1
5.609546250E0,-7.347543124E-2,1.784595981E-1,2.336652899E-2,1.944028339E-1
5.619557250E0,-7.234999754E-2,1.784440665E-1,2.334500849E-2,1.939633894E-1
5.629555250E0,-6.093972721E-2,1.541478622E-1,-1.911392670E-1,2.530008560E-1
5.639542250E0,-3.119952360E-3,4.905382700E-1,2.722737011E-2,4.913032242E-1
5.649555250E0,-6.779621568E-3,4.776333189E-1,2.707410225E-2,4.784480720E-1
5.659553250E0,-3.911765344E-1,3.447541007E-1,3.026891582E-1,6.029056290E-1
5.669550250E0,-6.011358325E-1,-1.397957229E-2,-3.263670560E-1,6.841601952E-1
5.679552250E0,-3.360803410E-1,7.407420165E-1,1.745565451E-1,8.319367272E-1
5.689550250E0,-3.156367940E-1,1.043956255E0,-9.696522227E-3,1.090671935E0
5.699542250E0,-2.201016225E-1,1.090916486E0,-4.814767303E-2,1.113939721E0
5.709550250E0,1.479981902E-1,9.596514648E-1,2.641050997E-1,1.006273274E0
5.719548250E0,4.830098337E-1,6.457008617E-1,-1.305693762E-1,8.168699188E-1
5.729530250E0,7.730079757E-1,9.975295085E-1,6.491641858E-2,1.263653668E0
5.739547250E0,8.917645602E-1,9.250302471E-1,-1.498999514E-1,1.293597690E0
5.749545250E0,6.683696397E-1,9.802902357E-1,-2.727079254E-1,1.217397443E0
5.759514250E0,3.345150413E-1,1.435157128E0,3.242843143E-1,1.508885884E0
5.769545250E0,4.472124120E-1,1.508962438E-1,3.585818475E-2,4.733438785E-1
5.779543250E0,6.852088168E-1,-1.617514535E0,1.080313748E-1,1.759981583E0
5.789532250E0,4.528961249E-1,-1.276987752E0,2.272793355E-1,1.373851708E0
5.799542250E0,4.516107607E-1,-1.273704833E0,2.273368575E-1,1.370386196E0
5.809540250E0,3.255209273E-1,-8.325260530E-1,1.014837632E-1,8.996457398E-1
5.819512250E0,-1.274428243E-1,-3.377637909E-1,1.681667444E-1,3.982538209E-1
5.829540250E0,-5.679700598E-1,-1.251020103E-1,-3.629174894E-1,6.855287054E-1
5.839538250E0,-7.200061818E-1,2.542232870E-1,-7.940130564E-2,7.676867518E-1
5.849512250E0,-3.835713169E-1,2.325983101E-1,2.606217854E-1,5.187992328E-1
5.859538250E0,-2.477178210E-1,3.173241908E-2,-9.197878528E-1,9.530901109E-1
5.869536250E0,-1.959047039E0,3.297899429E-1,2.883350660E-1,2.007427164E0
5.879511250E0,-1.762142929E0,-2.286394344E-1,-7.594517636E-2,1.778536298E0
5.889534250E0,2.464507477E-1,7.858972125E-1,1.614723951E-1,8.393126557E-1
5.899532250E0,4.513819153E-1,1.374108835E0,2.684015059E-1,1.471040479E0
5.909509250E0,4.078809789E-2,1.211911531E0,2.582398125E-1,1.239790720E0
5.919532250E0,-5.887983536E-2,8.344073238E-3,-7.527060045E-1,7.550515133E-1
5.929530250E0,5.211791418E-1,-1.433522100E0,2.922829050E-1,1.553075210E0
5.939508250E0,3.274011287E0,2.465184292E-1,7.242445361E-1,3.362209303E0
5.949530250E0,3.238977987E0,2.433839561E-1,7.246559608E-1,3.327963403E0
5.959528250E0,2.163195849E0,-5.146208317E-1,-1.721919786E0,2.812340419E0
5.969507250E0,9.227322914E-1,7.709505598E-1,3.074992239E-1,1.241110559E0
5.979528250E0,9.161400674E-1,7.706347371E-1,3.075994672E-1,1.236045288E0
5.989526250E0,1.115138942E-1,4.791517677E-1,-5.209108277E-1,7.164983291E-1
5.999506250E0,-1.417118509E-2,6.038345418E-1,3.136541859E-1,6.805849871E-1
6.009525250E0,1.638448846E-1,3.628328646E-2,-2.930605299E-1,3.377071176E-1
6.019523250E0,1.639441594E-1,3.754248435E-2,-2.930390596E-1,3.378742606E-1
6.029504250E0,-2.727939525E-1,-1.083145902E-1,1.285921585E-1,3.204442763E-1
6.039522250E0,-3.666939913E-2,-2.901795885E-1,-8.572141486E-2,3.047900906E-1
6.049520250E0,-3.616300284E-2,-2.878801709E-1,-8.568708988E-2,3.025310446E-1
6.059521250E0,2.454599370E-1,-3.074529716E-2,-3.148297320E-1,4.003918257E-1
6.069520250E0,-6.617424054E-1,-2.221101959E-1,-6.205804923E-1,9.340000523E-1
6.079518250E0,-6.728968464E-1,-2.211555466E-1,-6.203392216E-1,9.415522776E-1
6.089518250E0,-9.877726252E-1,-2.818168641E-1,4.779401881E-1,1.132935271E0
6.099517250E0,3.326162311E-1,-5.432686435E-1,-6.055667063E-1,8.789114927E-1
6.109515250E0,3.273570261E-1,-5.407774007E-1,-6.053896819E-1,8.752710932E-1
6.119516250E0,4.085443729E-1,8.079654814E-1,-3.393031435E-1,9.668729736E-1
6.129497250E0,1.080216995E-1,1.666821473E0,-9.428730988E-1,1.918064700E0
6.139495250E0,1.189222617E-1,1.661705014E0,-9.432339451E-1,1.914444131E0
6.149513250E0,3.496511072E-1,1.745331453E0,-1.843339120E-1,1.789529762E0
6.159512250E0,-3.883830272E-1,1.593780248E0,8.930211268E-2,1.642848661E0
6.169510250E0,-3.807940356E-1,1.590581236E0,8.908566521E-2,1.637952693E0
6.179510250E0,-7.467387016E-1,5.183513187E-1,-2.611532105E-2,9.093892391E-1
6.189510250E0,-2.548848263E-1,1.201058660E-1,-4.290703748E-2,2.850135218E-1
6.199508250E0,-2.508824986E-1,1.180877269E-1,-4.301908018E-2,2.806018186E-1
6.209508250E0,3.825168081E-1,1.929513557E-1,-8.933689448E-2,4.376418797E-1
6.219507250E0,2.633701230E-1,-1.632293738E-1,-9.266861969E-2,3.234116931E-1
6.229505250E0,2.631308074E-1,-1.643422817E-1,-9.268277178E-2,3.237843473E-1
6.239506250E0,8.893388428E-2,-1.346416056E-1,-4.193136559E-2,1.667208360E-1
6.249481250E0,-5.928651652E-1,-1.728952964E-1,8.861522016E-2,6.238866442E-1
6.259479250E0,-1.582323652E0,-7.172825488E-1,-8.093286501E-2,1.739193067E0
6.269503250E0,-1.562947441E0,-3.988429651E-1,-1.471587150E-2,1.613101662E0
6.279480250E0,-1.062823173E0,-5.926592062E-2,-1.745021478E-1,1.078682783E0
6.289478250E0,-1.062281063E0,-6.064349722E-2,-1.745356414E-1,1.078230671E0
6.299501250E0,2.130764487E-1,8.928025872E-1,-7.561997067E-2,9.209866517E-1
6.309494250E0,-1.829025136E-1,9.682500147E-1,4.411036705E-2,9.863605552E-1
6.319492250E0,-1.841009735E-1,9.657618783E-1,4.409482168E-2,9.841410098E-1
6.329498250E0,-6.963297824E-1,3.396365033E-2,-5.652581486E-2,6.994453968E-1
6.339477250E0,-3.094570179E-1,-3.174685074E-1,-3.328677711E-1,5.543923269E-1
6.349475250E0,-3.053324651E-1,-3.182404495E-1,-3.329622767E-1,5.526018237E-1
6.359496250E0,-1.124940703E-1,2.079399438E-1,-2.494154687E-1,3.436597331E-1
6.369476250E0,1.790614594E-1,5.649875779E-2,9.705325484E-2,2.113633131E-1
6.379474250E0,1.828728207E-1,5.846593929E-2,9.701381355E-2,2.151102383E-1
6.389494250E0,-6.803031216E-2,4.172255513E-1,1.403225684E-1,4.454163302E-1
6.399475250E0,-2.858314162E-1,1.337073594E0,3.971480034E-1,1.423794905E0
6.409473250E0,-2.816822137E-1,1.345113662E0,3.972201800E-1,1.430545177E0
6.419491250E0,-3.132077144E-1,6.863811835E-1,-1.536113436E-1,7.699445735E-1
6.429489250E0,-7.117907707E-1,7.900051556E-2,-1.318787688E-1,7.282027138E-1
6.439487250E0,-7.058483917E-1,8.151031410E-2,-1.319262226E-1,7.226827876E-1
6.449489250E0,-3.224737971E-1,1.633999480E-1,-3.086635873E-1,4.753547128E-1
6.459478250E0,2.961487916E-1,3.714394042E-1,-1.205959997E-1,4.901170604E-1
6.469476250E0,3.036704489E-1,3.725807076E-1,-1.206766091E-1,4.955753920E-1
6.479486250E0,1.274608228E-1,-7.802605879E-2,3.356809990E-2,1.531703121E-1
6.489476250E0,3.388607286E-1,5.321942729E-1,-7.222365657E-2,6.350382618E-1
6.499474250E0,3.460917609E-1,5.325337768E-1,-7.229870193E-2,6.392173595E-1
6.509466250E0,3.629504165E-1,6.709264078E-1,2.046078166E-1,7.897718710E-1
6.519479250E0,4.585979642E-1,6.626865115E-1,1.237805121E-1,8.153447862E-1
6.529477250E0,4.602692080E-1,6.650273712E-1,1.238090173E-1,8.181917997E-1
6.539481250E0,3.695322252E-1,3.874118412E-1,1.109828574E-1,5.467716112E-1
6.549469250E0,6.114341588E-2,4.810967526E-2,1.926852617E-2,8.015194483E-2
6.559467250E0,-1.565969685E-1,2.930177356E-1,-2.311576109E-1,4.047417016E-1
6.569479250E0,2.941706238E-1,5.299944773E-1,2.649631969E-2,6.067392824E-1
6.579451250E0,1.180774669E-1,8.002325753E-2,-6.879915706E-2,1.583645603E-1
6.589449250E0,1.180025860E-1,8.238405257E-2,-6.874872940E-2,1.594933548E-1
6.599477250E0,2.713052514E-1,-3.819723546E-2,-2.504946729E-2,2.751236886E-1
6.609446250E0,4.372292415E-1,4.632022079E-1,1.181356261E-2,6.370755491E-1
6.619444250E0,4.385769150E-1,4.642761587E-1,1.182437539E-2,6.387815572E-1
6.629473250E0,2.047246696E-1,1.340617811E-1,-1.260583864E-1,2.752734427E-1
6.639465250E0,2.608445095E-1,4.872886434E-1,8.096798485E-2,5.586106826E-1
6.649463250E0,2.628807841E-1,4.881269514E-1,8.096610278E-2,5.602943308E-1
6.659471250E0,5.310339386E-2,1.091394569E0,-1.272765829E-2,1.092759841E0
6.669464250E0,6.058058026E-2,1.090778638E0,-1.281063280E-2,1.092534739E0
6.679462250E0,-4.179774187E-3,3.334253031E-1,-9.912106784E-2,3.478719439E-1
6.689469250E0,2.205994581E-1,7.562182807E-1,-7.569210955E-3,7.877737632E-1
6.699463250E0,2.258268689E-1,7.546972007E-1,-7.631776733E-3,7.877968541E-1
6.709461250E0,2.466789718E-1,1.010565730E0,-3.782425665E-1,1.106869933E0
6.719466250E0,3.042215489E-1,5.767806078E-1,-2.912942322E-1,7.141981169E-1
6.729456250E0,3.170127900E-1,5.604987435E-1,-2.915878538E-1,7.068800655E-1
6.739454250E0,3.284692396E-1,4.193127149E-1,2.096859773E-1,5.724363749E-1
6.749463250E0,2.183852454E-1,7.401091285E-1,-7.028128005E-2,7.748503700E-1
6.759461250E0,2.193442802E-1,7.335502336E-1,-7.033602004E-2,7.688660574E-1
6.769459250E0,-3.385475336E-3,8.562579279E-1,-2.576728153E-1,8.941948223E-1
6.779454250E0,6.148754736E-2,1.264677755E0,3.296716099E-1,1.308385995E0
6.789461250E0,4.911507293E-1,1.180619498E0,-7.610627628E-2,1.280969791E0
6.799459250E0,4.919641501E-1,1.179342759E0,-7.611656830E-2,1.280106167E0
6.809459250E0,3.670086765E-1,2.037932995E-1,-2.747463013E-1,5.017096846E-1
6.819458250E0,4.015294318E-1,5.312140237E-1,-1.225165725E-2,6.660062512E-1
6.829456250E0,1.634471826E-1,2.091251745E-1,1.345192731E-2,2.657616873E-1
6.839441250E0,1.460034034E-1,-2.452336863E-2,-1.936031923E-1,2.437223533E-1
6.849456250E0,4.153715819E-2,2.699913227E-2,-1.863015297E-2,5.292798176E-2
6.859454250E0,4.891021208E-1,3.047453316E-1,2.681708697E-1,6.356148339E-1
6.869440250E0,3.007248774E-1,-1.015804798E-1,-1.672722301E-1,3.587952686E-1
6.879454250E0,2.367781556E-1,-2.970789375E-1,-9.227239774E-2,3.909398745E-1
6.889452250E0,1.494797193E-1,2.718509885E-2,-8.398459082E-2,1.735990425E-1
6.899439250E0,-1.662941553E-1,5.743687410E-1,-8.981561699E-2,6.046652312E-1
6.909424250E0,-1.799461545E-2,8.369360961E-1,1.052562040E-1,8.437207498E-1
6.919422250E0,1.787505154E-1,9.408437495E-1,8.042561905E-2,9.610447377E-1
6.929437250E0,-2.869676581E-1,8.385491236E-1,-1.451466401E-1,8.980994470E-1
6.939449250E0,-1.070838335E-1,6.665198730E-1,-5.953116951E-2,6.776869843E-1
6.949447250E0,7.694156474E-2,5.261251188E-1,-1.701620520E-1,5.582855622E-1
6.959436250E0,5.626053857E-2,1.013105687E0,3.340063884E-2,1.015216225E0
6.969446250E0,3.419326775E-2,1.489325734E0,1.784650502E-2,1.489825097E0
6.979444250E0,-5.328037149E-3,5.130120434E-1,-1.185042680E-1,5.265481993E-1
6.989442250E0,2.558907119E-1,-6.484387199E-2,-4.695811182E-2,2.681228234E-1
6.999444250E0,3.440931460E-1,-3.238458462E-1,5.858614982E-2,4.761392256E-1
7.009442250E0,3.198761715E-1,-3.893675886E-1,3.136129447E-2,5.048875271E-1
7.019434250E0,6.420574433E-2,-7.774954945E-1,-7.133108367E-2,7.833962886E-1
7.029442250E0,-6.931737112E-3,-6.794866584E-1,-4.767651992E-2,6.811924974E-1
7.039440250E0,-4.141603677E-1,-7.303194277E-1,-9.094242113E-2,8.444914450E-1
7.049438250E0,-3.916544986E-2,-8.421977131E-1,-2.389494141E-2,8.434464350E-1
7.059438250E0,-1.445169955E-1,-1.141058261E0,-8.811935800E-2,1.153544164E0
7.069436250E0,1.245112953E-1,-8.847150108E-1,3.790485184E-2,8.942373795E-1
7.079422250E0,2.030744391E-1,-3.606567731E-1,-9.801303875E-2,4.253458494E-1
7.089436250E0,-1.562138114E-1,-5.703214263E-2,-2.183048599E-2,1.677259380E-1
7.099434250E0,-1.551305233E-1,-5.484402317E-2,-2.184390261E-2,1.659834396E-1
7.109434250E0,-4.367648264E-1,-7.121172624E-3,-4.369500004E-2,4.390028219E-1
7.119435250E0,-3.137341465E-1,6.140961494E-1,-1.285560245E-1,7.014769040E-1
7.129433250E0,6.730911749E-2,1.162101001E0,-2.677114339E-2,1.164356452E0
7.139432250E0,3.064209426E-1,1.124229024E0,-3.335326040E-2,1.165717432E0
7.149432250E0,3.406935383E-1,6.713775205E-1,-7.392987410E-2,7.564955309E-1
7.159430250E0,3.391482654E-1,6.701295054E-1,-7.391813855E-2,7.546913217E-1
7.169429250E0,3.421153253E-1,1.209343872E0,3.880720284E-2,1.257402679E0
7.179429250E0,2.776584522E-1,5.869854975E-1,-8.318228887E-2,6.546491301E-1
7.189427250E0,-4.955004548E-2,3.681859403E-1,-1.026214669E-1,3.854182911E-1
7.199427250E0,3.385639093E-1,6.978439920E-1,7.984559353E-2,7.797352606E-1
7.209427250E0,1.537775324E-1,1.069034469E-1,-8.930089756E-2,2.074862086E-1
7.219425250E0,1.532017005E-1,1.070829564E-1,-8.929881449E-2,2.071516325E-1
7.229424250E0,7.453480967E-2,2.560386282E-1,-4.827166598E-2,2.710006839E-1
7.239410250E0,-1.505292123E-1,1.926216641E-1,-6.442004479E-2,2.528084085E-1
7.249408250E0,-1.603298675E-1,2.767620741E-1,1.117249879E-2,3.200433358E-1
7.259422250E0,-1.394830636E-1,1.220043838E-1,-1.209927150E-1,2.213138762E-1
7.269422250E0,9.551032081E-2,7.520387641E-1,-3.521075636E-2,7.588967791E-1
7.279420250E0,9.503815815E-2,7.520723855E-1,-3.520823247E-2,7.588707032E-1
7.289420250E0,-1.727451508E-1,5.901350271E-1,-9.028640921E-2,6.214916517E-1
7.299419250E0,5.210165618E-2,4.089305084E-1,-2.276981606E-2,4.128646362E-1
7.309417250E0,5.162676634E-2,4.086472839E-1,-2.276564764E-2,4.125241816E-1
7.319394250E0,-5.013179319E-2,5.352788253E-1,-1.408260206E-2,5.378056686E-1
7.329418250E0,-6.273457574E-2,2.088413469E-1,-4.311859248E-2,2.222825864E-1
7.339416250E0,-6.304583490E-2,2.085609181E-1,-4.311536281E-2,2.221066599E-1
7.349414250E0,9.937331124E-2,4.665878189E-1,-3.532281505E-2,4.783585987E-1
7.359415250E0,-9.128359702E-2,-5.929488900E-1,-3.067288761E-2,6.007178267E-1
7.369413250E0,-9.098892476E-2,-5.927759221E-1,-3.067558738E-2,6.005025145E-1
7.379412250E0,9.084036894E-2,-7.065347817E-1,-1.642242958E-1,7.310355598E-1
7.389404250E0,-4.007276414E-2,-4.283214104E-1,-2.890847202E-2,4.311621004E-1
7.399402250E0,-3.920061995E-2,-4.281219473E-1,-2.891452251E-2,4.308841375E-1
7.409410250E0,-2.775791828E-4,-4.660385095E-1,-1.873950619E-2,4.664151997E-1
7.419403250E0,-2.470444502E-2,-4.830319069E-1,-7.248431448E-2,4.890645239E-1
7.429401250E0,-2.422821671E-2,-4.818726233E-1,-7.249231786E-2,4.878968823E-1
7.439407250E0,1.927353742E-1,-1.377778967E-1,-6.095897277E-2,2.446337459E-1
7.449402250E0,1.359384266E-1,9.530207771E-2,-9.163739012E-2,1.896289881E-1
7.459400250E0,1.344880888E-1,9.534785958E-2,-9.162897561E-2,1.886110535E-1
7.469405250E0,-1.282582299E-2,5.156541809E-1,-6.692395957E-2,5.201370515E-1
7.479399250E0,1.038399719E-1,5.482791591E-1,-5.493550468E-2,5.607233594E-1
7.489397250E0,1.009333667E-1,5.485793406E-1,-5.491782142E-2,5.604844374E-1
7.499402250E0,-2.803783988E-2,7.390960984E-1,-7.360645912E-2,7.432812886E-1
7.509399250E0,9.247773550E-2,8.651967857E-1,-3.796855223E-2,8.709530530E-1
7.519397250E0,9.121649109E-2,8.654228537E-1,-3.796028618E-2,8.710442855E-1
7.529400250E0,5.435960419E-2,7.205939732E-1,-4.439602638E-2,7.240039005E-1
7.539375250E0,4.675911006E-2,1.109814870E-1,-3.496920697E-2,1.254039484E-1
7.549373250E0,4.688605859E-2,1.112355211E-1,-3.497121924E-2,1.256766876E-1
7.559397250E0,7.863564016E-2,-6.330778560E-2,-3.092860508E-2,1.055841761E-1
7.569396250E0,8.615632894E-2,-4.231142091E-1,-6.654765470E-2,4.368948813E-1
7.579394250E0,8.472820133E-2,-4.233657855E-1,-6.653577754E-2,4.368574895E-1
7.589395250E0,8.439317415E-2,-5.461978427E-1,-6.442495096E-2,5.564214819E-1
7.599367250E0,9.805568688E-2,-5.120251065E-1,-6.516983142E-2,5.253872232E-1
7.609365250E0,9.905189711E-2,-2.719821169E-2,-1.218426238E-2,1.034382777E-1
7.619392250E0,-4.356431020E-2,1.271112049E-1,-6.052740258E-2,1.473725687E-1
7.629391250E0,-8.575773155E-2,6.079688613E-2,-5.169717961E-2,1.171462687E-1
7.639389250E0,-1.386768719E-2,4.129977220E-1,-2.744310039E-2,4.141407428E-1
7.649378250E0,-3.724677969E-2,5.235364103E-1,-5.438171854E-2,5.276694674E-1
7.659390250E0,6.888933666E-2,8.245233344E-1,-5.886993164E-2,8.294878772E-1
7.669388250E0,9.045893862E-2,2.048272151E-1,-4.764413640E-2,2.289256896E-1
7.679373250E0,5.156726636E-2,-4.209418771E-2,-6.980163021E-2,9.645398477E-2
7.689387250E0,5.563564480E-2,-3.544343672E-2,-1.367188426E-2,6.736826106E-2
7.699385250E0,4.187618250E-2,-9.294530719E-3,-1.965934858E-2,4.718572823E-2
7.709375250E0,6.035219167E-2,-2.103880440E-3,-5.962677605E-2,8.486557473E-2
7.719385250E0,1.370527621E-2,-3.484272210E-2,-2.729221938E-2,4.633265715E-2
7.729383250E0,4.286824486E-2,-1.663597264E-2,-5.259099048E-2,6.985881678E-2
7.739373250E0,4.829736632E-2,-2.791213388E-2,-3.837550017E-2,6.770821090E-2
7.749370250E0,5.625534916E-2,-9.590301616E-3,-7.072001309E-2,9.087330986E-2
7.759368250E0,3.955979888E-2,-3.407896839E-2,-4.453524036E-2,6.862755575E-2
7.769370250E0,3.889307011E-2,-1.171560691E-2,-3.358263571E-2,5.270407735E-2
7.779381250E0,3.417481704E-2,-1.290742934E-2,-4.286503803E-2,5.631990178E-2
7.789379250E0,5.080966364E-2,-2.477933734E-2,-4.256673866E-2,7.076414854E-2
7.799363250E0,3.304777536E-2,-1.019689885E-2,-4.254075053E-2,5.482561134E-2
7.809377250E0,3.841723467E-2,-2.009283740E-2,-2.170849846E-2,4.848571892E-2
7.819375250E0,2.447834050E-2,-3.407357342E-2,-3.546700145E-2,5.493728926E-2
7.829370250E0,5.226403062E-2,-8.229506640E-3,-5.579554331E-2,7.689210837E-2
7.839375250E0,2.725415766E-2,1.523100178E-3,-4.979911402E-2,5.678961790E-2
7.849373250E0,1.938251261E-2,-1.645720772E-2,-3.468076793E-2,4.300322251E-2
7.859369250E0,8.727046449E-3,-6.110862267E-3,-3.513153573E-2,3.671142574E-2
7.869374250E0,3.321553107E-3,-2.037052761E-2,-5.863753680E-2,6.216391101E-2
7.879372250E0,4.328678045E-3,-1.330573893E-2,-5.235092573E-2,5.418855568E-2
7.889370250E0,2.910629063E-2,-2.035577481E-2,-4.694676457E-2,5.886877293E-2
7.899370250E0,5.025637542E-2,9.184672729E-3,-4.317770418E-2,6.689077382E-2
7.909368250E0,5.296979412E-2,6.681584775E-3,-2.683724205E-2,5.975516902E-2
7.919367250E0,1.873120999E-1,6.961265551E-2,-3.931899409E-2,2.036608158E-1
7.929368250E0,9.465254341E-2,4.997442543E-2,-4.361300654E-2,1.155795895E-1
7.939366250E0,7.602568978E-2,7.208284374E-2,-4.746409697E-2,1.150160092E-1
7.949364250E0,2.244471316E-2,1.194808969E-2,-3.832254175E-2,4.599064255E-2
7.959366250E0,-8.599434279E-2,-8.360054295E-3,-6.187804544E-2,1.062723389E-1
7.969364250E0,8.502571497E-2,6.331075489E-2,-7.095816835E-2,1.275644368E-1
7.979359250E0,-1.623355058E-2,2.091853277E-2,-4.176437277E-2,4.945074328E-2
7.989363250E0,-1.148182654E-1,-1.153492840E-1,-5.858452813E-2,1.729764097E-1
7.999361250E0,3.837858823E-2,-1.367715361E-2,-4.255310734E-2,5.891305042E-2
8.009348250E0,1.325929696E-1,7.302197509E-2,-3.246190491E-2,1.548124017E-1
8.019361250E0,2.293300089E-1,1.669648858E-1,-6.452950649E-2,2.909185165E-1
8.029359250E0,3.280797785E-1,2.479506133E-1,-1.600532531E-2,4.115483181E-1
8.039346250E0,-2.157085134E-2,2.849390900E-2,-5.657874130E-2,6.692053829E-2
8.049347250E0,-1.633951606E-1,-3.126168624E-2,-3.929147107E-2,1.709359273E-1
8.059345250E0,-2.289399448E-1,-1.404732713E-1,-1.530339676E-2,2.690361169E-1
8.069350250E0,-1.098825119E-1,2.059144044E-2,-6.039717869E-2,1.270668841E-1
8.079356250E0,-1.049102773E-1,-2.535413920E-2,-5.085626777E-2,1.193120221E-1
8.089354250E0,1.996099821E-1,1.968526545E-1,-2.605748158E-2,2.815565750E-1
8.099327250E0,-1.711293185E-2,1.262846005E-1,-3.097652941E-2,1.311495259E-1
8.109354250E0,-1.706891602E-1,6.013855360E-2,-5.587754594E-2,1.894036303E-1
8.119352250E0,-1.244589262E-1,-5.421516426E-2,-4.920571757E-2,1.443970602E-1
8.129327250E0,-1.116207886E-1,-1.004545619E-1,-6.081086463E-2,1.620132116E-1
8.139351250E0,7.923165416E-2,1.209123432E-1,-6.275873205E-2,1.575947595E-1
8.149349250E0,1.805294394E-1,2.720306533E-1,-5.506074930E-2,3.310940062E-1
8.159348250E0,2.011555657E-1,1.315380406E-1,-2.552192688E-2,2.416964759E-1
8.169349250E0,6.858593469E-2,8.033431113E-2,-4.450736102E-2,1.146234582E-1
8.179347250E0,6.810533924E-2,8.090018456E-2,-4.450446482E-2,1.147337112E-1
8.189346250E0,3.394591911E-1,1.745603641E-1,-2.187734594E-2,3.823381767E-1
8.199346250E0,1.673751776E-1,2.263354305E-1,1.013439246E-3,2.815016949E-1
8.209344250E0,1.664379603E-1,2.255769004E-1,1.030276043E-3,2.803347893E-1
8.219345250E0,-1.720593090E-1,3.280172407E-2,2.693541817E-2,1.772170298E-1
8.229344250E0,-2.822766562E-1,5.216302226E-3,-1.421153659E-2,2.826823097E-1
8.239342250E0,-2.795984122E-1,5.842483062E-3,-1.424759404E-2,2.800221431E-1
8.249341250E0,3.195392120E-2,-8.143775381E-2,-1.359759859E-1,1.616868256E-1
8.259341250E0,5.954754171E-2,-1.204682381E-1,-8.630380668E-2,1.597086508E-1
8.269339250E0,6.056097839E-2,-1.202741653E-1,-8.631665228E-2,1.599502154E-1
8.279339250E0,-3.762786512E-2,-3.638458079E-1,2.159631871E-2,3.664232923E-1
8.289339250E0,-1.851384158E-1,-4.341494033E-1,-1.016075917E-2,4.720859863E-1
8.299337250E0,-1.847893553E-1,-4.339291826E-1,-1.016586635E-2,4.717467394E-1
8.309320250E0,-3.848149831E-1,-5.151643669E-1,9.458402935E-3,6.430912513E-1
8.319337250E0,-3.413383766E-1,-2.986396690E-1,-3.484469554E-2,4.548754687E-1
8.329335250E0,-3.420473149E-1,-2.991546077E-1,-3.483380053E-2,4.557447077E-1
8.339334250E0,-4.003660917E-1,-4.195698462E-1,-5.570757012E-2,5.826106732E-1
8.349335250E0,6.922246350E-2,7.957716065E-2,-2.891528311E-2,1.093634653E-1
8.359333250E0,6.948528671E-2,7.975862534E-2,-2.891863612E-2,1.096628055E-1
8.369332250E0,1.173057349E-1,1.072050445E-1,-1.903707807E-2,1.600498902E-1
8.379301250E0,2.040786619E-1,7.257435246E-2,-5.330485328E-2,2.230617499E-1
8.389299250E0,2.032021277E-1,7.175722692E-2,-5.329265635E-2,2.219916925E-1
8.399330250E0,2.551629163E-1,1.776092851E-1,-1.337115694E-1,3.384257020E-1
8.409302250E0,-3.475914347E-2,2.500435328E-1,6.716058908E-2,2.612288481E-1
8.419300250E0,-3.453087822E-2,2.494020749E-1,6.716111898E-2,2.605847126E-1
8.429328250E0,2.803720354E-1,4.381858094E-1,-1.431696234E-1,5.395487215E-1
8.439300250E0,1.099738107E-1,6.430063185E-1,5.203233927E-2,6.544147989E-1
8.449298250E0,1.068465097E-1,6.418552941E-1,5.207232418E-2,6.527678930E-1
8.459314250E0,4.638785846E-1,5.420592200E-1,-1.407087405E-1,7.271935705E-1
8.469299250E0,3.132722896E-1,6.851977801E-1,1.184475591E-1,7.626698824E-1
8.479297250E0,3.078036812E-1,6.826225202E-1,1.185262133E-1,7.581326232E-1
8.489322250E0,3.739056867E-1,8.482814486E-1,-1.597541429E-2,9.271688587E-1
8.499298250E0,-2.453516356E-1,8.107975072E-1,-1.793732439E-1,8.658895908E-1
8.509296250E0,-2.502414610E-1,8.083828264E-1,-1.792938496E-1,8.650143741E-1
8.519320250E0,5.537294219E-1,1.331919419E0,-2.035032776E-1,1.456722073E0
8.529293250E0,5.717120951E-1,-1.410497908E-2,-1.183184179E-1,5.839973614E-1
8.539291250E0,5.724111663E-1,-1.077178407E-2,-1.183469870E-1,5.846166128E-1
8.549317250E0,3.178440082E-1,-7.480440194E-1,-2.974451650E-2,8.133138415E-1
8.559296250E0,-1.990498189E-1,-1.468320361E-1,-5.832641011E-2,2.541307682E-1
8.569294250E0,-1.966042575E-1,-1.441654043E-1,-5.837385478E-2,2.506878632E-1
8.579314250E0,-7.307462744E-1,-5.229910478E-1,1.492434095E-1,9.109244475E-1
8.589294250E0,-2.884325501E-1,-3.327744349E-1,1.518780005E-1,4.658316085E-1
8.599292250E0,-2.864654736E-1,-3.315630745E-1,1.518462336E-1,4.637389553E-1
8.609313250E0,-7.536750343E-2,5.330784998E-2,1.196356128E-1,1.511114400E-1
8.619293250E0,4.912479027E-1,1.141176521E0,7.676719895E-2,1.244789764E0
8.629291250E0,4.962815880E-1,1.144831907E0,7.669002484E-2,1.250126742E0
8.639310250E0,4.037221742E-1,1.475213333E0,-4.235144236E-2,1.530045625E0
8.649291250E0,7.489289224E-1,1.470935656E0,-1.802862318E-1,1.660436497E0
8.659289250E0,9.072648711E-1,1.162008981E0,-6.929011761E-2,1.475871111E0
8.669308250E0,1.019914843E0,1.054727191E0,-7.892940793E-2,1.469321471E0
8.679307250E0,6.083599212E-1,9.163884278E-1,9.489421729E-3,1.099981633E0
8.689305250E0,2.604051461E-1,8.283448552E-1,5.758981511E-3,8.683312762E-1
8.699306250E0,-3.890530815E-1,9.442356462E-1,-4.211674517E-2,1.022114023E0
8.709305250E0,-3.892828040E-1,9.470007214E-1,-4.211822068E-2,1.024756270E0
8.719303250E0,-4.563843910E-1,8.579049423E-1,-2.509551137E-1,1.003626460E0
8.729303250E0,-5.653017561E-1,4.501185513E-1,-8.928596889E-2,7.281104105E-1
8.739302250E0,-5.649542487E-1,4.527732603E-1,-8.929065580E-2,7.294859489E-1
8.749300250E0,-8.786738869E-1,-1.336193273E-2,-1.860101077E-1,8.982461249E-1
8.759298250E0,-1.204982873E0,-8.999454727E-1,7.265495268E-2,1.505710570E0
8.769300250E0,-1.149750878E0,-8.014653511E-1,3.553060820E-2,1.401975825E0
8.779298250E0,-1.085553639E0,-6.368187949E-1,-1.451480106E-1,1.266898901E0
8.789298250E0,-1.046726300E0,-1.060581862E0,-7.688893980E-2,1.492106478E0
8.799298250E0,-6.482044932E-1,-1.384309595E0,-1.463254525E-2,1.528625602E0
8.809296250E0,-4.019839431E-1,-9.076893789E-1,-1.652582480E-1,1.006380339E0
8.819294250E0,-2.546786206E-1,-8.546924821E-1,1.493573023E-2,8.919548838E-1
8.829295250E0,2.429356392E-1,-5.563695860E-1,8.932134454E-2,6.136311136E-1
8.839293250E0,4.370256122E-1,7.141171586E-2,-2.087097663E-1,4.895414032E-1
8.849292250E0,1.644314883E-1,8.278637025E-1,-7.510485838E-3,8.440689733E-1
8.859283250E0,1.558696479E-1,1.307950367E0,-8.847814864E-2,1.320173433E0
8.869281250E0,1.621332219E-1,1.185832218E0,-2.519914779E-1,1.223104630E0
8.879283250E0,-9.035361565E-2,6.273190429E-1,2.266560406E-1,6.731017146E-1
8.889290250E0,5.376693863E-1,6.685158931E-1,-5.196831226E-2,8.594780823E-1
8.899288250E0,7.716664052E-1,8.862440577E-1,-2.103226111E-1,1.193789417E0
8.909288250E0,7.776608976E-1,4.022800681E-1,-1.375120037E-1,8.862817137E-1
8.919288250E0,5.767557572E-1,1.546751531E-1,-1.400468814E-1,6.133390053E-1
8.929286250E0,-5.801398150E-2,-2.707267425E-1,1.732765348E-1,3.266241704E-1
8.939264250E0,-8.019254538E-1,-1.339587970E-1,-4.162680697E-1,9.134048931E-1
8.949285250E0,-6.052747841E-1,3.242643607E-1,-5.385230798E-2,6.887706519E-1
8.959283250E0,-1.033177570E0,-1.272021291E-1,2.237545243E-1,1.064754601E0
8.969263250E0,-7.163208280E-1,-1.858573492E-1,-3.855731660E-2,7.410432845E-1
8.979283250E0,-7.723771343E-1,-5.223076545E-1,-1.375776753E-1,9.424963343E-1
8.989281250E0,-4.455719026E-1,-6.186990776E-1,3.913399824E-2,7.634489759E-1
8.999259250E0,-2.876535913E-1,-4.406182511E-1,-3.261440075E-2,5.272122257E-1
9.009280250E0,3.033565402E-2,3.819445849E-1,-1.292496688E-1,4.043604762E-1
9.019278250E0,2.102430524E-1,9.133624937E-1,-7.081310716E-2,9.399189764E-1
9.029260250E0,2.209716516E-1,8.664662893E-1,-7.724376529E-2,8.975293313E-1
9.039278250E0,2.679696159E-1,5.946525494E-1,-4.206557747E-2,6.535968806E-1
9.049276250E0,1.042792805E-1,2.513494170E-1,1.621505991E-2,2.726052566E-1
9.059259250E0,-5.825086454E-3,4.979816294E-1,-7.994103106E-2,5.043909231E-1
9.069276250E0,-9.657113364E-2,8.032534296E-1,-3.276516527E-1,8.728674937E-1
9.079274250E0,-1.776227337E-1,5.900504252E-1,2.714232281E-2,6.168030849E-1
9.089258250E0,-1.450988666E-1,5.346358874E-1,-1.364595780E-1,5.705352133E-1
9.099274250E0,2.807437584E-2,5.269665332E-1,7.045038792E-2,5.323956751E-1
9.109272250E0,-9.075154494E-3,4.378452822E-1,-7.759409574E-2,4.447602649E-1
9.119257250E0,-3.612010027E-1,-1.621010234E-2,-1.098671904E-1,3.778885170E-1
9.129272250E0,-3.285635991E-1,2.988642934E-1,-1.204798777E-1,4.602057208E-1
9.139270250E0,-2.439908240E-1,4.772142197E-1,-7.031680645E-2,5.405639527E-1
9.149254250E0,-8.398535826E-2,6.880432545E-1,-1.406982246E-1,7.072856926E-1
9.159268250E0,-2.130383687E-1,1.065154970E0,-1.565016954E-1,1.097466736E0
9.169266250E0,-2.030221431E-1,1.029426070E0,3.217242434E-2,1.049748107E0
9.179241250E0,3.708228153E-1,9.962840516E-1,-3.728673948E-2,1.063711320E0
9.189266250E0,5.537473290E-1,1.187343577E0,-1.616408680E-1,1.320056304E0
9.199264250E0,7.139224463E-1,1.321033073E0,-3.779547693E-2,1.502079272E0
9.209250250E0,5.110855686E-1,1.072426055E0,-2.929725561E-4,1.187984086E0
9.219264250E0,-1.314499669E-1,9.193531854E-1,4.748542561E-2,9.299162538E-1
9.229262250E0,-1.441169637E-1,9.213278633E-1,4.771069873E-2,9.337510598E-1
9.239261250E0,-6.443087858E-1,3.736850274E-1,-2.949858353E-1,8.011185643E-1
9.249262250E0,-4.655671509E-1,4.831221276E-2,-1.125850311E-1,4.814168995E-1
9.259260250E0,-4.617377362E-1,4.830938509E-2,-1.126452939E-1,4.777284752E-1
9.269251250E0,-2.241518426E-1,2.702578324E-1,-2.042790935E-1,4.062182819E-1
9.279259250E0,-5.468273320E-1,-7.803654724E-2,-2.216619337E-1,5.951838763E-1
9.289257250E0,-5.450610709E-1,-7.593668419E-2,-2.216643274E-1,5.932900008E-1
9.299257250E0,-8.998086479E-1,-1.173790097E0,2.185418594E-1,1.495058306E0
9.309257250E0,-4.928946614E-1,-5.734645788E-1,-8.000201569E-2,7.603992983E-1
9.319255250E0,-4.851166951E-1,-5.700046351E-1,-8.006652692E-2,7.527643327E-1
9.329254250E0,1.992207769E-1,-1.211831424E0,-8.840104990E-3,1.228129662E0
9.339254250E0,6.766051506E-1,-1.373937073E-1,-1.067559166E-2,6.904965813E-1
9.349252250E0,6.756955431E-1,-1.364159066E-1,-1.065141937E-2,6.894107768E-1
9.359252250E0,4.649007510E-1,5.749903731E-1,1.880975043E-2,7.396623853E-1
9.369252250E0,-4.491144930E-2,6.045975303E-1,-6.994506058E-2,6.102847888E-1
9.379250250E0,-4.208329727E-2,6.055845038E-1,-6.996807943E-2,6.110639306E-1
9.389250250E0,1.535709179E-2,6.459430095E-1,-1.159151391E-1,6.564408056E-1
9.399249250E0,6.580002605E-1,4.425345664E-1,-4.887776072E-3,7.929849152E-1
9.409247250E0,6.573908345E-1,4.443732234E-1,-4.855255503E-3,7.935073058E-1
9.419248250E0,4.733828317E-1,5.332487451E-1,9.684560560E-2,7.196003063E-1
9.429230250E0,-7.504749628E-2,1.211256844E-1,7.344030226E-2,1.603029510E-1
9.439228250E0,-7.617528713E-2,1.238735103E-1,7.349490521E-2,1.629380926E-1
9.449244250E0,-1.518727014E-2,-2.333806675E-1,-1.403094442E-2,2.342948069E-1
9.459228250E0,3.259578605E-1,-4.076262139E-1,-5.754636870E-2,5.250897462E-1
9.469226250E0,3.254635150E-1,-4.065386318E-1,-5.752327220E-2,5.239361464E-1
9.479242250E0,3.775803693E-1,-6.128901612E-1,9.577302525E-2,7.262050381E-1
9.489217250E0,-1.686835835E-1,-6.733930557E-1,-8.474885845E-2,6.993530781E-1
9.499215250E0,-1.688115644E-1,-6.734507239E-1,-8.474795396E-2,6.994393737E-1
9.509240250E0,-6.191444162E-1,-4.793323370E-1,4.048445381E-2,7.840524781E-1
9.519216250E0,-4.450430950E-1,2.894690969E-1,-2.233140828E-1,5.759556355E-1
9.529214250E0,-4.076841744E-1,8.008187221E-1,-1.849176811E-2,8.988097447E-1
9.539238250E0,-4.970494736E-1,1.030532802E0,-6.979169908E-2,1.146266512E0
9.549237250E0,-4.970549188E-1,1.027866252E0,-6.982938164E-2,1.143874454E0
9.559235250E0,-2.577923360E-1,6.194236207E-1,-1.155485370E-1,6.808039180E-1
9.569235250E0,3.386333084E-1,8.967731389E-1,-1.831084132E-2,9.587543310E-1
9.579234250E0,3.360320283E-1,8.935641139E-1,-1.832030308E-2,9.548350555E-1
9.589232250E0,6.579813302E-1,8.191824876E-1,2.214464364E-2,1.050947080E0
9.599233250E0,7.147447841E-1,1.112630852E0,3.941636851E-2,1.323012158E0
9.609232250E0,7.164051741E-1,1.100415800E0,3.925636493E-2,1.313656107E0
9.619230250E0,4.273588125E-1,1.040559534E0,1.179692295E-1,1.131068715E0
9.629230250E0,-6.819101009E-2,1.130119217E0,-5.896760207E-1,1.276533300E0
9.639230250E0,-6.759725732E-2,1.119044371E0,-5.897635462E-1,1.266748094E0
9.649228250E0,-3.703132670E-1,9.804858982E-1,-1.333422994E-1,1.056534278E0
9.659228250E0,-1.767041544E-1,7.811345091E-1,-3.795118143E-1,8.862418952E-1
9.669215250E0,-1.772767064E-1,7.758383936E-1,-3.795292829E-1,8.816999037E-1
9.679213250E0,-3.254308071E-1,4.878696739E-1,-6.632028937E-1,8.853022688E-1
9.689214250E0,-4.363991196E-1,4.146320919E-2,-8.780523279E-1,9.813965966E-1
9.699198250E0,-5.621124288E-1,-6.404215568E-1,-1.399451983E0,1.638467578E0
9.709196250E0,-5.781143577E-1,-6.163942514E-1,-1.398965056E0,1.634399373E0
9.719222250E0,1.940422269E-1,-1.946528443E0,6.037063050E-1,2.047214368E0
9.729217250E0,-4.105364371E-2,1.369054940E0,4.165937962E-1,1.431623980E0
9.739215250E0,-4.115984833E-2,1.376071306E0,4.166830027E-1,1.438364035E0
9.749220250E0,-1.085856671E0,-1.508456362E0,1.311896561E-1,1.863259518E0
9.759203250E0,-7.426816110E-1,-1.374863272E0,1.794752960E-1,1.572906982E0
9.769201250E0,-6.146350434E-1,-9.277799003E-1,-2.318215988E-1,1.136790673E0
9.779218250E0,-5.041194882E-1,-1.590065329E-1,-1.230551650E-1,5.427357640E-1
9.789201250E0,-6.771813937E-1,-5.503845222E-1,-4.259146142E-2,8.736771685E-1
9.799199250E0,-7.819436176E-1,-2.799956391E-1,-5.450026719E-1,9.934089246E-1
9.809198250E0,-3.683627455E-1,-1.349598860E-1,3.135445871E-1,5.022106044E-1
9.819210250E0,5.249945597E-1,4.579732988E-1,-5.972324871E-1,9.176303579E-1
9.829208250E0,5.307563695E-1,4.518570747E-1,-5.973907639E-1,9.180157213E-1
9.839197250E0,3.880508322E-1,-8.529345898E-1,2.735119541E-1,9.761606691E-1
9.849190250E0,2.466828639E-1,-1.081555898E0,-1.595962612E-1,1.120752677E0
9.859188250E0,3.887530920E-2,-1.067899872E0,1.322903397E-1,1.076764672E0
9.869196250E0,2.430857116E-1,-1.313589860E0,-2.015252468E-2,1.336044576E0
9.879193250E0,4.302991580E-1,-6.413880285E-2,-1.241179239E-1,4.524117709E-1
9.889191250E0,1.017867312E-1,2.509657849E-1,-9.506431530E-2,2.870219292E-1
9.899194250E0,-4.864043617E-1,-1.463450635E-1,-4.238288941E-2,5.097081419E-1
9.909191250E0,-6.340974277E-1,-3.758752482E-1,1.099428388E-1,7.452846287E-1
9.919189250E0,-6.616897074E-1,-4.056574929E-1,-2.354441910E-2,7.764957245E-1
9.929193250E0,-2.684592654E-1,-1.147364556E0,-1.563604851E-1,1.188681792E0
9.939156917E0,4.333412633E-2,-1.175646003E0,3.595412248E-2,1.176993658E0
9.949154917E0,4.495432584E-2,-1.177721107E0,3.592919187E-2,1.179126288E0
9.959170917E0,8.111061123E-2,-1.173657657E0,-2.417980702E-3,1.176459551E0
9.969165917E0,8.551613191E-2,-1.113287641E0,-9.298643413E-2,1.120432442E0
9.979163917E0,-1.804858342E-2,-6.383843869E-1,-2.118433806E-1,6.728580792E-1
9.989168917E0,7.876593257E-2,-7.569684054E-1,1.140156620E-1,7.695484456E-1
9.999167917E0,2.490722554E-1,-5.194433959E-1,4.906788659E-3,5.760924462E-1
1.000916592E1,3.083173956E-1,-8.073970590E-1,-2.059371811E-1,8.884591999E-1
1.001915692E1,5.258989412E-1,-2.789513630E-1,-2.246814542E-1,6.362902758E-1
1.002914892E1,1.603178259E-1,-4.716398132E-1,9.080646423E-2,5.063513925E-1
1.003914692E1,2.067983481E-1,3.558393206E-2,-9.982684504E-2,2.323729158E-1
1.004916692E1,2.641467977E-1,3.997747920E-1,-1.022609770E-1,4.899497142E-1
1.005915192E1,3.100371714E-1,1.140650564E0,-3.045407156E-1,1.220635819E0
1.006914992E1,6.783456748E-2,8.729613034E-1,8.013562457E-2,8.792523438E-1
1.007917292E1,-1.492840842E-1,-6.403070702E-2,-1.219194622E-1,2.031010204E-1
1.008914992E1,-2.877026165E-1,-4.486543354E-1,-1.151329096E-1,5.452697453E-1
1.009914792E1,-2.415214900E-1,-3.367998774E-1,-5.149436345E-2,4.176343581E-1
1.010917092E1,-3.703802907E-1,5.136309803E-2,-1.666476378E-1,4.093789965E-1
1.011916592E1,-4.299645511E-1,-3.540695192E-1,-1.274776426E-1,5.713889122E-1
1.012916392E1,-3.031441081E-1,-5.185796890E-1,-1.272365181E-1,6.140117065E-1
1.013916892E1,-4.479687128E-2,-3.493356499E-1,-6.096400686E-3,3.522489490E-1
1.014914892E1,3.692616453E-1,-4.091400946E-1,-6.704998534E-2,5.551985953E-1
1.015914692E1,7.235504716E-1,-3.059823283E-1,-2.334127907E-1,8.195315741E-1
1.016916692E1,4.954078678E-1,-5.300969132E-1,-1.035864677E-1,7.329132616E-1
1.017914792E1,-3.946952792E-2,-7.733544233E-1,-1.908339510E-1,7.975289991E-1
1.018914592E1,-6.307022419E-1,-6.890554076E-1,2.011164259E-1,9.555262892E-1
1.019916292E1,-3.506829215E-1,3.317214244E-1,-1.415565502E-1,5.030465901E-1
1.020916392E1,-3.467161110E-2,1.160788520E0,-2.787197950E-1,1.194285072E0
1.021916192E1,3.382542992E-2,3.568686179E-1,-1.671039901E-2,3.588573638E-1
1.022916092E1,1.301214338E-1,-3.098488179E-1,-1.338284223E-2,3.363286755E-1
1.023914492E1,-1.634250180E-1,-3.321763743E-1,-8.459829264E-2,3.797443236E-1
1.024914292E1,-1.579150222E-1,-3.322035639E-1,-8.466387282E-2,3.774444773E-1
1.025915892E1,-1.918401472E-1,-2.115240312E-1,-9.218239401E-3,2.857097019E-1
1.026914392E1,4.406765497E-2,-1.944735686E0,2.121765668E-2,1.945350621E0
1.027914192E1,-6.665512013E-2,-1.731922618E0,-1.942898747E-1,1.744060611E0
1.028915592E1,2.854094939E-2,-2.458998120E-1,-9.721007899E-2,2.659531967E-1
1.029914292E1,-2.342529208E-3,-3.246482624E-2,9.856616708E-2,1.038014532E-1
1.030914092E1,2.388135897E-1,-6.890095069E-1,-2.986375174E-2,7.298341421E-1
1.031915392E1,2.432286577E-1,-6.456965493E-1,-1.398407076E-2,6.901302544E-1
1.032915092E1,2.829043914E-1,-1.996495239E-1,-6.472028560E-2,3.522549396E-1
1.033914892E1,2.801460405E-1,-1.987541142E-1,-6.468032354E-2,3.495261738E-1
1.034913592E1,2.897441719E-1,1.984979441E0,5.819525889E-2,2.006858678E0
1.035913992E1,-4.057730120E-2,1.957190110E0,9.441152507E-3,1.957633464E0
1.036913792E1,-1.951536090E-2,1.950735661E0,9.180925714E-3,1.950854878E0
1.037914892E1,7.574795617E-2,5.910869173E-1,2.452541698E-1,6.444153199E-1
1.038913792E1,5.735174595E-1,1.700738248E0,-3.278984052E-1,1.824541101E0
1.039913592E1,5.827290169E-1,1.693407447E0,-3.279682429E-1,1.820649625E0
1.040914692E1,5.292341200E-1,1.835087383E0,-3.252889390E-1,1.937381571E0
1.041913392E1,-1.315988699E-1,1.247598331E0,-1.495414348E-1,1.263401163E0
1.042913192E1,-1.458653086E-1,1.244219663E0,-1.494782209E-1,1.261627123E0
1.043914492E1,-6.677835294E-1,9.316248831E-1,-1.806738656E-1,1.160389077E0
1.044913692E1,-6.505846024E-1,1.092620365E0,-7.268718089E-2,1.273720147E0
1.045913492E1,-6.569899347E-1,1.085810332E0,-7.264205226E-2,1.271179263E0
1.046914192E1,-1.658242950E-1,3.893924028E-1,-1.536266377E-1,4.502502459E-1
1.047913492E1,1.924091361E-1,4.434678186E-1,-1.739821841E-1,5.137652987E-1
1.048913292E1,1.898757203E-1,4.452765086E-1,-1.739588135E-1,5.143788750E-1
1.049913892E1,1.574373047E-1,8.186334340E-1,1.052770987E-1,8.402561941E-1
1.050913892E1,1.502204884E-1,8.362160846E-1,1.053894292E-1,8.561135830E-1
1.051913692E1,-2.745230975E-2,6.329700845E-1,-2.012946381E-1,6.647738627E-1
1.052913792E1,-5.305804779E-1,-5.454431499E-1,1.605394856E-2,7.611055134E-1
1.053913692E1,-5.421336624E-1,-5.534962277E-1,1.617971623E-2,7.749379105E-1
1.054913492E1,-5.295506370E-1,-8.612054032E-1,2.767660940E-1,1.048188005E0
1.055913492E1,-6.360249623E-1,-2.735464161E-1,3.592805578E-1,7.800243032E-1
1.056913492E1,-6.267705010E-1,-2.481485415E-1,3.592973320E-1,7.638805747E-1
1.057913292E1,-1.090395718E-1,-1.865046748E-2,-3.770669473E-1,3.929592229E-1
1.058913292E1,2.363988541E-1,-7.342966764E-2,-2.571057267E-1,3.569029126E-1
1.059913292E1,2.354633909E-1,-7.707495435E-2,-2.571320209E-1,3.570720281E-1
1.060913092E1,1.323804233E-1,8.771107800E-1,4.045103423E-1,9.749238503E-1
1.061913092E1,-2.360521142E-1,1.203792818E0,3.200146409E-1,1.267772503E0
1.062912892E1,-2.195090437E-1,1.169765531E0,3.196457912E-1,1.232359140E0
1.063912692E1,3.821099515E-1,7.139488319E-1,8.209340210E-1,1.153110409E0
1.064910492E1,1.127350048E0,3.016177290E-1,4.672966842E-1,1.257082963E0
1.065912692E1,9.017811330E-1,1.138299690E0,-2.713382699E-1,1.477348928E0
1.066912492E1,9.212299224E-1,1.100451175E0,-2.709347207E-1,1.460500935E0
1.067911092E1,5.194414590E-1,5.252936631E-2,-7.662884286E-1,9.272414569E-1
1.068912492E1,1.183586540E-1,1.588975920E-1,-6.311182713E-1,6.614888420E-1
1.069912292E1,-1.875501912E-1,-1.454407642E-1,-6.265951576E-1,6.700370002E-1
1.070910892E1,-5.368815837E-1,-1.666856447E-1,-1.531274956E-1,5.826439470E-1
1.071912292E1,-4.192902762E-1,5.122665965E-1,1.562115639E-1,6.801642848E-1
1.072912092E1,-3.980380958E-1,6.939240186E-1,3.627088534E-1,8.783635817E-1
1.073910892E1,-1.339284280E-1,9.617184556E-1,1.923408881E-1,9.898657630E-1
1.074912092E1,-8.258761791E-2,5.846758108E-1,3.455146407E-1,6.841395218E-1
1.075911892E1,5.016976811E-2,3.529926082E-1,4.456887373E-1,5.707532196E-1
1.076910692E1,4.483678584E-1,3.340709819E-1,2.983728167E-1,6.337692759E-1
1.077911692E1,2.901133139E-1,3.341503213E-1,5.152123872E-1,6.791656470E-1
1.078911492E1,1.250650906E-1,2.471194499E-1,7.968779911E-1,8.436372633E-1
1.079910592E1,-2.099889361E-1,2.374123592E-1,1.043660532E0,1.090727870E0
1.080911592E1,-4.642120586E-1,3.952096149E-1,1.015461019E0,1.184417391E0
1.081911392E1,-4.136780821E-1,2.954071820E-1,8.107479521E-1,9.569259117E-1
1.082910492E1,-5.353053571E-1,7.706599167E-2,7.234302382E-1,9.032398917E-1
1.083911392E1,-4.187990370E-1,3.628266017E-1,2.655614218E-1,6.144580092E-1
1.084911192E1,-4.536739508E-1,6.366698371E-1,-1.277735574E-1,7.921455782E-1
1.085909592E1,-1.096341332E-1,3.582629230E-1,9.260725133E-2,3.859379071E-1
1.086911092E1,2.325511486E-1,6.592382189E-3,2.078361375E-1,3.119605043E-1
1.087910892E1,3.865440778E-1,1.402568878E-2,4.302193435E-1,5.785341197E-1
1.088910792E1,3.163383137E-1,1.519410316E-1,4.310612695E-1,5.558505409E-1
1.089910892E1,2.575076315E-1,1.840512539E-2,2.440958181E-1,3.552910037E-1
1.090910692E1,2.385706379E-1,1.498390124E-1,2.345842803E-1,3.666025961E-1
1.091909092E1,2.454557708E-1,1.543801611E-1,2.346178653E-1,3.729977376E-1
1.092910592E1,-1.090439024E-1,1.813043051E-1,5.871818178E-1,6.241348499E-1
1.093910392E1,-9.592501631E-2,1.825753619E-1,5.872833401E-1,6.224444498E-1
1.094910392E1,-8.167972804E-2,1.574490951E-2,5.894790792E-1,5.953192966E-1
1.095910392E1,-7.747170438E-1,4.469497989E-1,4.697828106E-1,1.010270513E0
1.096910192E1,-6.427598584E-1,7.526906555E-1,6.325926467E-1,1.174673110E0
1.097910092E1,-1.381906371E-1,8.063114503E-1,5.922594302E-1,1.009953484E0
1.098910092E1,2.759932566E-1,6.857840366E-1,5.446837793E-1,9.182333265E-1
1.099909892E1,3.057699830E-1,6.760551468E-1,5.455018048E-1,9.209332566E-1
1.100909992E1,5.003150704E-1,4.728268345E-1,2.045534923E-1,7.181382293E-1
1.101909892E1,3.012532328E-2,6.808206002E-2,-1.638693698E-1,1.799885340E-1
1.102909692E1,7.452374107E-2,-2.686165555E-1,-1.081863443E-1,2.990199441E-1
1.103909692E1,-2.668366265E-1,-5.455892572E-1,2.500263383E-1,6.567972234E-1
1.104909692E1,-3.641708035E-1,-3.519207405E-1,1.585019000E-1,5.306518953E-1
1.105909492E1,-3.678096720E-1,-3.599939546E-1,1.585794121E-1,5.385415788E-1
1.106909492E1,-4.332890221E-1,1.846179770E-1,3.289368341E-1,5.744759481E-1
1.107909392E1,-2.755038081E-1,6.547495741E-1,3.676430994E-1,7.998504870E-1
1.108909192E1,-5.641050480E-3,5.484485091E-1,2.180908564E-1,5.902467368E-1
1.109909192E1,1.713619189E-1,3.103549310E-1,3.984229248E-2,3.567527137E-1
1.110907892E1,2.564168882E-1,-1.957072215E-1,-1.723538077E-1,3.657277295E-1
1.111907692E1,2.596874735E-1,-2.030450569E-1,-1.721482049E-1,3.718869229E-1
1.112908992E1,3.091232881E-1,-1.566082061E-1,-3.057425925E-2,3.478765913E-1
1.113907792E1,6.323579541E-1,1.857769317E-1,-7.459123073E-2,6.632899081E-1
1.114907592E1,5.738902195E-1,7.191540780E-2,-1.603214986E-1,6.001872982E-1
1.115908692E1,3.025727803E-1,1.905727449E-1,-4.556391999E-1,5.792023299E-1
1.116907692E1,-8.375214800E-3,6.143410815E-3,-7.031747523E-1,7.032514614E-1
1.117907492E1,-6.245407612E-3,5.454705313E-3,-7.030912833E-1,7.031401792E-1
1.118908492E1,3.489665810E-2,-4.470710556E-1,-5.045118729E-1,6.749981744E-1
1.119907592E1,-2.075806507E-1,-1.043901697E-2,1.028671414E-1,2.319059042E-1
1.120907392E1,-1.996161035E-1,-2.690553342E-2,1.034441062E-1,2.264314015E-1
1.121908192E1,-1.073473602E-1,3.912933326E-1,7.489086033E-1,8.517617179E-1
1.122907392E1,1.947703423E-2,6.741051735E-1,9.969729267E-1,1.203641207E0
1.123907192E1,2.389090546E-2,6.704508099E-1,9.972313005E-1,1.201892396E0
1.124907992E1,1.773384494E-1,-2.960188921E-1,3.007928513E-1,4.577689914E-1
1.125907292E1,-5.042934794E-2,-4.030831831E-1,-1.715567773E-1,4.409658711E-1
1.126907092E1,-5.839441597E-2,-4.113917477E-1,-1.716455454E-1,4.495723202E-1
1.127907792E1,-2.635778453E-1,-3.562610191E-1,-2.390276343E-1,5.035170347E-1
1.128907192E1,-2.587817580E-1,6.411707679E-2,5.961361981E-2,2.731900099E-1
1.129906992E1,-2.540397575E-1,8.342131209E-2,5.935595403E-2,2.738949488E-1
1.130907592E1,6.913870214E-2,2.561121752E-1,-7.234320929E-2,2.749675369E-1
1.131907092E1,3.740939670E-1,4.080451303E-1,3.660613910E-1,6.636626150E-1
1.132906892E1,3.700109294E-1,3.997631341E-1,3.660515239E-1,6.562868042E-1
1.133907392E1,1.031985140E-1,4.436888433E-1,9.676268477E-2,4.656959740E-1
1.134906892E1,-4.154206254E-1,-6.733220851E-1,-1.878178841E-1,8.131497303E-1
1.135906692E1,-4.239637730E-1,-7.333406840E-1,-1.861273809E-1,8.672815238E-1
1.136907092E1,-5.917073069E-1,-5.898849125E-1,-1.984426769E-1,8.587556364E-1
1.137904592E1,-2.902061933E-1,-6.222283839E-1,1.424793413E-1,7.012047911E-1
1.138904392E1,-2.680761448E-1,-6.191444162E-1,1.432379445E-1,6.897258414E-1
1.139906892E1,-1.683422979E-2,-2.808022625E-1,-4.758253507E-2,2.853022951E-1
1.140905092E1,-1.611481899E-2,-3.481652201E-1,-2.438469460E-1,4.253704749E-1
1.141904892E1,3.331579311E-3,-3.514544982E-1,-2.428271550E-1,4.271959631E-1
1.142906492E1,2.633157073E-1,4.601812166E-2,-2.915689965E-1,3.955569605E-1
1.143903692E1,1.269583368E-1,-2.170778263E-1,-1.135062964E-1,2.759073781E-1
1.144903492E1,1.359456443E-1,-2.541590590E-1,-1.113848809E-1,3.090058853E-1
1.145906392E1,-9.819599264E-2,-5.281410926E-1,-7.985815591E-2,5.430955641E-1
1.146906292E1,-6.618314476E-2,-3.167486420E-1,9.032331976E-2,3.359586477E-1
1.147906092E1,8.983166029E-2,-2.075794995E-1,3.809974091E-1,4.430778730E-1
1.148906192E1,6.194860032E-2,1.481142391E-1,8.510126831E-1,8.660242743E-1
1.149906192E1,8.379247324E-2,3.842513115E-1,8.749009710E-1,9.592298775E-1
1.150905992E1,1.507756998E-1,2.451470378E-1,5.565076168E-1,6.265230318E-1
1.151905892E1,2.007081075E-1,2.718389286E-2,1.644360381E-1,2.608867936E-1
1.152905892E1,2.063716292E-1,-8.410729783E-3,1.669225848E-1,2.655619307E-1
1.153905692E1,5.147910131E-2,-6.303653692E-1,2.337214323E-2,6.328956104E-1
1.154905592E1,4.362461783E-1,-4.934936355E-1,3.727486460E-2,6.597242697E-1
1.155905592E1,4.460763346E-1,-5.020316302E-1,3.839850987E-2,6.726769652E-1
1.156905392E1,4.791033089E-1,-2.845461799E-1,-4.242593497E-2,5.588438682E-1
1.157905392E1,6.223984191E-2,-2.203262469E-1,-2.107160374E-1,3.111570366E-1
1.158905392E1,8.046682365E-2,-1.885801417E-1,-2.117373632E-1,2.947373247E-1
1.159905192E1,2.297126178E-1,1.175445206E-1,-2.621791548E-1,3.678620805E-1
1.160905192E1,2.100410860E-1,4.579482654E-1,-5.598477839E-2,5.069202768E-1
1.161905192E1,2.307070830E-1,4.678925154E-1,-5.531503923E-2,5.246035815E-1
1.162904992E1,1.029724643E-1,1.976408912E-2,1.802647981E-1,2.085409913E-1
1.163904992E1,9.702107688E-2,-1.314299310E-1,3.118192931E-1,3.520201523E-1
1.164904892E1,3.495569671E-1,-1.110644261E-1,4.401556633E-1,5.729418713E-1
1.165904692E1,1.533470129E-1,-3.123573465E-1,4.796983362E-1,5.926153154E-1
1.166902192E1,-5.966197926E-3,-2.862045051E-1,1.935201070E-1,3.455410917E-1
1.167904692E1,-3.612723890E-2,-2.791857998E-1,2.157225719E-3,2.815218318E-1
1.168904492E1,-4.343361579E-2,-2.445023640E-1,-1.658422250E-4,2.483302489E-1
1.169902492E1,2.235482272E-1,-5.475341416E-2,-7.486225831E-2,2.420250069E-1
1.170904492E1,1.339759001E-1,1.269907603E-3,-1.889459581E-1,2.316284300E-1
1.171904292E1,1.159396518E-1,-3.197926294E-1,8.086707242E-3,3.402568493E-1
1.172904192E1,8.033716165E-2,-3.929232805E-1,2.483921329E-1,4.717429550E-1
1.173902092E1,-2.543385319E-2,-4.128648806E-1,5.758251728E-1,7.089985332E-1
1.174901892E1,-2.786329821E-1,-7.560905921E-1,1.078479531E0,1.346264247E0
1.175902392E1,-3.312801424E-1,-5.021561394E-1,1.028145018E0,1.191213457E0
1.176904092E1,-5.379723452E-1,1.843057540E-1,8.019551285E-1,9.831148881E-1
1.177903892E1,-5.285958964E-1,4.584412588E-1,6.397900575E-1,9.481103982E-1
1.178903492E1,-2.374168543E-1,2.733947905E-1,4.745087496E-1,5.968835964E-1
1.179903792E1,2.326170029E-1,1.256088999E-1,9.572080230E-2,2.811596304E-1
1.180903592E1,3.984072744E-1,-2.829368526E-2,-3.751796122E-1,5.479859764E-1
1.181903392E1,1.912709755E-1,-4.294377535E-1,-5.243427048E-1,7.042276921E-1
1.182903592E1,1.966881833E-1,-5.239909948E-1,-3.973625962E-1,6.864035525E-1
1.183903392E1,1.766858270E-1,-4.208165822E-1,-5.681874666E-2,4.599270021E-1
1.184903092E1,1.300418568E-1,-2.575160003E-1,1.331737991E-1,3.177430341E-1
1.185903292E1,-1.783675045E-1,1.165241084E-1,3.225291629E-1,3.865461103E-1
1.186903092E1,-4.824027100E-1,5.991174833E-1,2.475874281E-1,8.080554857E-1
1.187901192E1,-3.830021270E-1,4.956552781E-1,-1.686347592E-1,6.486928903E-1
1.188903092E1,-5.430157514E-1,1.603803911E-1,-1.951172375E-1,5.988812173E-1
1.189902892E1,-4.619725019E-1,-4.537788717E-1,-1.992753021E-1,6.775282304E-1
1.190902492E1,-8.064471057E-1,-1.232375105E0,1.558374882E-1,1.481010012E0
1.191902792E1,-7.905966197E-1,-8.053191047E-1,5.128719660E-1,1.239604586E0
1.192902592E1,-2.550386812E-1,-2.259173545E-1,1.059349196E0,1.112791130E0
1.193902092E1,1.461440838E-1,-2.203331905E-1,1.348186666E0,1.373867568E0
1.194899492E1,-2.364644160E-2,-6.204995358E-2,9.259474560E-1,9.283253967E-1
1.195899292E1,-3.289401598E-1,4.134268711E-1,5.468808706E-1,7.603960107E-1
1.196901892E1,-2.773235712E-1,9.096378174E-1,2.945874572E-1,9.955556699E-1
1.197902392E1,3.759393300E-2,8.746146036E-1,2.066410580E-1,8.994801473E-1
1.198902192E1,3.648688377E-2,8.744812140E-1,2.065664694E-1,8.992877140E-1
1.199901992E1,1.933165691E-1,3.594326950E-1,2.791538045E-1,4.944593054E-1
1.200902092E1,5.679493022E-1,1.635656983E-1,3.752830349E-1,7.001124937E-1
1.201901892E1,1.531316983E-1,-1.248869515E-1,2.255433520E-1,2.998597528E-1
1.202899492E1,-3.650848695E-1,7.661523529E-2,-1.774614602E-1,4.130973566E-1
1.203901892E1,-5.509479380E-1,7.643410408E-2,-4.379512995E-1,7.079457207E-1
1.204901692E1,-5.612298282E-1,6.512261515E-2,-4.379948978E-1,7.148841903E-1
1.205900592E1,-6.692726690E-1,2.134025634E-2,-6.429717468E-1,9.283285945E-1
1.206901692E1,-6.895413843E-1,1.385888599E-1,-1.092121743E0,1.299001191E0
1.207901492E1,-6.500002462E-1,1.259867397E-1,-1.088946340E0,1.274432073E0
1.208900292E1,-5.878392275E-1,-3.699158025E-1,-5.891733429E-1,9.107787252E-1
1.209901392E1,3.165748701E-1,-6.847227487E-2,1.988795187E-1,3.800804701E-1
1.210901192E1,3.571954041E-1,-8.963015062E-2,2.033295787E-1,4.206721268E-1
1.211900092E1,1.438720476E-1,-2.437522576E-1,7.475799698E-1,7.993685886E-1
1.212901192E1,-5.941606615E-2,2.694732822E-1,8.285748701E-1,8.733169150E-1
1.213900992E1,-5.135989577E-2,2.612266799E-1,8.298023468E-1,8.714637984E-1
1.214900392E1,5.047332540E-2,5.732660932E-2,6.786790118E-1,6.829634673E-1
1.215900992E1,-5.082611807E-1,-2.258103688E-1,3.146923225E-1,6.390234802E-1
1.216900792E1,-5.371898050E-1,-2.339145914E-1,3.127856916E-1,6.641715227E-1
1.217898992E1,-4.577918889E-1,-2.802559316E-1,3.057016619E-2,5.376349466E-1
1.218900792E1,-6.289482965E-1,1.046115302E-2,-1.484689367E-1,6.463191321E-1
1.219900592E1,-6.463703679E-1,1.574944795E-2,-1.501405003E-1,6.637656721E-1
1.220898792E1,-2.932820480E-1,-2.264632789E-2,-3.701962131E-1,4.728344869E-1
1.221900392E1,2.506513508E-1,2.060904878E-1,1.377993122E-1,3.525450883E-1
1.222900192E1,2.491986649E-1,1.947384110E-1,1.384303090E-1,3.452332165E-1
1.223897592E1,2.157252922E-1,2.240361408E-1,1.699761653E-1,3.544312216E-1
1.224899992E1,-2.685759904E-1,-9.385057951E-2,-5.397932504E-2,2.895768662E-1
1.225899792E1,-2.939120124E-1,-1.319535857E-1,-5.300894762E-2,3.265056942E-1
1.226898492E1,-3.218865539E-1,-3.309632964E-1,-2.689245941E-1,5.342921433E-1
1.227899492E1,-4.599119066E-1,-1.145472689E0,-2.845332612E-1,1.266722472E0
1.228899292E1,-4.671393575E-1,-1.155088216E0,-2.842448290E-1,1.277983994E0
1.229898092E1,-5.690591403E-1,-8.231034842E-1,-2.396012096E-1,1.028949168E0
1.230896892E1,-5.828678517E-1,4.227154107E-2,3.950562351E-1,7.054014776E-1
1.231896692E1,-5.893581514E-1,5.186340499E-2,3.938677154E-1,7.107493375E-1
1.232898292E1,-3.644212105E-1,5.436414766E-1,5.168949235E-1,8.339839541E-1
1.233896792E1,4.132042749E-2,2.264775909E-1,2.496713940E-1,3.396104856E-1
1.234896592E1,3.530816047E-2,2.103336295E-1,2.506113705E-1,3.290789585E-1
1.235898192E1,-1.783203345E-3,-3.206947086E-1,2.019376125E-1,3.789816292E-1
1.236896692E1,1.428810885E-2,-4.242912536E-1,6.052138177E-2,4.288240380E-1
1.237896492E1,-1.393574558E-2,-4.377800492E-1,6.000466150E-2,4.420929041E-1
1.238898092E1,-2.267901611E-1,-2.625231355E-1,8.153939486E-2,3.563717817E-1
1.239896592E1,-4.567685166E-1,-2.708087497E-1,-3.271991513E-1,6.237260146E-1
1.240896392E1,-4.662387401E-1,-2.588164576E-1,-3.287567034E-1,6.264547003E-1
1.241897192E1,-4.346835830E-1,9.917236802E-2,-2.129763882E-1,4.941092166E-1
1.242896392E1,-3.488255854E-2,4.487194862E-2,1.893827040E-2,5.990778538E-2
1.243896192E1,-1.347582552E-2,7.176776561E-2,1.797545097E-2,7.520190750E-2
1.244897792E1,3.556901481E-1,3.039186723E-2,3.931029362E-1,5.310075946E-1
1.245896292E1,9.608673933E-1,2.621330714E-1,7.916583279E-1,1.272282517E0
1.246896092E1,9.479683625E-1,2.508315913E-1,7.917939102E-1,1.260356338E0
1.247898392E1,8.415931841E-1,2.159342023E-1,8.965132302E-1,1.248456102E0
1.248896492E1,4.535637308E-1,8.532911237E-2,8.716051148E-1,9.862538169E-1
1.249896292E1,2.047669157E-1,-2.907906910E-2,6.350774210E-1,6.679059909E-1
1.250898192E1,1.175625191E-1,-2.160354779E-2,5.501684676E-1,5.630035541E-1
1.251898192E1,-1.838990436E-1,3.308450364E-1,5.334788331E-1,6.541230478E-1
1.252897992E1,-2.648929389E-1,6.848370069E-1,2.144557886E-1,7.649583521E-1
1.253897992E1,-3.682489806E-1,5.283409212E-1,9.397127884E-2,6.508318078E-1
1.254897392E1,-2.492659262E-1,4.890622501E-1,-6.392688239E-2,5.526319143E-1
1.255897192E1,-5.723115809E-2,4.713104323E-1,-1.621920777E-1,5.017122672E-1
1.256897692E1,-1.481046826E-1,-3.026670849E-1,4.417046090E-2,3.398431858E-1
1.257897692E1,-7.609559141E-2,-6.946715851E-1,1.017858267E-1,7.062007538E-1
1.258897492E1,3.303212355E-1,-3.735267871E-1,-1.129563201E-1,5.112665739E-1
1.259895192E1,3.370014967E-1,-3.196897550E-1,-2.515084739E-3,4.645189704E-1
1.260897392E1,2.295556748E-1,-4.222228010E-1,1.573279435E-1,5.056876342E-1
1.261897192E1,2.164965948E-1,-4.038045468E-1,1.553842742E-1,4.838110791E-1
1.262897292E1,4.379867483E-1,-5.434204518E-1,1.822753814E-1,7.213615555E-1
1.263897292E1,1.504910957E-1,-3.703691810E-1,1.305510306E-1,4.205525790E-1
1.264897092E1,-1.275926044E-1,-1.569188577E-1,5.893002549E-2,2.106564703E-1
1.265897092E1,-1.506099952E-1,-3.152496352E-1,-1.267905308E-1,3.716739725E-1
1.266896992E1,-1.031620603E-1,-7.979713473E-1,-4.197759240E-1,9.075309958E-1
1.267896792E1,8.147749546E-3,-7.424062072E-1,-4.534175869E-1,8.699545220E-1
1.268896792E1,2.524998202E-1,-5.325388201E-1,-2.815569371E-1,6.531677142E-1
1.269896792E1,5.328533272E-1,-4.447308172E-1,-2.236920504E-1,7.292162241E-1
1.270896592E1,5.357160509E-1,-4.858171185E-1,-2.194484885E-1,7.557563092E-1
1.271896492E1,3.515815289E-1,-2.865757485E-1,-1.750926252E-1,4.862022814E-1
1.272896492E1,-1.930980386E-2,-3.901511521E-1,-6.428572785E-3,3.906816051E-1
1.273896292E1,3.942192793E-2,-4.357288094E-1,-9.667726974E-2,4.480626945E-1
1.274893492E1,1.797250818E-1,-2.873264030E-1,-2.726010538E-2,3.400010004E-1
1.275896392E1,2.759692464E-1,-4.410537956E-1,-1.391103675E-1,5.385528479E-1
1.276896192E1,3.084772073E-1,-4.796243324E-1,-1.325834770E-1,5.854708071E-1
1.277895292E1,3.239793089E-1,-6.554478047E-1,-5.279384135E-1,9.018278027E-1
1.278896092E1,2.580234290E-1,-3.416068003E-1,-6.330172276E-1,7.641872195E-1
1.279895892E1,1.290387122E-1,-9.441074277E-2,-8.338708395E-1,8.490612195E-1
1.280893292E1,1.483477349E-1,-3.224867706E-1,-7.086546897E-1,7.925883149E-1
1.281895892E1,1.167787729E-1,-5.967753445E-1,-6.049601308E-1,8.577615365E-1
1.282895692E1,-6.893580832E-2,-6.100350023E-1,-3.547576634E-1,7.090471419E-1
1.283893192E1,-1.000919432E-1,-2.289674267E-1,-2.419231389E-1,3.478092649E-1
1.284895592E1,-1.990306510E-1,1.543003649E-1,-3.619078854E-2,2.544240079E-1
1.285895392E1,-2.089198275E-1,1.472854054E-1,-3.570277215E-2,2.580991533E-1
1.286892892E1,2.058640726E-1,2.724650147E-2,-2.160440386E-1,2.996621679E-1
1.287895392E1,4.313802351E-1,-4.469588804E-2,-2.230677140E-1,4.876944071E-1
1.288895192E1,3.280114026E-1,4.089817172E-2,-3.433853771E-1,4.766315746E-1
1.289892892E1,1.894934403E-1,-3.925265104E-2,-3.330998690E-1,3.852324717E-1
1.290895092E1,1.932093824E-1,-3.272332844E-1,-2.868178780E-1,4.761050126E-1
1.291894892E1,-2.968703563E-2,-3.632440564E-1,-1.892755218E-1,4.106735781E-1
1.292893892E1,-3.186031322E-3,-1.941819753E-1,-2.090905845E-1,2.853693446E-1
1.293894992E1,2.090427062E-4,-2.351010097E-1,-2.018323626E-1,3.098529185E-1
1.294894792E1,8.428324649E-2,-2.536451253E-1,-1.550515128E-1,3.089991696E-1
1.295892692E1,3.569889609E-1,-4.226755583E-1,-3.383479643E-1,6.485176101E-1
1.296894692E1,2.872946088E-1,-5.920643159E-1,-3.217718754E-1,7.325404332E-1
1.297894492E1,2.796491185E-1,-6.089887893E-1,-3.190372057E-1,7.421965465E-1
1.298892592E1,2.212055585E-1,-3.928295423E-1,-3.568351426E-1,5.749593615E-1
1.299894492E1,-1.937998187E-2,-4.166517567E-1,-4.388489567E-1,6.054441980E-1
1.300894292E1,-3.264719084E-2,-4.147834617E-1,-4.398130530E-1,6.054309876E-1
1.301891692E1,-2.030721734E-1,-2.972718773E-1,-7.259674182E-1,8.103317647E-1
1.302894292E1,-2.034884220E-1,-2.737870656E-1,-6.159151451E-1,7.040726959E-1
1.303894092E1,-2.041353068E-1,-2.781840438E-1,-6.151303026E-1,7.052963029E-1
1.304891292E1,-1.351932812E-1,-2.684181887E-1,-5.059781353E-1,5.885060923E-1
1.305893992E1,6.109395209E-2,-1.144104678E-1,-5.595535776E-1,5.743887467E-1
1.306893792E1,5.000119928E-2,6.306252231E-2,-4.999094564E-1,5.063461921E-1
1.307893792E1,9.650528851E-2,1.297388888E-1,-4.246386147E-1,4.543824415E-1
1.308893892E1,8.220659872E-2,-2.499979793E-1,-2.916455585E-1,3.928282657E-1
1.309893692E1,8.265736423E-2,-2.978899828E-1,-2.818919460E-1,4.183703514E-1
1.310893592E1,1.953102869E-1,-4.978084422E-1,-2.466505397E-1,5.888937442E-1
1.311893592E1,-5.750573969E-2,-4.402623384E-1,-5.141002102E-1,6.792914418E-1
1.312893392E1,-6.137188670E-2,-4.608592286E-1,-5.098823578E-1,6.900273588E-1
1.313893392E1,-2.199931201E-1,-3.425769630E-1,-9.189160330E-1,1.005068467E0
1.314893192E1,-6.816292518E-2,-4.124940940E-1,-1.216450797E0,1.286293164E0
1.315892992E1,-8.586600554E-2,-4.106371279E-1,-1.217673523E0,1.287914838E0
1.316893192E1,3.457448337E-2,-5.413119093E-1,-1.326025280E0,1.432674779E0
1.317893092E1,-3.803466003E-2,-1.952152331E-1,-9.719594883E-1,9.920992236E-1
1.318892892E1,-5.318537365E-2,-1.937150021E-1,-9.728897803E-1,9.934126588E-1
1.319892792E1,-1.234463529E-1,9.475809479E-2,-7.419718321E-1,7.581162828E-1
1.320890092E1,-3.001325362E-1,2.415703143E-1,-5.249874334E-1,6.511893436E-1
1.321889892E1,-5.962697705E-2,2.697301394E-1,-3.684838194E-1,4.605323546E-1
1.322892692E1,1.024209714E-1,2.276054822E-1,-3.102059732E-1,3.981482848E-1
1.323891192E1,1.800171685E-1,4.503661078E-1,-2.372911574E-1,5.399471320E-1
1.324890992E1,-6.252097878E-2,4.574229662E-1,-2.370273018E-1,5.189668434E-1
1.325892492E1,-7.034226011E-2,4.460769558E-1,-2.348763853E-1,5.090182712E-1
1.326889992E1,3.183973010E-1,1.038759117E-2,-4.531608941E-1,5.539309879E-1
1.327889792E1,3.138982340E-1,-6.985747340E-3,-4.494814241E-1,5.482831865E-1
1.328892192E1,2.757537583E-1,-3.869925227E-1,-4.878997140E-1,6.810649593E-1
1.329891792E1,-7.713762919E-2,-2.768755831E-1,-5.789547488E-1,6.463736563E-1
1.330891592E1,-7.001334967E-2,-2.852820154E-1,-5.767466940E-1,6.472437304E-1
1.331891892E1,-4.237340139E-2,-2.636098405E-1,-6.442771377E-1,6.974085484E-1
1.332888892E1,-1.447083000E-1,-1.057830382E-1,-3.993803973E-1,4.377616303E-1
1.333888692E1,-1.528962839E-1,-1.022668973E-1,-4.005249166E-1,4.407448250E-1
1.334891692E1,-1.079297886E-1,1.469654348E-1,-3.431116909E-1,3.885528416E-1
1.335889892E1,1.364577622E-2,1.174176406E-2,-3.177907986E-1,3.183002794E-1
1.336889692E1,7.019121009E-3,1.835424205E-2,-3.195428437E-1,3.201464902E-1
1.337891492E1,1.364386194E-1,2.185072878E-1,-2.340490774E-1,3.480515799E-1
1.338888692E1,7.376981570E-2,3.294185351E-1,-2.268045964E-1,4.066926136E-1
1.339888492E1,9.852456962E-2,1.738628826E-1,-2.315241765E-1,3.058411959E-1
1.340891292E1,3.311769070E-2,-2.816601222E-1,-8.884744599E-2,2.971919826E-1
1.341889492E1,-1.378119294E-2,-5.431608720E-1,-4.152767474E-2,5.449203629E-1
1.342889292E1,-4.299238855E-2,-3.482927625E-1,1.955141172E-1,4.017237408E-1
1.343889392E1,-1.330561605E-1,2.676907585E-1,1.253337519E-1,3.241463148E-1
1.344889192E1,-2.782111968E-1,3.553528368E-1,-5.720865545E-2,4.549175079E-1
1.345888992E1,-3.170863187E-1,3.451634423E-1,-4.851816723E-1,6.745982438E-1
1.346890792E1,-3.130056566E-1,3.432164657E-1,-8.028810351E-1,9.275710430E-1
1.347888992E1,-3.130607666E-1,3.524684419E-1,-9.605319093E-1,1.069982521E0
1.348888792E1,-3.786368516E-1,4.655522039E-1,-1.207270888E0,1.348186826E0
1.349890592E1,-4.645661806E-1,1.225833587E-1,-1.385161242E0,1.466124170E0
1.350890292E1,-5.793058376E-1,-5.842832799E-1,-1.191358275E0,1.447866273E0
1.351890092E1,-5.767108798E-1,-7.788565801E-1,-1.220390651E0,1.558385817E0
1.352890392E1,-5.516007796E-1,-5.071647181E-1,-9.393212807E-1,1.201583930E0
1.353888892E1,-4.559991326E-1,-1.474117053E-1,-5.654820696E-1,7.412390915E-1
1.354888692E1,-3.551250147E-1,7.116654393E-2,-3.643209673E-1,5.137199824E-1
1.355890092E1,-1.438403904E-1,1.676033287E-1,-3.526198117E-1,4.160789172E-1
1.356887292E1,-1.087814904E-1,2.285888012E-1,-4.681648860E-1,5.322260922E-1
1.357887092E1,-7.716824485E-2,4.001730604E-1,-4.910459911E-1,6.381375884E-1
1.358889892E1,-7.685742879E-2,5.389062186E-1,-5.274730848E-1,7.579939525E-1
1.359888592E1,-1.567401704E-1,1.210969965E-1,-4.767066814E-1,5.162181939E-1
1.360888392E1,-2.203066633E-2,-4.545503753E-1,-6.719206537E-1,8.115286556E-1
1.361886892E1,8.874723019E-2,-6.253176872E-1,-6.792296002E-1,9.274972402E-1
1.362888492E1,1.456375413E-1,-4.554346936E-1,-6.845770982E-1,8.350310515E-1
1.363888292E1,1.518742272E-1,-4.420651812E-1,-6.873676819E-1,8.312410814E-1
1.364886792E1,2.008959311E-1,5.844761192E-2,-7.644690675E-1,7.925832786E-1
1.365888392E1,3.457756823E-1,2.779740557E-1,-6.894733373E-1,8.198804065E-1
1.366888192E1,3.414756034E-1,2.840486732E-1,-6.909292940E-1,8.213845176E-1
1.367886692E1,1.330556306E-1,1.701371465E-1,-5.939782558E-1,6.320289691E-1
1.368889192E1,9.246528276E-2,-2.122529963E-1,-7.072126932E-1,7.441444459E-1
1.369888992E1,-1.297822405E-1,-5.715419777E-1,-8.833702243E-1,1.060116322E0
1.370886592E1,-2.969887990E-1,-4.864681694E-1,-9.530424301E-1,1.110469946E0
1.371886592E1,-4.153737381E-1,-3.938627453E-1,-7.953776687E-1,9.799432842E-1
1.372886392E1,-4.087204107E-1,-3.999730126E-1,-7.937973125E-1,9.783378548E-1
1.373886492E1,-2.845641235E-1,-2.410212927E-2,-7.252742308E-1,7.794744145E-1
1.374888792E1,-1.010965953E-1,-5.531423980E-2,-7.111670190E-1,7.204434160E-1
1.375888592E1,1.609847374E-1,-1.085210883E-1,-7.464023405E-1,7.712388516E-1
1.376886292E1,3.514826379E-1,-6.800257900E-2,-7.451801994E-1,8.267151414E-1
1.377888492E1,3.430427303E-1,-1.616004126E-1,-5.956452604E-1,7.061064257E-1
1.378888292E1,2.556070671E-1,-1.710581926E-1,-4.000465048E-1,5.046118151E-1
1.379886192E1,2.268022758E-1,-1.226347959E-1,-2.860017894E-1,3.850656944E-1
1.380888292E1,8.076729745E-2,-8.799771764E-2,-3.460992526E-1,3.661306424E-1
1.381888092E1,3.680991731E-2,3.276567005E-2,-4.697458635E-1,4.723237613E-1
1.382886092E1,-2.317312045E-1,-1.739836391E-2,-5.631087578E-1,6.091744638E-1
1.383887692E1,-2.229014521E-1,9.229187627E-2,-6.353716821E-1,6.796322698E-1
1.384887492E1,-1.707147052E-1,2.498251393E-1,-5.054283143E-1,5.890788502E-1
1.385885992E1,-2.354739342E-1,6.245793848E-2,-5.398006234E-1,5.922277271E-1
1.386887892E1,-1.699379209E-1,-1.936964371E-1,-4.970687694E-1,5.598879961E-1
1.387887692E1,5.165823167E-3,-1.947216185E-1,-4.420377358E-1,4.830533659E-1
1.388885692E1,3.099311906E-1,-1.894772508E-1,-3.402613925E-1,4.977316412E-1
1.389887592E1,5.715867089E-1,-2.910318750E-1,-2.786275369E-1,6.993169684E-1
1.390887392E1,6.863347712E-1,-2.458254428E-1,-2.673030698E-1,7.764898568E-1
1.391887292E1,6.397220837E-1,1.837442865E-2,-2.398744025E-1,6.834630150E-1
1.392887392E1,5.893426198E-1,1.081162782E-1,-2.064668840E-1,6.337526547E-1
1.393887192E1,5.162153674E-1,2.482725391E-1,-2.048039724E-1,6.083274006E-1
1.394887092E1,2.469266927E-1,5.169694755E-1,1.805833640E-2,5.731983371E-1
1.395887192E1,3.183472479E-2,5.699379403E-1,-2.213688009E-2,5.712554130E-1
1.396886992E1,-1.249175032E-1,3.530244756E-1,-1.114156610E-1,3.906969574E-1
1.397886892E1,-9.653325465E-2,2.518017174E-1,-7.967080747E-2,2.811942597E-1
1.398886992E1,-1.165172470E-1,2.317706915E-1,-1.734581274E-1,3.120603215E-1
1.399886792E1,-5.736261995E-2,5.426540463E-2,-3.460352987E-1,3.549304612E-1
1.400886692E1,3.430527391E-2,-1.108080165E-1,-5.509158149E-1,5.629951185E-1
1.401883792E1,3.845191140E-2,-1.595061958E-1,-6.786114764E-1,6.981649604E-1
1.402883592E1,5.879467158E-2,-1.769904852E-1,-6.738343012E-1,6.991674412E-1
1.403886492E1,6.451631828E-2,-2.167293140E-1,-8.030233417E-1,8.342544205E-1
1.404886392E1,-7.648926434E-2,-8.264753542E-1,-5.559304966E-1,9.989849027E-1
1.405886192E1,1.330367002E-1,-2.809921509E-1,-2.144070740E-1,3.776582394E-1
1.406886192E1,1.109173777E-1,2.070953318E-1,2.888725530E-2,2.366973060E-1
1.407883592E1,4.306804604E-2,5.454763329E-1,1.465519088E-1,5.664598382E-1
1.408883392E1,3.852903069E-2,5.836108501E-1,1.375832758E-1,6.008454613E-1
1.409885992E1,-1.654413138E-2,8.404817015E-1,1.961400982E-2,8.408733009E-1
1.410885992E1,-3.032071484E-1,4.872111678E-1,-4.009165339E-1,7.000309736E-1
1.411885792E1,-2.419080458E-1,-5.677139906E-3,-4.527466189E-1,5.133529327E-1
1.412885792E1,-2.383116245E-1,-2.671922194E-2,-4.478092300E-1,5.079758396E-1
1.413885792E1,-3.085828957E-1,-3.675127065E-1,-3.851707131E-1,6.153417515E-1
1.414885592E1,-2.862511001E-1,-3.852862687E-1,-3.801423634E-1,6.122854053E-1
1.415885592E1,-1.298301876E-1,-1.696675420E-1,-3.897872360E-1,4.444963912E-1
1.416883292E1,1.527358784E-1,-1.833288304E-1,-4.066362437E-1,4.714771928E-1
1.417883092E1,1.697750211E-1,-1.658278947E-1,-4.099038506E-1,4.736492533E-1
1.418885392E1,3.096459561E-1,1.738046166E-3,-4.662148031E-1,5.596783733E-1
1.419883092E1,-1.492599097E-1,-3.730003184E-1,-6.295851313E-1,7.468501829E-1
1.420882892E1,-1.639494584E-1,-3.661222752E-1,-6.318342628E-1,7.484246662E-1
1.421885092E1,-3.529374252E-1,-7.332967568E-1,-6.354492308E-1,1.032513770E0
1.422882992E1,1.399310243E-1,6.562620660E-2,-5.933737633E-1,6.131720098E-1
1.423882792E1,1.355570786E-1,1.156741059E-1,-6.045856166E-1,6.303015058E-1
1.424884792E1,-6.699806846E-2,3.459551188E-1,-5.538134026E-1,6.564167657E-1
1.425882892E1,-1.138005027E-1,4.009104309E-1,-6.435083751E-1,7.666699138E-1
1.426882692E1,-1.049364984E-1,4.437192854E-1,-6.518027966E-1,7.954529267E-1
1.427884592E1,1.774783897E-2,1.310742559E-1,-5.894681887E-1,6.041259735E-1
1.428882792E1,2.125889188E-1,2.733611142E-1,-2.656336715E-1,4.364419716E-1
1.429882592E1,2.182123871E-1,2.498221791E-1,-2.606499800E-1,4.218603787E-1
1.430884492E1,3.014463325E-1,1.160487115E-1,-1.063269115E-1,3.400626514E-1
1.431882692E1,2.791344174E-1,-2.293195935E-1,1.619540961E-1,3.958947185E-1
1.432882492E1,2.697955917E-1,-2.591418003E-1,1.678310229E-1,4.100138854E-1
1.433884192E1,1.499944113E-1,-2.039132222E-1,1.594103928E-1,2.991497935E-1
1.434882492E1,-1.107853586E-1,1.879783901E-1,-2.926927035E-2,2.201498604E-1
1.435882292E1,-1.312334646E-1,1.862866262E-1,-2.970811302E-2,2.297988279E-1
1.436883992E1,-2.328650527E-1,4.213745139E-3,-2.429472605E-1,3.365520165E-1
1.437882492E1,-3.060574285E-2,-2.527796277E-1,-6.228802022E-1,6.729145548E-1
1.438882292E1,-2.961224609E-2,-2.462722249E-1,-6.242440653E-1,6.717198426E-1
1.439883692E1,-5.787129116E-2,-5.918307562E-1,-6.317682624E-1,8.676081303E-1
1.440881192E1,-2.613124330E-2,-1.817874130E-1,-6.220264357E-1,6.485725804E-1
1.441880992E1,-7.878421312E-3,-1.797005600E-1,-6.217393374E-1,6.472357874E-1
1.442883592E1,-6.265974508E-2,1.105821770E-1,-5.778084022E-1,5.916225242E-1
1.443881992E1,-1.213602765E-1,3.498475006E-1,-4.542152933E-1,5.860316741E-1
1.444881792E1,-5.945919850E-2,4.473695925E-1,-3.476343295E-1,5.696705852E-1
1.445883392E1,1.542056948E-1,4.911873475E-1,-1.303237475E-1,5.310637305E-1
1.446883292E1,2.462149952E-1,-8.290371473E-2,2.544868685E-1,3.636735020E-1
1.447883092E1,2.364566136E-1,-8.148619799E-1,3.370956734E-1,9.129870040E-1
1.448882992E1,5.159741697E-1,-3.985437704E-1,3.480005844E-1,7.390337526E-1
1.449882992E1,6.593625887E-1,-1.185301784E-1,3.122848776E-1,7.391415773E-1
1.450882792E1,4.107883881E-1,2.057376860E-2,1.087443880E-1,4.254359196E-1
1.451882892E1,1.349455420E-1,1.308087923E-1,-2.066341509E-1,2.793186563E-1
1.452882792E1,1.052828523E-2,2.046856029E-1,-5.416191440E-1,5.791013192E-1
1.453882592E1,-8.029416948E-4,2.435597746E-1,-5.502053782E-1,6.017042186E-1
1.454882592E1,-2.799738400E-1,1.696378856E-1,-8.898320554E-1,9.481368309E-1
1.455882592E1,-3.405980094E-1,-1.734503433E-1,-8.172556107E-1,9.022187977E-1
1.456882392E1,-2.355519945E-1,-2.810894705E-1,-5.172408228E-1,6.340615911E-1
1.457881192E1,-5.346908124E-3,-1.052958007E-1,-1.429289374E-1,1.776076468E-1
1.458882392E1,4.326908063E-2,-1.181981479E-1,-3.465337738E-2,1.305521814E-1
1.459882192E1,2.282955451E-1,-4.300306977E-1,1.368545392E-3,4.868748605E-1
1.460882192E1,4.153158872E-1,-4.729291974E-1,-5.787981987E-2,6.320596375E-1
1.461882092E1,2.535146044E-1,-2.293609260E-1,-9.337054138E-2,3.543926453E-1
1.462881892E1,2.478279679E-1,-2.046126406E-1,-9.826540092E-2,3.360671412E-1
1.463881892E1,-3.451547080E-1,3.062012152E-1,-3.321441050E-1,5.685161943E-1
1.464881792E1,-5.564405931E-1,4.545092621E-1,-4.036537252E-1,8.241001959E-1
1.465881592E1,-6.463712449E-1,6.124446765E-1,-4.998040603E-1,1.021121132E0
1.466880492E1,-5.692910555E-1,4.836434526E-1,-3.857170623E-1,8.407026509E-1
1.467881692E1,-4.382170920E-1,5.737763084E-1,-3.295210441E-1,7.936230783E-1
1.468881492E1,-1.228238254E-1,4.151786238E-1,-2.357130305E-1,4.929701963E-1
1.469879392E1,1.881670359E-1,-3.975070590E-1,-4.891894818E-2,4.425062247E-1
1.470881492E1,3.976646780E-1,-9.010873608E-1,8.943748486E-2,9.889866995E-1
1.471881292E1,4.204431644E-1,-9.015449785E-1,9.094982151E-2,9.989132459E-1
1.472880492E1,3.487345562E-1,-7.986901894E-1,2.159833097E-2,8.717730767E-1
1.473881192E1,1.326230554E-1,-6.335516632E-1,9.073054864E-3,6.473475921E-1
1.474880992E1,1.306744708E-1,-5.885136673E-1,1.274469459E-3,6.028480557E-1
1.475879592E1,-3.455616011E-1,-2.319399684E-1,-4.031677119E-1,5.794421223E-1
1.476880892E1,-4.267600577E-1,-1.743759027E-1,-5.256138895E-1,6.991430920E-1
1.477880692E1,-4.311302666E-1,-1.504452956E-1,-5.296627209E-1,6.993208789E-1
1.478879092E1,-3.597724913E-1,2.681018326E-3,-5.419524718E-1,6.505043544E-1
1.479880792E1,-3.657585281E-2,3.856260650E-2,-5.274390247E-1,5.301101701E-1
1.480880592E1,-2.708528277E-2,4.539731181E-2,-5.278868118E-1,5.305271101E-1
1.481878992E1,3.352111889E-1,-6.686198822E-2,-3.784804751E-1,5.099848396E-1
1.482880492E1,1.895230966E-1,-7.155333542E-1,-3.066980458E-1,8.012307261E-1
1.483880292E1,1.773599196E-1,-7.121938632E-1,-3.079905728E-1,7.959490139E-1
1.484879492E1,4.175748493E-1,-4.345646653E-1,-2.846477022E-1,6.665129537E-1
1.485880392E1,1.629615165E-1,-3.617227205E-1,-2.475063711E-1,4.676100791E-1
1.486880192E1,1.508530018E-1,-3.348201929E-1,-2.522098896E-1,4.455008621E-1
1.487879692E1,-1.875696149E-1,-1.098968102E-1,-8.081050289E-2,2.319267271E-1
1.488880092E1,-1.724384826E-1,2.209263540E-2,-1.149223550E-1,2.083992863E-1
1.489879892E1,-1.655998533E-1,4.822112868E-2,-1.181424806E-1,2.090603606E-1
1.490878792E1,6.785161120E-2,2.125855749E-1,-4.338476139E-1,4.878731597E-1
1.491879792E1,5.288996135E-2,2.266560406E-1,-6.313642198E-1,6.728975307E-1
1.492879592E1,7.144761685E-2,2.309697874E-1,-6.307867341E-1,6.755321670E-1
1.493877292E1,3.218932782E-1,-5.500822029E-2,-9.263246745E-1,9.822008905E-1
1.494877200E1,5.415339208E-1,-9.625567636E-2,-8.672982750E-1,1.027000701E0
1.495877000E1,5.466541083E-1,-8.591646519E-2,-8.683409066E-1,1.029673872E0
1.496876000E1,5.441414135E-1,1.757858492E-1,-6.182747159E-1,8.421722906E-1
1.497877100E1,2.501317709E-1,4.081691644E-1,-6.417933867E-1,8.006664229E-1
1.498876900E1,-3.873967207E-2,1.986158093E-1,-6.141535252E-1,6.466324725E-1
1.499875900E1,-4.851632627E-2,1.933410909E-1,-6.140800696E-1,6.456229110E-1
1.500876800E1,-4.354805951E-1,-8.212388802E-1,-5.465754267E-1,1.078341942E0
1.501876600E1,-6.373254561E-1,-1.456388661E0,-5.266519073E-2,1.590605322E0
1.502875800E1,-6.343897884E-1,-1.481126622E0,-4.905206370E-2,1.612015068E0
1.503876500E1,-3.486107414E-1,-8.320480431E-1,6.077259369E-1,1.087733519E0
1.504876300E1,-3.333287144E-1,-8.026008803E-1,6.047745548E-1,1.058786318E0
1.505874500E1,-4.409390440E-1,2.116206747E-1,4.728311103E-1,6.802792143E-1
1.506876400E1,-2.653087673E-1,3.923123926E-1,2.243640052E-1,5.240581668E-1
1.507876200E1,-2.438755973E-1,4.500015704E-1,2.191554882E-1,5.567816883E-1
1.508875500E1,-1.139243746E-2,4.417479697E-1,-1.949694245E-3,4.418991488E-1
1.509876200E1,2.553322845E-1,3.823248367E-1,-2.764431267E-1,5.364584407E-1
1.510876000E1,2.462031912E-1,3.759124145E-1,-2.764177644E-1,5.275726824E-1
1.511875200E1,3.917949871E-1,-3.724811587E-1,-9.706969100E-2,5.492431615E-1
1.512875800E1,3.393438182E-1,-4.687920730E-1,-5.459886951E-2,5.812927586E-1
1.513875600E1,3.209281952E-1,-4.744854338E-1,-5.519204213E-2,5.754802298E-1
1.514875300E1,1.689263160E-1,-4.124173676E-2,-9.573499094E-2,1.984997974E-1
1.515875700E1,-3.007992102E-1,-1.177270725E-1,2.004204062E-1,3.801422992E-1
1.516875500E1,-3.092075976E-1,-9.457365168E-2,1.973921150E-1,3.788365889E-1
1.517875100E1,-1.269611234E-1,-1.560217669E-1,1.116963571E-2,2.014613594E-1
1.518872700E1,1.465308131E-1,-2.166625826E-1,6.379462112E-2,2.692279844E-1
1.519872500E1,1.722100758E-1,-2.121989461E-1,6.498647096E-2,2.809055790E-1
1.520875000E1,1.431894674E-1,-1.910246981E-1,1.792497762E-1,2.985366664E-1
1.521872500E1,6.721365622E-1,-6.774498631E-2,3.394195853E-2,6.763941143E-1
1.522872300E1,6.902282128E-1,-6.542889962E-2,3.502991752E-2,6.942067573E-1
1.523874000E1,7.350833005E-1,-1.229740349E-1,-1.745119670E-2,7.455029283E-1
1.524873300E1,4.738008436E-2,2.219264837E-1,1.108468366E-1,2.525534750E-1
1.525873100E1,2.815359876E-2,2.250053716E-1,1.091784341E-1,2.516743389E-1
1.526874300E1,-2.521480188E-1,1.670240889E-1,-3.684212039E-2,3.046851021E-1
1.527873300E1,-4.929019704E-1,-9.444132554E-1,1.244924198E-1,1.072551683E0
1.528873100E1,-5.031625183E-1,-9.672782806E-1,1.261984637E-1,1.097600038E0
1.529874500E1,-2.910152469E-1,-7.368541297E-1,1.675972256E-1,8.097732476E-1
1.530873200E1,-2.152909903E-1,-3.969644009E-1,3.806069247E-1,5.905866382E-1
1.531873000E1,-2.033703996E-1,-4.151080918E-1,3.834033556E-1,6.005600556E-1
1.532874400E1,-4.425204326E-2,-1.781706178E-1,2.689402537E-1,3.256253559E-1
1.533873000E1,-7.938062112E-2,-2.095174130E-1,1.523986950E-1,2.709689864E-1
1.534872800E1,-6.917863222E-2,-2.266020452E-1,1.551055630E-1,2.831817539E-1
1.535874100E1,-1.391616220E-1,-6.906369332E-1,-5.067831599E-2,7.063381784E-1
1.536872900E1,2.428323262E-1,-5.206407595E-1,4.231519236E-1,7.135067550E-1
1.537872700E1,2.357041500E-1,-4.589690796E-1,4.157697042E-1,6.626262214E-1
1.538871200E1,3.625877430E-1,-2.918907030E-1,5.997331220E-1,7.591771015E-1
1.539872800E1,2.995638214E-1,5.445792603E-1,2.497844828E-1,6.698487454E-1
1.540872600E1,2.679315176E-1,6.286370784E-1,2.405357591E-1,7.244510514E-1
1.541873600E1,2.260703689E-1,7.951271886E-1,2.870899380E-1,8.750746769E-1
1.542872700E1,3.445776975E-1,2.054850269E-1,2.089042045E-1,4.523260467E-1
1.543872500E1,3.336939095E-1,2.069187459E-1,2.081647327E-1,4.444092130E-1
1.544873400E1,3.179226168E-1,4.441589960E-1,1.569737850E-1,5.683245315E-1
1.545870800E1,1.397115801E-1,4.477797747E-1,2.475231270E-1,5.303713328E-1
1.546870600E1,1.464392128E-1,4.350815592E-1,2.488601842E-1,5.221798517E-1
1.547873200E1,2.191685165E-1,3.141670598E-1,1.440432523E-1,4.092483825E-1
1.548872400E1,3.335914371E-1,-5.814228220E-2,-1.896939267E-1,3.881334277E-1
1.549872200E1,1.870499619E-1,-3.682141531E-1,-3.807844242E-1,5.617527290E-1
1.550871900E1,-3.851492976E-1,-4.562755597E-1,-4.057136627E-1,7.218939978E-1
1.551870400E1,-9.488135775E-1,4.499972947E-1,-2.956553963E-1,1.090943116E0
1.552870200E1,-9.382624961E-1,4.619173554E-1,-2.960134652E-1,1.086889197E0
1.553872400E1,-3.413053032E-1,5.952830620E-1,-4.642797767E-1,8.284967984E-1
1.554872700E1,-3.102537011E-1,6.498718268E-1,-4.664734693E-1,8.580141303E-1
1.555872500E1,-7.295943730E-2,3.047076536E-1,-7.141615974E-1,7.798696179E-1
1.556872600E1,1.924052988E-1,1.589285091E-1,-8.621312367E-1,8.975234478E-1
1.557872500E1,2.643914671E-1,2.395997569E-2,-8.773044690E-1,9.165915446E-1
1.558872300E1,1.554806071E-1,-6.807152133E-2,-8.851864426E-1,9.013118158E-1
1.559872400E1,4.315961892E-2,-9.794886556E-2,-6.743594543E-1,6.828011472E-1
1.560872400E1,-6.036228269E-2,-1.028770542E-1,-3.741336550E-1,3.926872614E-1
1.561872200E1,-7.874961519E-2,-5.744185885E-2,-3.777601347E-1,3.901330393E-1
1.562872000E1,-2.770851693E-1,5.042829179E-1,2.471586445E-1,6.262306666E-1
1.563872100E1,-1.277505888E-1,6.533709468E-1,5.783912234E-2,6.682508295E-1
1.564871900E1,-4.858727858E-2,3.739357633E-1,-5.648550105E-2,3.812863629E-1
1.565870600E1,3.903433976E-2,-1.709226651E-1,1.285377154E-1,2.173940694E-1
1.566871800E1,2.556863700E-1,-5.056019766E-1,3.928134259E-1,6.894282168E-1
1.567871600E1,2.375053483E-1,-5.516896208E-1,3.937320600E-1,7.181888075E-1
1.568871600E1,1.190339800E-1,-8.863352012E-1,4.288284371E-1,9.917928240E-1
1.569871600E1,-1.323554630E-1,-8.185023102E-1,9.688478194E-1,1.275198062E0
1.570871400E1,-3.084567055E-1,-4.663103685E-1,1.069068876E0,1.206440700E0
1.571869900E1,-4.566883732E-1,-1.643069243E-1,8.926889319E-1,1.016097714E0
1.572871400E1,-6.155105178E-1,-1.315689760E-1,4.267426256E-1,7.604425432E-1
1.573871200E1,-5.992813880E-1,-9.163243826E-2,4.258799786E-1,7.408835549E-1
1.574869200E1,-3.078751999E-1,2.178009076E-1,7.827817429E-2,3.851647007E-1
1.575871200E1,-3.452476788E-1,2.906740254E-1,3.062873885E-2,4.523554668E-1
1.576871000E1,-3.768967567E-1,-2.447630539E-2,1.581676402E-1,4.094719248E-1
1.577869500E1,-5.460557554E-2,-6.191058885E-2,4.726286870E-1,4.797838739E-1
1.578870900E1,4.244296499E-1,-6.025982851E-2,7.488523239E-1,8.628740219E-1
1.579870700E1,4.320727647E-1,-2.513948700E-2,7.483790649E-1,8.645172598E-1
1.580870000E1,3.761453164E-1,-4.685096616E-2,7.687202856E-1,8.570946211E-1
1.581870800E1,3.508850159E-1,3.332006147E-2,5.322782170E-1,6.383969150E-1
1.582870600E1,2.096667545E-1,5.849988055E-2,4.906598190E-1,5.367769015E-1
1.583868300E1,-4.752268333E-2,2.543583919E-3,3.585386192E-1,3.616833100E-1
1.584870500E1,-5.839331048E-2,-1.489986036E-3,3.579142462E-1,3.626494263E-1
1.585870300E1,-3.408845230E-1,-1.425438252E-1,1.716309273E-1,4.074041916E-1
1.586869300E1,-2.290618227E-1,-3.221106850E-1,5.110434046E-2,3.985426772E-1
1.587870300E1,-5.550513312E-2,-3.241922937E-1,-2.319381000E-2,3.297262743E-1
