"Time (s)","Linear Acceleration x (m/s^2)","Linear Acceleration y (m/s^2)","Linear Acceleration z (m/s^2)"
0.000000000E0,3.441942632E-1,2.663192034E0,3.590850830E-1
1.000000000E-2,3.438896537E-1,2.660619020E0,3.583545685E-1
2.000466600E-2,3.411641121E-1,2.672357082E0,3.600034714E-1
3.000466600E-2,3.360875249E-1,2.657796860E0,3.568773270E-1
4.000466600E-2,3.309544921E-1,2.664761305E0,3.657131195E-1
5.000466600E-2,3.330577314E-1,2.664645910E0,3.602161407E-1
6.000466600E-2,3.447862267E-1,2.662082434E0,3.570995331E-1
7.000466600E-2,3.229344785E-1,2.671611786E0,3.516225815E-1
8.000466600E-2,3.321800530E-1,2.640252352E0,3.556709290E-1
9.000466600E-2,3.318356276E-1,2.663975954E0,3.669052124E-1
1.000046660E-1,3.387009203E-1,2.639878750E0,3.590049744E-1
1.100046660E-1,3.215842843E-1,2.637212992E0,3.582534790E-1
1.200046660E-1,3.547961116E-1,2.639506340E0,3.527660370E-1
1.300046660E-1,3.376135826E-1,2.622598410E0,3.568372726E-1
1.400046660E-1,3.324789107E-1,2.629697323E0,3.441705704E-1
1.500046660E-1,3.296960592E-1,2.622431040E0,3.626270294E-1
1.600046660E-1,3.151037097E-1,2.631860018E0,3.571319580E-1
1.700046660E-1,3.387633264E-1,2.619705439E0,3.564138412E-1
1.800046660E-1,3.288356364E-1,2.624301672E0,3.485078812E-1
1.900046660E-1,3.308849931E-1,2.607347250E0,3.453922272E-1
2.000046660E-1,2.917200327E-1,2.366124868E0,2.971000671E-1
2.100046660E-1,2.698912323E-1,2.124776363E0,2.375507355E-1
2.200046660E-1,2.411839664E-1,1.927028537E0,1.835765839E-1
2.300046660E-1,2.127125561E-1,1.732632160E0,1.499929428E-1
2.400046660E-1,1.984625161E-1,1.566008210E0,1.280088425E-1
2.500046660E-1,1.742542982E-1,1.420746326E0,9.240722656E-2
2.600046660E-1,1.399477273E-1,1.261620998E0,7.564449310E-2
2.700047370E-1,1.365941763E-1,1.137893200E0,5.538654327E-2
2.800047370E-1,1.418747902E-1,1.019514322E0,6.443786621E-2
2.900047370E-1,1.076857448E-1,9.244548678E-1,3.758716583E-2
3.000047370E-1,1.082304493E-1,8.178738952E-1,2.703094482E-2
3.100047370E-1,9.300550818E-2,7.615063190E-1,3.243541718E-2
3.300042700E-1,8.946854621E-2,6.120502949E-1,2.999591827E-2
3.400042700E-1,6.251098216E-2,5.538089275E-1,4.984855652E-3
3.500042700E-1,6.047715247E-2,5.038452148E-1,1.894950867E-2
3.600042700E-1,4.711328447E-2,4.424466491E-1,-4.854202271E-3
3.700042700E-1,3.691594303E-2,4.074877799E-1,7.697105408E-3
3.800042700E-1,4.892987013E-2,3.386484385E-1,-3.334999084E-3
3.900048030E-1,3.737078607E-2,3.245220780E-1,-9.279251099E-3
4.000048030E-1,2.869331837E-2,2.827243805E-1,1.760482788E-3
4.100048030E-1,3.246874362E-2,2.634821832E-1,-1.374244690E-3
4.200048030E-1,2.947673947E-2,2.493454069E-1,4.243850708E-4
4.300048030E-1,2.669408917E-2,2.041900009E-1,-2.448081970E-3
4.400048030E-1,1.699662954E-2,1.900834143E-1,-4.367828369E-4
4.500048030E-1,1.961967349E-2,1.686572284E-1,8.839607239E-3
4.600048030E-1,2.245577425E-2,1.660480052E-1,1.420021057E-3
4.700048030E-1,3.733060136E-2,1.337675154E-1,1.228332520E-3
4.800048030E-1,2.340568602E-2,1.247893646E-1,-8.500099182E-3
4.900048030E-1,7.183715701E-3,1.098731756E-1,5.743026733E-3
5.000048030E-1,5.665816367E-3,9.867954999E-2,5.649566650E-3
5.100048030E-1,1.847711205E-2,6.916703284E-2,-1.358032227E-2
5.200052690E-1,-9.169347584E-3,7.720790803E-2,-1.363658905E-2
5.300052690E-1,6.790094078E-3,8.854499459E-2,6.895065308E-4
5.400052690E-1,1.077205688E-2,6.435772032E-2,6.561279297E-4
5.500052690E-1,4.952549934E-4,5.784065276E-2,3.026962280E-3
5.600052690E-1,1.419077069E-2,5.903276056E-2,-6.568908691E-3
5.800052020E-1,1.311688870E-2,4.139528051E-2,-6.590843201E-3
5.900052020E-1,7.774598897E-3,4.416437447E-2,-1.138591766E-2
6.000052020E-1,1.441555470E-2,3.541962057E-2,2.975463867E-3
6.100052020E-1,1.767821610E-3,2.700195089E-2,-1.139450073E-2
6.200052020E-1,3.681585193E-3,2.628394030E-2,5.741119385E-4
6.300052020E-1,5.701750517E-3,2.837109193E-2,-1.139736176E-2
6.400052020E-1,7.734388113E-3,2.589133754E-2,7.757186890E-3
6.500052020E-1,-1.427710056E-2,2.358391322E-2,-1.379108429E-2
6.600052020E-1,-2.405717969E-3,9.340019897E-3,-1.139354706E-2
6.700052020E-1,9.432047606E-3,1.703547873E-2,-8.996963501E-3
6.800052020E-1,-2.939626575E-4,2.734811418E-2,-1.812934875E-3
7.000046680E-1,6.585948169E-3,1.460701972E-2,2.982139587E-3
7.100046680E-1,6.325863302E-3,2.037389390E-2,-1.806259155E-3
7.200046680E-1,3.694474697E-3,2.845046297E-2,5.903244019E-4
7.300046680E-1,1.784066856E-2,-1.713214442E-3,-6.589889526E-3
7.400046680E-1,5.451545119E-3,2.070682123E-3,-6.589889526E-3
7.500046680E-1,-6.922796369E-3,1.544491574E-2,-8.983612061E-3
7.600046680E-1,2.538375556E-3,-1.146923006E-2,-6.588935852E-3
7.700051680E-1,1.190822572E-2,7.210455835E-3,-6.588935852E-3
7.800051680E-1,-2.803266048E-3,6.743423641E-3,-1.616668701E-2
7.900051680E-1,-1.259757578E-2,-3.238178790E-3,-1.377201080E-2
8.000051680E-1,1.797400415E-3,6.365258247E-3,5.931854248E-4
8.100051680E-1,-5.331479013E-3,3.940306604E-3,5.931854248E-4
8.300047010E-1,1.138294488E-2,1.345048100E-2,5.931854248E-4
8.400047010E-1,-6.896704435E-4,5.703803152E-3,5.383491516E-3
8.500047010E-1,1.109751314E-2,1.472167671E-2,-1.799583435E-3
8.600047010E-1,-1.295158267E-2,4.734046757E-3,-6.587028503E-3
8.700047010E-1,-1.056284457E-2,-1.476689801E-2,-4.191398621E-3
8.800047670E-1,1.090094447E-2,1.969903708E-3,2.990722656E-3
8.900047670E-1,3.646560013E-3,1.869217679E-2,-1.798629761E-3
9.000047670E-1,-1.085280627E-2,-3.709532320E-4,1.017189026E-2
9.100047670E-1,-1.114524901E-3,3.825061023E-3,-4.190444946E-3
9.200047670E-1,1.321993768E-3,3.836549819E-3,2.992630005E-3
9.300047670E-1,1.094297320E-2,-9.127967060E-4,2.993583679E-3
9.400047670E-1,3.802500665E-3,-5.689907819E-3,-8.977890015E-3
9.500047670E-1,-5.800649524E-3,8.705187589E-3,-1.376628876E-2
9.600047670E-1,2.059324458E-2,8.729737252E-3,7.781982422E-3
9.700047670E-1,-5.839839578E-3,8.749231696E-3,-1.796722412E-3
9.800047670E-1,-2.760842443E-2,1.106847078E-3,-1.855659485E-2
9.900052670E-1,-3.272071481E-3,1.266716048E-2,-1.792907715E-3
1.000005267E0,-7.846325636E-3,-9.268429130E-3,-4.182815552E-3
1.010005267E0,2.092443779E-2,2.652183175E-4,-8.971214294E-3
1.020005767E0,1.378379762E-2,9.853526950E-3,-6.577491760E-3
1.030005767E0,-1.257936656E-2,-4.482872784E-3,-1.789093018E-3
1.040005767E0,-7.681503892E-3,2.666234970E-3,-4.181861877E-3
1.050005767E0,-2.856999636E-3,-7.010422647E-3,-1.787185669E-3
1.060005767E0,1.156248152E-2,-2.252679318E-3,1.018524170E-2
1.080005267E0,9.303487837E-3,2.472668886E-3,3.003120422E-3
1.090005267E0,-2.183529735E-2,9.669810534E-3,6.084442139E-4
1.100005267E0,4.607222974E-3,-4.548970610E-3,-2.093887329E-2
1.110005267E0,-1.478192210E-2,-2.333745360E-4,-8.968353271E-3
1.120005267E0,4.349216819E-3,-2.543121576E-3,-8.968353271E-3
1.130005267E0,1.623906940E-2,4.672069103E-3,7.790565491E-3
1.140005267E0,-5.252376199E-3,-7.274523377E-3,-4.179954529E-3
1.150005267E0,9.204775095E-3,-4.982694983E-3,-8.967399597E-3
1.160005267E0,3.943361342E-3,2.435274422E-3,3.000259399E-3
1.170005267E0,-3.133438528E-3,-2.442609519E-3,7.789611816E-3
1.190005200E0,-5.944445729E-4,-4.733972251E-3,-1.136493683E-2
1.200005200E0,6.617814302E-3,4.869665951E-3,6.065368652E-4
1.210005200E0,-5.881041288E-4,1.657232642E-4,-1.788139343E-3
1.220005200E0,4.187464714E-3,-1.418509707E-2,1.257801056E-2
1.230005200E0,1.505963504E-3,5.026571453E-4,5.391120911E-3
1.240005200E0,1.489706337E-3,7.644686848E-3,1.017951965E-2
1.250005200E0,-3.310352564E-3,-4.284366965E-3,6.027221680E-4
1.260005200E0,3.911793232E-3,2.854708582E-3,2.998352051E-3
1.270005700E0,5.810700357E-3,5.438439548E-4,-1.795768738E-3
1.280005700E0,-3.737062216E-3,2.964448184E-3,-8.976936340E-3
1.300005200E0,-3.525517881E-3,3.021914512E-3,-1.615905762E-2
1.310005200E0,-3.483019769E-3,3.033820540E-3,6.008148193E-4
1.330005166E0,-1.071479917E-2,1.272512972E-2,1.017761230E-2
1.340005166E0,6.046764553E-3,5.570203066E-3,1.017665863E-2
1.350005166E0,-1.072942466E-2,5.529236048E-3,-6.582260132E-3
1.360005166E0,1.089490205E-2,-9.215749800E-3,-8.975028992E-3
1.370005166E0,8.373692632E-3,-1.882745698E-2,-1.615905762E-2
1.380005166E0,1.080025733E-2,4.082359374E-4,-1.792907715E-3
1.390005166E0,1.797010377E-2,-1.394258440E-2,-1.855373383E-2
1.400005166E0,5.636483431E-3,5.440048873E-3,-8.978843689E-3
1.410005166E0,-1.900136471E-3,7.965326309E-3,-1.377010345E-2
1.420005166E0,-4.307553172E-3,-6.385724992E-3,-6.587982178E-3
1.430005166E0,1.973768696E-2,2.243718132E-2,5.950927734E-4
1.440005166E0,4.814125597E-3,6.005764008E-4,-6.590843201E-3
1.450005166E0,-1.000551879E-2,2.825893462E-3,-1.804351807E-3
1.460005166E0,-2.778619528E-3,-4.317406565E-3,-1.804351807E-3
1.470005166E0,-1.036617905E-2,1.884885132E-4,-2.095985413E-2
1.480005166E0,9.158551693E-3,-2.647497132E-2,-4.197120667E-3
1.490005166E0,-1.716506481E-2,1.231876761E-2,1.256179810E-2
1.500005166E0,1.910805702E-3,-9.141761810E-3,-4.199028015E-3
1.510005166E0,1.897834241E-3,-2.109832130E-2,-6.593704224E-3
1.520005666E0,1.643617824E-2,3.445908427E-3,-4.199981689E-3
1.530005666E0,6.577886641E-3,1.106137410E-2,-1.138591766E-2
1.540006166E0,-1.260235906E-2,3.907989711E-3,7.767677307E-3
1.550006166E0,8.936084807E-3,1.116079837E-2,-4.204750061E-3
1.560006166E0,4.253111780E-3,1.730762422E-3,2.979278564E-3
1.580005666E0,1.770631596E-2,-5.872759968E-3,-1.378536224E-2
1.590005666E0,-1.887843013E-3,1.096736640E-2,-2.336597443E-2
1.600005666E0,-1.376467943E-2,-3.445297480E-3,-1.817703247E-3
1.610005666E0,6.480365992E-4,2.059223875E-2,5.779266357E-4
1.630005199E0,7.947161794E-4,1.040973887E-2,-4.207611084E-3
1.640005199E0,-6.357684731E-3,7.569227368E-3,5.826950073E-4
1.650005199E0,3.280729055E-3,1.675395295E-2,-1.138782501E-2
1.660005199E0,9.452328086E-4,-3.084272146E-3,-4.200935364E-3
1.670005199E0,-1.812600344E-2,-1.194316894E-3,-1.138210297E-2
1.680005199E0,-3.786489367E-3,-3.559339792E-3,-8.987426758E-3
1.690005199E0,9.860917926E-4,1.555440575E-2,-6.593704224E-3
1.700005199E0,-1.318124682E-2,5.549646914E-3,-1.802444458E-3
1.710005199E0,-3.291942179E-3,-6.800208241E-3,-1.798629761E-3
1.720005199E0,-1.535270363E-2,2.763122320E-4,7.779121399E-3
1.730005199E0,6.699398160E-3,2.164341137E-2,1.735973358E-2
1.740005199E0,-6.203353405E-4,2.524681389E-3,-1.795768738E-3
1.750005199E0,1.139327884E-2,2.536177635E-3,-1.855564117E-2
1.760005199E0,-7.786959410E-3,2.565618604E-3,-4.189491272E-3
1.770005665E0,1.142109185E-2,1.404695213E-4,-6.584167480E-3
1.780005665E0,-2.938076854E-3,9.092107415E-3,1.017856598E-2
1.790005665E0,1.798003912E-3,3.862209618E-3,-1.791000366E-3
1.800005665E0,9.023159742E-3,1.479379833E-3,6.036758423E-4
1.810005665E0,-1.514679939E-2,-1.800935343E-2,-1.136875153E-2
1.830005165E0,6.303466856E-3,-3.415815532E-3,6.017684937E-4
1.850004665E0,-8.237816393E-3,1.631814614E-2,2.992630005E-3
1.860004665E0,-3.444492817E-3,-1.472415216E-2,-4.190444946E-3
1.870004665E0,1.094741374E-2,-3.876350820E-4,1.256942749E-2
1.880004665E0,3.803797066E-3,-5.220048130E-3,5.989074707E-4
1.890004665E0,1.336464286E-2,-1.483793743E-2,-1.795768738E-3
1.900004665E0,5.836740136E-3,4.849508405E-3,-1.137733459E-2
1.910004665E0,1.090608537E-3,-9.504433721E-3,-1.137733459E-2
1.920004665E0,-1.437641680E-3,1.213467121E-2,1.256465912E-2
1.930004665E0,8.165873587E-3,-1.662547141E-2,-6.589889526E-3
1.940004665E0,3.088183701E-3,7.611226290E-3,-1.804351807E-3
1.950004665E0,1.515891775E-2,1.483034343E-2,-6.592750549E-3
1.960004665E0,-6.868027151E-3,-6.829984486E-3,-1.377677917E-2
1.970004665E0,-2.450890839E-3,5.204029381E-3,-1.809120178E-3
1.980004665E0,-7.944554090E-5,-1.147088408E-2,-1.856994629E-2
1.990004665E0,-5.010515451E-5,1.010392234E-2,-1.810073853E-3
2.000004665E0,7.179819047E-3,1.019863412E-2,-1.138687134E-2
2.010004665E0,-2.410359681E-3,-4.152387381E-3,-8.992195129E-3
2.020005131E0,7.268950343E-3,-1.666836441E-3,5.855560303E-4
2.030005131E0,-7.057592273E-3,-1.710899174E-3,-6.597518921E-3
2.040005131E0,-6.958208978E-3,3.113862127E-3,-6.597518921E-3
2.050005131E0,-9.435638785E-3,-1.842997223E-2,-1.809120178E-3
2.060005131E0,-1.153277606E-2,-3.719840199E-3,-1.377964020E-2
2.080004664E0,3.032810986E-3,3.562588245E-3,-8.989334106E-3
2.090004664E0,-1.837268472E-3,5.989223719E-3,5.865097046E-4
2.100004664E0,7.723741233E-3,1.160100102E-3,-1.808166504E-3
2.110004664E0,-9.006805718E-3,5.974903703E-3,1.255798340E-2
2.120004664E0,-8.946828544E-3,-1.070506871E-2,-1.138496399E-2
2.130004664E0,3.182388842E-3,-1.301077195E-2,5.874633789E-4
2.140004664E0,7.719621062E-4,2.046824247E-2,1.255893707E-2
2.150004664E0,-1.110006124E-2,-1.540959254E-2,-4.200935364E-3
2.160004664E0,8.083388209E-3,-5.806352943E-3,-6.595611572E-3
2.170004664E0,-8.692786098E-3,-5.847141147E-3,5.884170532E-4
2.180004664E0,-8.705742657E-3,6.138976663E-3,7.770538330E-3
2.190004664E0,3.301739693E-3,-8.325930685E-3,-1.377677917E-2
2.200004664E0,1.291942596E-2,6.023325026E-3,5.884170532E-4
2.210004664E0,-1.097795367E-2,1.301418990E-3,-8.988380432E-3
2.220004664E0,-1.093726605E-2,3.679487854E-3,1.016616821E-2
2.230004664E0,1.059503108E-2,1.561010256E-2,-6.593704224E-3
2.240004664E0,5.780443549E-3,-3.514658660E-3,-6.594657898E-3
2.250004664E0,1.048282534E-2,-1.171179116E-3,5.884170532E-4
2.260004664E0,5.692549050E-3,-1.077618822E-2,-1.377677917E-2
2.270005164E0,8.777007461E-4,1.558986679E-2,-4.199981689E-3
2.280005164E0,8.102953434E-3,3.630124032E-3,-6.594657898E-3
2.290005164E0,-1.580048352E-2,-1.202099025E-3,5.893707275E-4
2.300005164E0,-3.782041371E-3,-1.107316464E-3,5.884170532E-4
2.310005164E0,-1.583491266E-2,-1.075029373E-3,-6.594657898E-3
2.330004697E0,8.888393641E-4,3.812752664E-3,-1.807212830E-3
2.340004697E0,6.096370518E-3,1.214161515E-3,-1.138019562E-2
2.350004697E0,1.105266064E-2,1.320383325E-2,-1.137924194E-2
2.360004697E0,-9.348094463E-4,1.076898724E-2,-8.983612061E-3
2.370004697E0,-9.640529752E-4,3.560025245E-3,-1.802444458E-3
2.380004697E0,1.578266546E-2,5.968630314E-3,-8.985519409E-3
2.390004697E0,6.234906614E-3,-5.976408720E-3,-6.590843201E-3
2.400004697E0,-2.030519396E-2,1.051329076E-3,5.379676819E-3
2.410004697E0,2.053584531E-2,5.438998342E-4,-1.377010345E-2
2.430004330E0,-8.036188781E-3,1.023697853E-2,5.950927734E-4
2.440004330E0,6.273791194E-3,-4.625599831E-3,5.970001221E-4
2.450004330E0,8.645057678E-3,-4.541035742E-3,-1.798629761E-3
2.460004330E0,-1.287113875E-2,-4.459537566E-3,-1.137542725E-2
2.470004330E0,1.591710374E-2,-1.880059764E-2,1.017284393E-2
2.480004330E0,1.828536019E-2,2.777244896E-3,-1.137542725E-2
2.490004330E0,-1.279789209E-2,5.183033645E-3,-6.587028503E-3
2.500004330E0,-7.203817368E-4,1.227672771E-2,-4.190444946E-3
2.510004330E0,4.045404494E-3,-1.158097386E-2,-6.586074829E-3
2.520004796E0,2.085553482E-2,2.934776247E-3,-1.137447357E-2
2.530004796E0,-1.093769073E-2,-4.265941679E-3,-1.377391815E-2
2.540004796E0,-4.161030054E-3,3.106318414E-3,-1.138305664E-2
2.550004796E0,-8.920304477E-3,7.381103933E-4,-1.377677917E-2
2.560004796E0,5.603097379E-3,-1.114487648E-2,5.378723145E-3
2.580004296E0,-8.747369051E-3,-3.448370844E-3,2.213573456E-2
2.590004296E0,-3.974877298E-3,-1.094743609E-3,-1.807212830E-3
2.600004296E0,1.042010635E-2,6.114408374E-3,-1.617240906E-2
2.610004296E0,-1.353267580E-2,-3.392700106E-3,-4.200935364E-3
2.620004296E0,-3.483779728E-3,1.121060178E-2,-4.199028015E-3
2.630004296E0,-5.415096879E-3,1.822828501E-2,1.256465912E-2
2.640004296E0,8.979722857E-3,-8.997954428E-4,-1.800537109E-3
2.650004296E0,-5.283467472E-3,-8.081123233E-4,7.777214050E-3
2.660004296E0,-2.846844494E-3,1.117470860E-2,-1.616573334E-2
2.670004296E0,-4.131793976E-4,8.736945689E-3,-1.616477966E-2
2.680004296E0,4.475921392E-3,-8.459221572E-3,-2.095127106E-2
2.690004296E0,9.332597256E-3,-6.582736969E-3,1.735877991E-2
2.700004296E0,-3.291144967E-4,-6.605844945E-3,7.781982422E-3
2.710004296E0,-2.676323056E-3,-8.905321360E-3,7.781982422E-3
2.720004662E0,-3.255605698E-4,8.315619081E-3,5.960464478E-4
2.730004662E0,1.169274747E-2,-3.561250865E-3,5.970001221E-4
2.740004662E0,-7.432296872E-3,-1.141034067E-3,7.780075073E-3
2.750004662E0,2.260424197E-3,2.287897095E-2,-4.190444946E-3
2.760004662E0,4.760809243E-3,1.241210848E-3,-1.137256622E-2
2.770005162E0,-1.939741522E-2,-1.350115798E-2,7.781982422E-3
2.780005162E0,-2.179935575E-3,1.282385737E-2,-1.792907715E-3
2.790005162E0,2.179205790E-2,3.272902220E-3,2.996444702E-3
2.800005162E0,2.688534558E-3,-3.996200860E-3,-8.975028992E-3
2.810005162E0,3.919601440E-4,-1.117061451E-2,-6.579399109E-3
2.830004695E0,-1.773908734E-4,5.343526602E-3,5.998611450E-4
2.840004695E0,-3.043264151E-3,7.500536740E-3,-4.190444946E-3
2.850004695E0,-1.052933186E-2,1.183401421E-2,-6.585121155E-3
2.870004495E0,-7.749497890E-4,-3.583222628E-3,-6.580352783E-3
2.880004495E0,4.052735865E-3,8.344255388E-3,6.027221680E-4
2.890004495E0,-5.448393524E-3,-6.400693208E-3,6.055831909E-4
2.900004495E0,-4.732683301E-4,5.184881389E-3,-6.574630737E-3
2.910004495E0,-9.889870882E-3,-4.748683423E-3,6.113052368E-4
2.920004495E0,-7.438547909E-3,-9.512446821E-3,3.005981445E-3
2.930004495E0,4.565127194E-3,-9.431019425E-3,6.113052368E-4
2.940004495E0,-2.578489482E-3,-9.474888444E-3,-4.177093506E-3
2.950004495E0,-1.435354352E-4,-1.188536361E-2,-8.965492249E-3
2.960004495E0,9.512364864E-3,4.985071719E-4,-1.136016846E-2
2.970004661E0,2.236522734E-3,5.361653864E-3,-1.136207581E-2
2.980004661E0,-2.505160868E-3,7.850326598E-3,7.792472839E-3
2.990005161E0,1.196578145E-2,5.602717400E-3,-4.179000854E-3
3.000005161E0,-2.850592136E-5,-1.107245311E-2,5.397796631E-3
3.010005161E0,-1.191203296E-2,-3.811012954E-3,3.004074097E-3
3.020005627E0,-9.512998164E-3,-1.569911279E-2,6.093978882E-4
3.030005627E0,7.224015892E-3,3.539845347E-3,-8.968353271E-3
3.040005627E0,-1.434382051E-2,-1.344878227E-3,-8.968353271E-3
3.050005627E0,2.448461950E-3,3.525201231E-3,6.084442139E-4
3.060005627E0,1.685808226E-2,1.314170659E-2,-1.786231995E-3
3.080005127E0,1.448989660E-2,1.311236247E-2,6.093978882E-4
3.090005127E0,-2.715483308E-3,-1.519806683E-3,-6.575584412E-3
3.100005127E0,6.379976869E-3,3.101207316E-3,-1.790046692E-3
3.110005127E0,8.745007217E-3,-4.107758403E-3,-1.615524292E-2
3.120005127E0,-1.322808862E-2,-4.250433296E-3,6.017684937E-4
3.130005127E0,-1.557215303E-2,-1.607170142E-2,5.390167236E-3
3.140005127E0,-2.522099763E-2,-6.532471627E-3,-8.975028992E-3
3.150005127E0,-7.465109229E-4,-1.100358367E-2,-6.579399109E-3
3.160005327E0,-5.548201501E-3,9.823888540E-4,6.036758423E-4
3.170005327E0,9.248502553E-3,1.236155629E-3,6.055831909E-4
3.180005327E0,-2.993494272E-4,1.262295991E-3,6.055831909E-4
3.200005027E0,2.294033766E-5,-1.080624759E-3,-6.575584412E-3
3.210005027E0,2.582103014E-3,-6.176643074E-4,-8.970260620E-3
3.220005027E0,-6.789363921E-3,-2.565089613E-3,-4.181861877E-3
3.230005027E0,-6.799399853E-3,2.293445170E-3,-1.136493683E-2
3.240005027E0,3.573074937E-4,-2.465933561E-3,-6.576538086E-3
3.250005027E0,7.579341531E-3,-4.904076457E-3,6.065368652E-4
3.260005027E0,-4.338271916E-3,-1.930054650E-2,-1.854801178E-2
3.270005360E0,1.011693478E-2,-4.328746349E-3,3.000259399E-3
3.280005360E0,1.246917248E-2,5.736794323E-3,-1.791000366E-3
3.300786906E0,-4.284448922E-3,-3.729324788E-3,-6.580352783E-3
3.310786906E0,-4.352949560E-3,-6.105974317E-3,1.017856598E-2
3.330786439E0,2.725422382E-4,1.141551882E-3,-1.793861389E-3
3.340786439E0,7.497519255E-3,5.941402167E-3,2.996444702E-3
3.350786905E0,7.471494377E-3,-6.000600755E-3,-1.376438141E-2
3.360786905E0,5.057938397E-3,3.480345011E-3,-1.137065887E-2
3.370786905E0,-6.856575608E-3,-1.086074114E-2,-4.187583923E-3
3.380786905E0,-9.221471846E-3,5.925446749E-3,-1.792907715E-3
3.390786905E0,-1.163869351E-2,1.221727580E-3,-6.582260132E-3
3.400786905E0,-1.530572772E-3,-2.506132051E-2,1.257610321E-2
3.410786905E0,8.030265570E-3,-1.073662937E-2,-4.183769226E-3
3.420786905E0,1.045076549E-2,-5.977127701E-3,-1.615428925E-2
3.430786905E0,5.716010928E-3,-1.558512449E-2,-1.136589050E-2
3.440786905E0,7.700547576E-4,6.375189871E-3,-8.975028992E-3
3.450786905E0,7.985323668E-3,1.668367535E-3,-8.974075317E-3
3.460786905E0,2.763926983E-3,-9.848210961E-3,7.781028748E-3
3.470786905E0,7.179722190E-3,-4.524618387E-3,-4.195213318E-3
3.480786905E0,-1.205582172E-2,7.479492575E-3,2.987861633E-3
3.490787205E0,-4.889234900E-3,2.556443214E-4,5.931854248E-4
3.500787205E0,4.716947675E-3,-9.295534343E-3,5.381584167E-3
3.510787205E0,1.433636248E-2,5.081623793E-3,-4.195213318E-3
3.520787671E0,6.657533348E-3,7.795330137E-3,-2.335453033E-2
3.530787671E0,1.898162067E-3,-6.544198841E-3,2.983093262E-3
3.540787671E0,1.431934536E-3,-1.646362245E-3,2.980232239E-3
3.550787671E0,-5.708463490E-3,7.942371070E-3,-8.991241455E-3
3.560787671E0,8.753433824E-3,5.529012531E-3,-6.596565247E-3
3.580787171E0,-8.597671986E-4,5.628433079E-3,-1.377964020E-2
3.590787171E0,1.347986609E-2,1.523489505E-2,-2.096271515E-2
3.600787171E0,1.114252955E-2,3.288116306E-3,-8.991241455E-3
3.610787171E0,-1.383036375E-3,4.248209298E-4,-8.993148804E-3
3.620787171E0,1.110613346E-3,-6.721775979E-3,-1.138782501E-2
3.630787171E0,-1.299843192E-3,4.202872515E-4,-1.378154755E-2
3.640787171E0,-6.104476750E-3,-1.159165613E-2,-1.617622375E-2
3.660786704E0,7.955841720E-3,6.328709424E-4,-8.996009827E-3
3.670786704E0,-6.481371820E-3,7.778029889E-3,-1.813888550E-3
3.680786704E0,-6.553083658E-3,1.013442874E-2,-1.813888550E-3
3.690786704E0,-4.181735218E-3,6.420798600E-4,2.974510193E-3
3.700786704E0,-8.986376226E-3,-1.136986353E-2,-1.139163971E-2
3.710786704E0,-8.957125247E-3,6.276518106E-4,1.255130768E-2
3.720786704E0,8.265174925E-3,-8.878130466E-3,-1.811981201E-3
3.730786704E0,-3.673739731E-3,-1.613654196E-3,-6.600379944E-3
3.740786704E0,-5.897261202E-3,-3.934185952E-3,5.372047424E-3
3.750786704E0,1.370093971E-2,-8.483704180E-3,5.855560303E-4
3.760786704E0,6.560549140E-3,8.287854493E-3,5.855560303E-4
3.770787204E0,-2.972759306E-3,1.144215465E-3,-4.201889038E-3
3.780787204E0,-1.969035715E-2,3.550011665E-3,-8.990287781E-3
3.790787204E0,6.620608270E-3,3.579448909E-3,-1.138496399E-2
3.800787204E0,8.995063603E-3,8.508145809E-3,-6.597518921E-3
3.810787204E0,1.839432493E-2,-1.517172903E-3,-4.202842712E-3
3.830786737E0,6.579101086E-3,3.331977874E-3,-8.989334106E-3
3.840786737E0,-1.494003087E-2,-1.579588279E-2,-1.617240906E-2
3.850786737E0,-1.255874336E-2,-6.203968078E-3,1.974105835E-2
3.860786737E0,-2.952314913E-3,-1.389082521E-3,-1.808166504E-3
3.870786737E0,-1.002278179E-2,5.815152079E-3,2.982139587E-3
3.880786737E0,-4.726514220E-3,8.347630501E-3,-1.138114929E-2
3.890786737E0,1.692817733E-2,-3.712832928E-3,-6.591796875E-3
3.900786737E0,-7.100671530E-3,-1.369092613E-3,2.985954285E-3
3.910786737E0,7.238954306E-3,1.054551452E-3,-1.138019562E-2
3.920786737E0,1.691840962E-2,1.551169530E-2,-6.591796875E-3
3.930786737E0,2.677887678E-4,-1.281928271E-3,7.775306702E-3
3.940786737E0,1.662134752E-2,8.016414940E-4,5.903244019E-4
3.950787203E0,-7.728300989E-3,-8.849695325E-3,-4.199981689E-3
3.960787203E0,-2.965651453E-3,1.272844151E-2,2.983093262E-3
3.970787203E0,4.191122949E-3,-4.002049565E-3,-1.856708527E-2
3.980787203E0,6.697587669E-3,-1.355794817E-2,-6.594657898E-3
3.990787203E0,1.390949637E-2,-1.560650766E-3,5.376815796E-3
4.000787203E0,-1.232970506E-2,1.041926071E-2,-1.617050171E-2
4.010787703E0,-1.242577285E-2,1.043873653E-2,-1.617145538E-2
4.020788169E0,-1.518312097E-2,1.040360704E-2,-1.809120178E-3
4.030788169E0,-7.718801498E-4,1.047089696E-2,5.373954773E-3
4.040788169E0,2.307926118E-2,-6.686583161E-3,-6.595611572E-3
4.050788169E0,-3.228567541E-3,-1.384336501E-2,-4.200935364E-3
4.060788169E0,-9.143352509E-4,-8.994799107E-3,-2.335739136E-2
4.080787669E0,-3.310203552E-3,5.545131862E-4,-4.201889038E-3
4.090787669E0,1.440800726E-3,1.978039369E-2,5.855560303E-4
4.100787669E0,-2.498239279E-2,7.758446038E-3,-1.138687134E-2
4.110787669E0,3.722786903E-3,7.787622511E-3,-4.203796387E-3
4.120787669E0,3.698155284E-3,-6.521180272E-3,5.836486816E-4
4.130787669E0,-3.580898046E-3,3.075167537E-3,-1.811027527E-3
4.140787669E0,-8.455760777E-3,6.298758090E-4,2.978324890E-3
4.150787669E0,-1.075919718E-2,1.034078747E-2,-4.204750061E-3
4.160787669E0,6.375893950E-3,7.702957839E-3,-6.595611572E-3
4.170787669E0,1.559697092E-3,-4.266768694E-3,5.375862122E-3
4.180787669E0,-7.952749729E-4,-9.098991752E-3,5.874633789E-4
4.190787669E0,6.402283907E-3,-4.297249019E-3,5.375862122E-3
4.200787669E0,8.783511817E-3,-1.146528684E-2,5.874633789E-4
4.210787669E0,-7.789507508E-4,-9.058009833E-3,5.874633789E-4
4.220787669E0,1.362886280E-2,2.924665809E-3,7.770538330E-3
4.230787669E0,-7.950447500E-3,-1.917816699E-3,2.982139587E-3
4.240787669E0,8.516550064E-3,-1.443121582E-3,-1.811027527E-3
4.260787202E0,-1.371323317E-2,1.683734357E-3,5.365371704E-3
4.270787702E0,-4.096992314E-3,8.822657168E-3,2.971649170E-3
4.280787702E0,-1.112669706E-2,1.645084471E-3,7.761001587E-3
4.290787702E0,5.665622652E-3,-6.675682962E-4,-1.139354706E-2
4.300787702E0,1.293627173E-2,1.377669722E-2,-4.210472107E-3
4.320786735E0,8.024163544E-3,6.615199149E-3,-8.999824524E-3
4.330786735E0,-1.753188670E-3,6.015341729E-3,5.779266357E-4
4.340786735E0,1.021324098E-2,1.261502132E-2,-8.996963501E-3
4.350786735E0,-9.096369147E-3,-6.835933775E-3,-8.996963501E-3
4.360786735E0,5.311712623E-3,9.935636073E-3,1.255226135E-2
4.370786735E0,-1.136364788E-2,2.775825560E-3,-6.602287292E-3
4.380786735E0,-1.807518303E-3,1.222878695E-2,5.807876587E-4
4.390786735E0,-4.198983312E-3,6.995562464E-3,-1.138877869E-2
4.400786735E0,-4.171423614E-3,-1.455474645E-2,-1.811981201E-3
4.410786735E0,-1.856309921E-2,7.023088634E-3,-8.994102478E-3
4.420786735E0,3.433816135E-3,-7.520299405E-3,-2.096176147E-2
4.430786735E0,-8.755028248E-4,-1.243299432E-2,-6.592750549E-3
4.440786735E0,8.726119995E-3,-2.912856638E-3,5.378723145E-3
4.450786735E0,-3.202989697E-3,-1.247853227E-2,-4.198074341E-3
4.460786735E0,6.545156240E-3,-7.116165012E-3,-2.335357666E-2
4.470786735E0,-1.018255204E-2,-2.246376127E-3,5.378723145E-3
4.480786735E0,-4.651248455E-4,-4.120483994E-3,-4.199981689E-3
4.490786735E0,4.418075085E-3,1.259256899E-2,-1.138114929E-2
4.500786735E0,-1.230630279E-2,7.941126823E-3,2.984046936E-3
4.510786735E0,6.875537336E-3,5.545206368E-3,-1.805305481E-3
4.520787235E0,-2.780184150E-4,1.035983115E-2,-1.804351807E-3
4.530787235E0,-2.456530929E-4,1.044152677E-2,-1.805305481E-3
4.540787235E0,9.300686419E-3,7.993344218E-3,-6.592750549E-3
4.550787235E0,-5.158007145E-3,-1.587457210E-2,-2.095985413E-2
4.560787235E0,-4.002898932E-4,-1.353422925E-2,2.983093262E-3
4.580786735E0,-5.110211670E-3,-8.833095431E-3,-1.617050171E-2
4.590786735E0,-4.896171391E-3,-6.089493632E-3,-1.138210297E-2
4.600786735E0,1.386776567E-4,8.706580848E-3,-1.377582550E-2
4.610786735E0,4.899494350E-3,1.110231131E-2,-8.987426758E-3
4.620786735E0,-2.317301929E-3,8.598782122E-3,-6.592750549E-3
4.630786735E0,-4.578538239E-3,-8.515715599E-3,2.985954285E-3
4.640786735E0,-8.867114782E-3,-6.121687591E-3,-1.799583435E-3
4.650786735E0,-6.375260651E-3,8.252076805E-3,-6.587028503E-3
4.660786735E0,-1.609757543E-3,1.312526315E-2,5.950927734E-4
4.670786735E0,-8.436426520E-3,3.209039569E-3,-4.189491272E-3
4.680786735E0,5.850970745E-3,-6.279930472E-3,-4.189491272E-3
4.690786735E0,-3.708280623E-3,-1.578844339E-2,-6.585121155E-3
4.700786735E0,1.554044336E-2,3.318760544E-3,-6.584167480E-3
4.710786735E0,1.318231225E-2,-3.963392228E-3,-1.376533508E-2
4.720786735E0,1.554884762E-2,-1.567661762E-3,5.998611450E-4
4.730786735E0,3.606654704E-3,2.000692487E-2,-6.583213806E-3
4.740786735E0,-1.073739678E-2,1.989472657E-2,-4.187583923E-3
4.750786735E0,5.939371884E-3,1.271653175E-2,-8.977890015E-3
4.760786735E0,7.589235902E-4,-4.841051996E-3,-1.794815063E-3
4.770787235E0,3.143198788E-3,1.677733660E-2,-6.584167480E-3
4.780787235E0,-1.140508056E-2,1.624580845E-2,6.008148193E-4
4.790787235E0,-8.982725441E-3,-1.251973212E-3,-1.791954041E-3
4.800787235E0,5.355097353E-3,-6.039269269E-3,-1.136875153E-2
4.810787235E0,-9.048134089E-3,1.215312630E-3,-1.136970520E-2
4.830786735E0,-1.448430121E-3,3.114279360E-3,-8.970260620E-3
4.840786735E0,-3.873467445E-3,1.982028782E-2,-1.788139343E-3
4.850786735E0,1.179397106E-3,-2.465099096E-3,6.122589111E-4
4.860786735E0,-3.383204341E-3,6.682530046E-3,-8.961677551E-3
4.870786735E0,2.320586517E-2,-1.053602993E-2,5.407333374E-3
4.880786735E0,5.990557373E-3,1.799865812E-2,-1.374912262E-2
4.890786735E0,1.229651272E-3,-1.157194376E-3,-1.777648926E-3
4.900786735E0,8.386440575E-3,3.660801798E-3,6.160736084E-4
4.910786735E0,-6.302222610E-3,-1.442696899E-3,-1.853942871E-2
4.920786735E0,5.693569779E-3,-1.586550288E-2,-1.778602600E-3
4.930786735E0,5.667544901E-3,-1.470491290E-3,-1.778602600E-3
4.940786735E0,5.642876029E-3,-1.413572580E-3,-1.779556274E-3
4.950786735E0,8.010961115E-3,3.404118121E-3,-1.135730743E-2
4.960786735E0,1.282722503E-2,-8.568875492E-3,-2.093315125E-2
4.970786735E0,-6.420001388E-3,1.083053648E-3,-4.174232483E-3
4.980786735E0,1.766666397E-2,-1.471940428E-3,6.160736084E-4
4.990786735E0,-4.320435226E-3,8.212830871E-3,-8.964538574E-3
5.000786735E0,5.105510354E-4,1.301302388E-2,-1.782417297E-3
5.010786735E0,-4.193305969E-3,1.064788550E-3,1.497840881E-2
5.020787201E0,7.747374475E-3,-8.565951139E-3,6.132125854E-4
5.030787201E0,-4.184849560E-3,-6.215635687E-3,-6.569862366E-3
5.040787201E0,1.019543409E-2,5.768813193E-3,7.796287537E-3
5.050787201E0,-8.916504681E-3,-1.337397099E-2,-4.175186157E-3
5.060787201E0,7.857970893E-3,5.793277174E-3,5.401611328E-3
5.080786701E0,2.874106169E-3,-8.089546114E-3,-1.784324646E-3
5.090786701E0,5.089938641E-4,-1.524624787E-2,1.258182526E-2
5.100786701E0,2.901971340E-3,4.380214959E-3,3.003120422E-3
5.110786701E0,1.012403518E-2,1.391362771E-2,-1.785278320E-3
5.120786701E0,-4.337646067E-3,-1.479827799E-2,7.791519165E-3
5.130786701E0,-1.845739782E-3,1.394141465E-2,7.792472839E-3
5.140786701E0,5.077868700E-4,-5.196679384E-3,-4.179954529E-3
5.150786701E0,1.724307612E-2,4.437260330E-3,5.396842957E-3
5.160786701E0,9.967125952E-3,2.127182111E-2,6.074905396E-4
5.170786701E0,-4.684351385E-3,4.124578089E-3,5.394935608E-3
5.180786701E0,2.467781305E-3,6.465215236E-3,7.789611816E-3
5.190786701E0,9.692870080E-3,1.688085496E-3,-1.787185669E-3
5.200786701E0,-2.260655165E-3,-7.820427418E-3,-1.788139343E-3
5.210786701E0,1.207868010E-2,6.574243307E-3,6.065368652E-4
5.220786701E0,8.275359869E-5,-1.731147617E-2,-1.788139343E-3
5.230786701E0,-9.590387344E-3,1.383357123E-2,-4.182815552E-3
5.240786701E0,-9.492740035E-3,-1.010085270E-2,-6.576538086E-3
5.250786701E0,-4.723265767E-3,-6.195157766E-4,5.394935608E-3
5.260786701E0,2.418927848E-3,8.973877877E-3,-6.576538086E-3
5.270787167E0,-4.791647196E-3,1.792505383E-3,-1.789093018E-3
5.280787167E0,-4.817873240E-3,6.610278040E-3,-1.615428925E-2
5.290787167E0,-9.578801692E-3,-2.968642861E-3,-1.789093018E-3
5.300787167E0,-2.356931567E-3,-3.012727946E-3,-6.576538086E-3
5.310787167E0,-9.521879256E-3,-5.496963859E-4,5.394935608E-3
5.330786700E0,-9.575873613E-3,-5.191974342E-4,-6.577491760E-3
5.340786700E0,-4.127375782E-3,-1.739952713E-2,-1.784324646E-3
5.350786700E0,1.058392227E-3,-5.283303559E-3,-4.175186157E-3
5.360786700E0,-3.746233881E-3,4.253227264E-3,6.132125854E-4
5.370786700E0,-3.277704120E-3,-7.536131889E-3,-6.567955017E-3
5.380786700E0,2.304327860E-2,4.394598305E-3,-4.172325134E-3
5.390786700E0,2.271175012E-2,4.677049816E-3,-4.176139832E-3
5.400786700E0,1.320488751E-3,9.790293872E-3,-6.571769714E-3
5.410786700E0,-1.111529768E-3,-2.109546214E-3,-6.571769714E-3
5.420786700E0,6.103768945E-3,5.154933780E-3,1.018810272E-2
5.430786700E0,1.325562596E-2,-4.476219416E-3,-8.965492249E-3
5.440786700E0,7.903575897E-4,1.239459589E-2,7.790565491E-3
5.450786700E0,1.044079661E-2,1.006599888E-2,-4.180908203E-3
5.460786700E0,-1.112064719E-2,2.897996455E-3,-4.181861877E-3
5.470786700E0,3.204278648E-3,5.199983716E-4,-4.181861877E-3
5.480786700E0,-3.991790116E-3,5.322936922E-3,-4.181861877E-3
5.490786700E0,3.150299191E-3,5.504898727E-4,-1.788139343E-3
5.500786700E0,5.586937070E-3,2.956382930E-3,-1.136493683E-2
5.510786700E0,7.576197386E-4,-6.604544818E-3,3.001213074E-3
5.520787200E0,5.588531494E-3,-8.987195790E-3,-6.576538086E-3
5.530787200E0,-4.087820649E-3,5.342341959E-3,-4.181861877E-3
5.540787200E0,-4.115656018E-3,1.492069662E-2,-4.182815552E-3
5.550787200E0,7.165595889E-4,4.882939160E-3,3.003120422E-3
5.560787200E0,8.597970009E-4,1.698508859E-4,-1.786231995E-3
5.580786733E0,3.114782274E-3,-2.163463831E-2,5.396842957E-3
5.590786733E0,1.750989631E-2,1.430594921E-2,3.003120422E-3
5.600786733E0,-2.309194952E-2,2.398550510E-3,6.093978882E-4
5.610786733E0,-3.926113248E-3,-3.791972995E-5,-1.785278320E-3
5.620786733E0,-6.281070411E-3,4.706960171E-3,7.792472839E-3
5.630786733E0,-3.844529390E-3,-9.647257626E-3,-1.784324646E-3
5.640786733E0,-1.095724851E-2,-7.242809981E-3,-1.784324646E-3
5.650786733E0,2.311430499E-2,7.300406694E-3,1.019096375E-2
5.660786733E0,1.363166422E-2,-9.506780654E-3,5.402565002E-3
5.670786733E0,-1.746921241E-2,-4.774965346E-3,6.151199341E-4
5.680786733E0,8.900105953E-3,1.685493812E-2,6.151199341E-4
5.690786733E0,-1.733922213E-2,-2.290841192E-3,3.009796143E-3
5.700786733E0,-2.209237218E-2,7.423076779E-3,-1.375007629E-2
5.710786733E0,-4.810899496E-3,-7.054932415E-3,1.259040833E-2
5.720786733E0,1.677691936E-2,9.661249816E-3,3.014564514E-3
5.730786733E0,-1.678670198E-2,4.833690822E-3,6.198883057E-4
5.740786733E0,1.677551121E-2,5.676224828E-5,-8.956909180E-3
5.750786733E0,1.436945796E-2,1.993209124E-3,-4.166603088E-3
5.760786733E0,1.906176284E-2,-7.564820349E-3,7.803916931E-3
5.770787199E0,-5.267210305E-3,-1.709261909E-2,-1.776695251E-3
5.780787199E0,6.736718118E-3,-1.940495893E-2,5.406379700E-3
5.790787199E0,-3.146320581E-3,-2.155542374E-3,-4.174232483E-3
5.800787199E0,1.576884091E-2,-1.711636782E-3,5.398750305E-3
5.810787199E0,-1.060592383E-2,-6.428651512E-3,-4.179000854E-3
5.830786699E0,-1.057341695E-2,-5.847182125E-3,1.018524170E-2
5.840786699E0,8.500918746E-3,-9.984709322E-4,3.002166748E-3
5.850786699E0,-1.544314623E-2,-2.920228988E-3,-6.577491760E-3
5.860786699E0,-1.090459526E-3,1.883067191E-3,7.788658142E-3
5.870786699E0,3.992177546E-3,-7.404696196E-3,5.394935608E-3
5.880786699E0,1.365938038E-2,4.936572164E-3,-4.182815552E-3
5.890786699E0,1.128286123E-2,2.610679716E-3,7.788658142E-3
5.900786699E0,-1.514729112E-2,2.910383046E-4,-6.578445435E-3
5.910786699E0,6.443358958E-3,5.090810359E-3,6.046295166E-4
5.920786699E0,8.362792432E-3,2.403605729E-3,-6.581306458E-3
5.930786699E0,1.319058239E-2,-2.428878099E-3,6.027221680E-4
5.940786699E0,-1.311869919E-2,-1.200743206E-2,1.017951965E-2
5.950786699E0,6.123326719E-3,1.680249721E-2,-1.791000366E-3
5.960786699E0,-1.059751958E-2,-1.586973667E-6,-1.791000366E-3
5.970786699E0,8.495688438E-3,-1.471111923E-2,-6.577491760E-3
5.980786699E0,-5.775325000E-3,-2.786781639E-3,-1.375961304E-2
5.990787199E0,-1.304440945E-2,-2.837546170E-3,3.000259399E-3
6.000787199E0,3.632381558E-3,-1.719864458E-2,-6.578445435E-3
6.010787199E0,8.447103202E-3,-2.862308174E-3,-4.183769226E-3
6.020787665E0,8.419431746E-3,-4.663132131E-4,-6.578445435E-3
6.030787665E0,6.002239883E-3,-1.235293038E-2,-1.136779785E-2
6.040787665E0,-1.400455832E-3,-1.660137251E-2,-4.187583923E-3
6.050787665E0,3.267668188E-3,-1.659348607E-3,5.979537964E-4
6.060787665E0,-8.671246469E-3,-1.115479507E-2,-1.796722412E-3
6.080787198E0,-8.607394993E-3,1.029297709E-2,-2.094936371E-2
6.090787198E0,-1.096242666E-2,-8.904915303E-3,-8.977890015E-3
6.100787198E0,-1.062756777E-2,3.339547664E-3,-8.975982666E-3
6.110787198E0,2.051247284E-2,5.746662617E-3,-1.137065887E-2
6.120787198E0,1.084218174E-2,3.426752985E-3,1.017570496E-2
6.130787198E0,6.095953286E-3,1.301537454E-2,1.017665863E-2
6.140787198E0,8.449420333E-3,-1.334201545E-3,5.989074707E-4
6.150787198E0,-8.736811578E-3,1.286074147E-2,-8.979797363E-3
6.160787198E0,-4.052959383E-3,5.295049399E-3,-1.796722412E-3
6.170787198E0,1.751328632E-2,-4.213493317E-3,-1.796722412E-3
6.180787198E0,1.514834166E-2,7.784225047E-3,-8.978843689E-3
6.190787198E0,1.040532440E-2,3.062713891E-3,2.992630005E-3
6.200787198E0,1.228711754E-2,5.235537887E-3,1.017189026E-2
6.210787198E0,-9.820669889E-3,-9.445864707E-3,-1.137924194E-2
6.220787198E0,2.134494483E-3,2.484649420E-3,-1.616764069E-2
6.230787198E0,-2.750039101E-3,7.292855531E-3,2.985954285E-3
6.240787198E0,-5.046643317E-3,2.512633801E-3,-1.377296448E-2
6.250787198E0,-2.178198099E-2,4.849966615E-3,-4.195213318E-3
6.260787198E0,2.461746335E-4,4.489429295E-3,1.496219635E-2
6.270787698E0,-2.118743956E-3,-9.849950671E-3,-1.137447357E-2
6.280787698E0,1.517261565E-2,6.727408618E-3,6.017684937E-4
6.290787698E0,3.115095198E-3,1.146514714E-2,5.389213562E-3
6.300787698E0,-4.153989255E-3,-1.252836175E-2,-1.615905762E-2
6.310787698E0,-1.609910280E-2,-2.980381250E-3,-1.137065887E-2
6.330787231E0,-1.130895317E-2,9.018782526E-3,-1.793861389E-3
6.340787231E0,-6.554923952E-3,-1.000837609E-2,2.995491028E-3
6.350787231E0,-1.141192019E-2,1.634637266E-2,1.257133484E-2
6.360787231E0,3.366559744E-3,8.848443627E-3,6.036758423E-4
6.370787231E0,-3.399580717E-3,-1.224275678E-3,-1.786231995E-3
6.380787231E0,-3.360249102E-3,-1.563366130E-2,-1.375675201E-2
6.390787231E0,1.457467675E-3,-6.030444056E-3,6.084442139E-4
6.400787231E0,3.873199224E-3,1.301132888E-2,-1.785278320E-3
6.410787231E0,-8.698478341E-4,1.786698401E-2,-8.967399597E-3
6.420787231E0,-1.750762016E-2,-9.018491954E-3,6.132125854E-4
6.430787231E0,-7.784068584E-4,2.899248153E-3,-6.569862366E-3
6.440787231E0,2.186715603E-3,-1.169268042E-2,1.977157593E-2
6.450787231E0,-4.901573062E-3,2.625979483E-3,3.012657166E-3
6.460787231E0,-4.990734160E-3,2.519980073E-3,3.013610840E-3
6.470787231E0,-2.568736672E-3,4.912886769E-3,7.802009583E-3
6.480787231E0,-4.989132285E-3,-7.029317319E-3,6.179809570E-4
6.490787231E0,4.615716636E-3,-9.425044060E-3,-4.169464111E-3
6.500787231E0,4.589565098E-3,-2.212975174E-3,3.012657166E-3
6.510787231E0,-2.266317606E-4,2.577226609E-3,5.406379700E-3
6.520787697E0,1.192555577E-2,1.026363671E-2,-1.614284515E-2
6.530787697E0,4.649795592E-3,-1.360432990E-2,-6.567001343E-3
6.540787697E0,2.287954092E-3,-8.734043688E-3,-1.778602600E-3
6.550787697E0,-1.200075448E-2,-1.603219286E-2,-1.614284515E-2
6.560787697E0,2.365179360E-3,-1.313767768E-2,7.798194885E-3
6.580787197E0,-4.776544869E-3,1.712147146E-3,1.019001007E-2
6.600720029E0,-1.183903217E-2,-1.199347712E-2,-1.614761353E-2
6.620653361E0,7.516205311E-3,9.918931872E-3,-4.176139832E-3
6.640587160E0,-9.196624160E-3,7.619559765E-3,-8.964538574E-3
6.660520492E0,3.917887807E-4,1.236546412E-2,-4.176139832E-3
6.680453824E0,3.376454115E-4,1.000144705E-2,-4.177093506E-3
6.700387156E0,-1.936607063E-3,1.205595210E-2,-8.962631226E-3
6.720320488E0,5.170740187E-3,-1.463789120E-2,6.141662598E-4
6.740254287E0,1.162876189E-2,3.973491490E-3,-1.783370972E-3
6.760187619E0,1.608096063E-2,-3.510095179E-3,-4.178047180E-3
6.780120951E0,1.335978508E-3,1.202333719E-3,3.003120422E-3
6.800054283E0,-1.071101427E-2,1.344863325E-3,-1.615333557E-2
6.819987149E0,-1.302680373E-2,-1.310841553E-2,-4.180908203E-3
6.839920481E0,8.453086019E-3,3.669098020E-3,-1.615238190E-2
6.859853813E0,1.084603369E-2,-3.541093320E-3,6.074905396E-4
6.879787612E0,1.457341015E-3,-1.058179885E-2,3.003120422E-3
6.889787612E0,1.541994512E-3,8.595377207E-3,-2.093982697E-2
6.899787612E0,8.822545409E-3,-8.155953139E-3,5.397796631E-3
6.909787612E0,1.609321684E-2,2.065390348E-2,-1.615047455E-2
6.919787612E0,-1.079536229E-2,-1.071866602E-3,-1.375865936E-2
6.939787145E0,1.229666173E-3,8.474044502E-3,-8.970260620E-3
6.949787145E0,1.094980538E-2,6.155077368E-3,-6.574630737E-3
6.959787145E0,3.582350910E-3,-8.533474058E-3,-1.375770569E-2
6.969787145E0,-8.288033307E-3,-2.762346342E-2,-1.786231995E-3
6.979787145E0,-8.193381131E-3,-2.767032757E-2,-1.785278320E-3
6.989787611E0,3.737062216E-3,8.259739727E-3,7.791519165E-3
6.999787611E0,1.563999802E-2,-1.299709082E-3,-6.574630737E-3
7.009787611E0,1.320181042E-2,8.238069713E-3,-4.180908203E-3
7.019787611E0,-1.360367984E-2,-8.703798056E-3,-1.375961304E-2
7.029787611E0,1.270714402E-2,-6.280373782E-3,-1.789093018E-3
7.049787144E0,-1.639806479E-2,-1.720830798E-3,-6.579399109E-3
7.059787144E0,7.920041680E-4,-1.370224915E-2,6.065368652E-4
7.069787144E0,5.567505956E-3,7.861018181E-3,-1.136493683E-2
7.079787144E0,-8.783400059E-3,-1.702886075E-3,1.018333435E-2
7.089787144E0,-3.952614963E-3,-1.845131069E-2,-1.375865936E-2
7.099787144E0,-3.812730312E-3,-6.460286677E-3,-1.788139343E-3
7.109787144E0,-6.348483264E-3,-8.902005851E-3,-4.181861877E-3
7.119787144E0,1.792071387E-2,-3.742653877E-3,6.074905396E-4
7.129787210E0,-8.541591465E-3,6.327576935E-3,2.999305725E-3
7.139787210E0,2.489512414E-2,-3.244966269E-3,-1.791000366E-3
7.149787210E0,-2.031005919E-3,1.937609166E-3,-4.189491272E-3
7.159787210E0,-9.313151240E-3,-4.928149283E-4,5.979537964E-4
7.169787210E0,2.330169082E-4,-5.469396710E-4,-1.796722412E-3
7.189786743E0,1.227899641E-2,-1.003108919E-2,5.979537964E-4
7.199786743E0,-6.790615618E-3,1.154033467E-2,-8.977890015E-3
7.209786743E0,2.761989832E-3,-1.952810213E-2,-4.190444946E-3
7.219786743E0,1.242686063E-2,-7.478199899E-3,-4.189491272E-3
7.229786743E0,2.409175038E-3,2.396391332E-2,-8.982658386E-3
7.239787209E0,9.157858789E-3,2.106066793E-3,-1.616668701E-2
7.249787209E0,-4.322901368E-4,1.169771329E-2,-6.590843201E-3
7.259787209E0,-1.483877003E-2,2.136759460E-3,-6.590843201E-3
7.269787209E0,-7.616616786E-3,9.275842458E-3,2.987861633E-3
7.279787209E0,-3.329664469E-4,4.551269114E-3,5.381584167E-3
7.299786742E0,-1.233205944E-2,-3.129813820E-3,1.017189026E-2
7.309786742E0,2.350427210E-3,3.757476807E-3,7.781028748E-3
7.319786742E0,-4.803210497E-3,8.572071791E-3,-6.585121155E-3
7.329786742E0,-7.221892476E-3,8.629392833E-3,2.992630005E-3
7.339786742E0,7.117383182E-3,-9.189471602E-4,2.991676331E-3
7.349786742E0,2.221763134E-5,1.553736627E-3,-1.376724243E-2
7.359786742E0,-1.197363436E-2,-3.177747130E-3,-1.796722412E-3
7.369786742E0,9.534023702E-3,6.415415555E-3,7.780075073E-3
7.379787208E0,4.787534475E-3,-1.033339277E-2,-4.191398621E-3
7.389787208E0,-4.760280252E-3,1.124132425E-2,-8.979797363E-3
7.399787208E0,2.440363169E-3,4.127148539E-3,-6.586074829E-3
7.409787208E0,-4.643365741E-3,3.663331270E-3,-1.376628876E-2
7.419787208E0,2.704858780E-4,1.993028447E-2,-2.094650269E-2
7.439787141E0,-1.145283133E-2,-1.726162806E-2,-1.136302948E-2
7.449787141E0,-1.351948082E-2,8.973632008E-3,3.005981445E-3
7.459787141E0,6.000265479E-3,6.406527013E-3,-1.135635376E-2
7.469787141E0,-1.031748205E-2,-8.247878402E-3,5.407333374E-3
7.479787141E0,-7.960870862E-3,1.097787917E-2,-6.565093994E-3
7.489787607E0,1.411916316E-2,6.006915122E-3,3.018379211E-3
7.499787607E0,-5.014121532E-3,-3.446139395E-3,6.227493286E-4
7.509787607E0,-7.366128266E-3,1.093093306E-2,-1.771926880E-3
7.519787607E0,4.928909242E-3,-1.103855669E-2,-8.950233459E-3
7.529787607E0,-1.186868548E-2,-3.784179688E-3,-4.161834717E-3
7.549787140E0,-1.659347117E-2,-1.490809023E-3,-1.134395599E-2
7.559787140E0,2.590015531E-3,-1.583020948E-2,-6.555557251E-3
7.569787140E0,4.956603050E-3,-1.343438402E-2,-6.556510925E-3
7.579787140E0,4.988893867E-3,-3.775853664E-3,-6.555557251E-3
7.589787140E0,7.352329791E-3,-3.829795867E-3,-6.556510925E-3
7.599787140E0,2.893324196E-2,-1.571943797E-2,-1.767158508E-3
7.609787140E0,-5.303509533E-3,-7.583908737E-4,-4.169464111E-3
7.619787140E0,-8.971616626E-4,-7.572572678E-3,-8.960723877E-3
7.629787606E0,-1.134738326E-3,8.181110024E-5,-6.571769714E-3
7.639787606E0,1.080268621E-2,9.549587965E-3,-6.570816040E-3
7.649787606E0,8.453927934E-3,7.222421467E-3,-1.614856720E-2
7.659787606E0,-1.779823750E-2,1.442861930E-2,3.007888794E-3
7.669787606E0,1.265838742E-3,-2.701129764E-3,5.401611328E-3
7.689787139E0,1.090990007E-2,6.830662489E-3,-1.375102997E-2
7.699787139E0,1.292049885E-3,-5.124621093E-3,-6.569862366E-3
7.709787139E0,3.725498915E-3,-2.774309367E-3,-1.780509949E-3
7.719787139E0,9.059384465E-4,1.168477535E-2,-1.784324646E-3
7.729787139E0,9.936168790E-4,1.415738836E-2,-1.783370972E-3
7.739787605E0,2.969405800E-2,-7.444947958E-3,-1.783370972E-3
7.749787605E0,-4.249103367E-3,2.016615123E-3,-1.786231995E-3
7.759787605E0,-2.310298383E-3,-5.363047123E-3,-6.576538086E-3
7.769787605E0,9.543448687E-5,4.171714187E-3,5.394935608E-3
7.779787605E0,1.672000811E-2,-5.342315882E-3,6.055831909E-4
7.799787138E0,-1.015329361E-2,6.728369743E-3,-4.187583923E-3
7.809787138E0,-2.990402281E-3,-7.497332990E-3,-1.137065887E-2
7.819787138E0,-7.764488459E-3,2.092614770E-3,-6.582260132E-3
7.829787138E0,-1.490814984E-2,-2.739891410E-3,-2.094745636E-2
7.839787138E0,-1.249620318E-2,1.169411838E-2,-1.793861389E-3
7.849787138E0,-4.807651043E-3,1.964349300E-3,7.788658142E-3
7.859787138E0,1.430573314E-2,-1.956804842E-2,-4.183769226E-3
7.869787138E0,-2.258673310E-3,4.891555756E-3,-4.184722900E-3
7.879787604E0,-4.665888846E-3,-2.276521176E-3,-6.579399109E-3
7.889787604E0,2.531386912E-3,2.524878830E-3,-6.579399109E-3
7.899787604E0,1.201537997E-2,2.051629126E-4,7.785797119E-3
7.909787604E0,2.157650515E-2,-4.623759538E-3,-8.973121643E-3
7.919787604E0,9.567581117E-3,-2.131200582E-2,7.785797119E-3
7.939787137E0,1.931048930E-3,-4.221018404E-3,1.017475128E-2
7.949787137E0,1.148050278E-2,1.254055277E-2,-4.190444946E-3
7.959787137E0,-8.058309555E-3,1.022334769E-2,2.989768982E-3
7.969787137E0,-3.300599754E-3,2.986587584E-3,5.950927734E-4
7.979787137E0,6.190180779E-3,-4.247263074E-3,5.950927734E-4
7.989787603E0,1.305475831E-3,2.954825759E-3,5.931854248E-4
7.999787603E0,-5.841873586E-3,-6.485257298E-3,1.495838165E-2
8.009787603E0,6.174750626E-3,-1.630011946E-3,-6.589889526E-3
8.019787603E0,6.259404123E-3,-1.357841305E-2,-1.616573334E-2
8.029788069E0,8.678324521E-3,1.030749828E-2,-6.588935852E-3
8.049787602E0,-6.017372012E-3,3.434531391E-3,-6.591796875E-3
8.059787602E0,1.137688756E-3,-1.352496445E-3,-1.856327057E-2
8.069787602E0,-1.080432534E-2,1.064514369E-2,5.379676819E-3
8.079787602E0,5.983248353E-3,-1.327872276E-3,-1.138019562E-2
8.089787602E0,-1.240424812E-3,1.082543284E-3,-2.095794678E-2
8.099787602E0,1.070321351E-2,-1.567592472E-2,-1.804351807E-3
8.109787602E0,-1.298740506E-3,3.424748778E-3,-1.804351807E-3
8.119787602E0,-1.570969820E-2,-1.340189017E-2,5.912780762E-4
8.129788068E0,5.881041288E-3,-8.601915091E-3,1.016807556E-2
8.139788068E0,-6.127953529E-3,3.441113979E-3,-1.804351807E-3
8.149788068E0,1.058965176E-2,3.429591656E-3,-8.986473083E-3
8.159788068E0,-3.681443632E-3,9.882524610E-4,-1.803398132E-3
8.169788068E0,-3.598414361E-3,9.835176170E-4,5.912780762E-4
8.189787601E0,8.488267660E-3,1.060280949E-3,-1.802444458E-3
8.199787601E0,1.324614137E-2,3.400836140E-3,-4.197120667E-3
8.209787601E0,-1.215621829E-3,-1.368347555E-3,-4.197120667E-3
8.219787601E0,-1.076509058E-2,1.060145348E-2,2.985954285E-3
8.229787601E0,-5.951918662E-3,8.150171489E-3,-6.591796875E-3
8.239788067E0,-1.785022765E-2,2.258108184E-2,-4.196166992E-3
8.249788067E0,4.128038883E-3,5.223080516E-4,5.970001221E-4
8.259788067E0,-3.079459071E-3,7.762044668E-3,-6.586074829E-3
8.269788067E0,-5.345381796E-3,1.929574087E-2,-4.189491272E-3
8.279788067E0,-7.555946708E-3,4.489142448E-3,7.784843445E-3
8.299787600E0,3.155171871E-4,-1.393917948E-3,-6.571769714E-3
8.309787600E0,-2.119570971E-3,-1.377847046E-3,-6.571769714E-3
8.319787600E0,7.499873638E-3,-1.366149634E-3,7.794380188E-3
8.339787133E0,1.032172889E-2,-2.082225308E-2,5.403518677E-3
8.349787133E0,-6.841957569E-3,-1.187112182E-3,-6.572723389E-3
8.359787133E0,2.191687748E-2,-3.583226353E-3,-4.178047180E-3
8.369787133E0,2.333477139E-3,-1.049211249E-2,-1.136493683E-2
8.379787599E0,1.641149446E-2,-1.017053798E-2,-2.333927155E-2
8.389788065E0,-3.183394670E-3,1.408857107E-2,-1.137256622E-2
8.399788065E0,-5.623027682E-3,-5.132447928E-3,5.387306213E-3
8.409788065E0,-8.051753044E-3,6.965994835E-3,-6.584167480E-3
8.419788065E0,-8.296892047E-4,-7.443346083E-3,-1.376628876E-2
8.439787598E0,1.617051661E-3,-1.468444429E-2,-1.795768738E-3
8.449787598E0,1.839169487E-2,-9.882628918E-3,5.387306213E-3
8.459787598E0,-1.031196117E-2,-2.701450139E-3,-1.794815063E-3
8.469787598E0,-1.268856227E-2,-1.460446231E-2,-4.189491272E-3
8.479787598E0,-3.008723259E-3,-2.041153610E-3,5.386352539E-3
8.489788064E0,9.109012783E-3,5.772329867E-3,5.960464478E-4
8.499788064E0,-1.002734900E-2,3.446634859E-3,-1.798629761E-3
8.509788064E0,-2.816878259E-3,-1.570921019E-2,-8.980751038E-3
8.519788064E0,1.930840313E-3,1.064396277E-2,-1.798629761E-3
8.529788064E0,1.844607294E-3,-2.771526948E-2,5.960464478E-4
8.549787597E0,-5.193315446E-3,-1.035217941E-2,-1.137733459E-2
8.559787597E0,1.162695140E-2,-1.949369907E-4,-1.377296448E-2
8.569787597E0,4.335142672E-3,-6.843730807E-3,-1.804351807E-3
8.579787597E0,2.116825804E-2,2.798918635E-3,-8.986473083E-3
8.589787597E0,-1.760382205E-2,7.988534868E-3,-4.202842712E-3
8.599787597E0,8.761003613E-3,7.987111807E-3,-8.991241455E-3
8.609787597E0,-3.179728985E-3,8.579120040E-4,-1.809120178E-3
8.619787597E0,-1.752769947E-2,8.109100163E-3,-4.202842712E-3
8.629788063E0,-1.750005782E-2,-1.469645649E-3,-8.991241455E-3
8.639788063E0,1.597898081E-2,9.407028556E-4,-8.991241455E-3
8.649788063E0,-7.921360433E-3,3.346696496E-3,7.769584656E-3
8.659788063E0,-7.546089590E-3,-1.685187221E-3,2.984046936E-3
8.669788063E0,-4.547178745E-3,2.986367792E-3,-6.588935852E-3
8.689787129E0,4.092454910E-4,3.004986793E-3,-8.981704712E-3
8.699787129E0,2.901181579E-3,-4.169508815E-3,-1.376914978E-2
8.709787129E0,-1.617603749E-2,-6.679005921E-3,5.970001221E-4
8.719787129E0,3.002800047E-3,1.241835207E-2,7.780075073E-3
8.729787129E0,-8.937761188E-3,2.895019948E-3,-6.586074829E-3
8.739787595E0,7.791303098E-3,4.468783736E-4,7.780075073E-3
8.749787595E0,-6.604932249E-3,-4.395190626E-3,5.970001221E-4
8.759787595E0,-1.137890667E-2,-9.170766920E-3,-1.797676086E-3
8.769787595E0,-1.134818047E-2,-9.116951376E-3,-1.797676086E-3
8.779787595E0,-1.130910218E-2,4.159882665E-4,-1.137351990E-2
8.799787128E0,-1.341059804E-3,4.499889910E-4,-1.376533508E-2
8.809787128E0,1.543343812E-2,-1.629696041E-2,-1.137161255E-2
8.819787128E0,9.293705225E-4,-6.212379783E-3,2.991676331E-3
8.829787128E0,-8.809044957E-3,3.957130015E-3,-1.800537109E-3
8.839787128E0,-1.124258339E-2,6.395179778E-3,-1.616573334E-2
8.849787128E0,3.162235022E-3,1.113976911E-2,5.382537842E-3
8.859787128E0,3.061309457E-3,-3.289993852E-3,-1.856136322E-2
8.869787128E0,1.990880445E-2,-8.000332862E-3,-4.194259644E-3
8.879787594E0,-1.364178956E-2,-8.712448180E-4,5.381584167E-3
8.889787594E0,-4.107140005E-3,6.299756467E-3,-1.616668701E-2
8.899787594E0,-1.753702760E-3,6.315901875E-3,-8.983612061E-3
8.909787594E0,1.498150080E-2,1.355537027E-2,5.381584167E-3
8.919787594E0,-1.387364417E-2,2.504784241E-2,-1.801490784E-3
8.929787627E0,2.951316535E-3,7.714476436E-3,-4.192352295E-3
8.939787627E0,-1.138971746E-2,2.869162709E-3,-4.191398621E-3
8.949787627E0,9.730607271E-4,-2.621773630E-3,-1.792907715E-3
8.959787627E0,-3.846332431E-3,-5.069982260E-3,-4.186630249E-3
8.969787627E0,6.105408072E-3,-5.576696247E-3,-4.181861877E-3
8.979787627E0,6.133049726E-3,-5.578350276E-3,-1.854801178E-2
8.989788093E0,-1.053240895E-2,-2.477980778E-2,3.002166748E-3
8.999788093E0,4.002630711E-3,6.891869009E-3,7.789611816E-3
9.009788093E0,8.693426847E-3,6.883338094E-3,6.055831909E-4
9.019788093E0,-3.180377185E-3,6.891462952E-3,-6.576538086E-3
9.029788093E0,1.114437729E-2,6.907340139E-3,7.789611816E-3
9.049787626E0,8.740164340E-3,-9.782470763E-3,3.000259399E-3
9.059787626E0,-3.206655383E-3,-7.445234805E-3,6.065368652E-4
9.069787626E0,-5.628608167E-3,9.316410869E-3,-6.576538086E-3
9.079787626E0,-5.729384720E-3,9.252525866E-3,-6.577491760E-3
9.089787626E0,1.339716464E-2,-7.505748421E-3,-6.577491760E-3
9.099787626E0,-2.016645670E-2,-9.939040989E-3,-8.971214294E-3
9.109787626E0,3.803938627E-3,-5.152143538E-3,-1.789093018E-3
9.119787626E0,2.040452883E-2,-5.268339068E-3,5.393028259E-3
9.129788092E0,-3.746539354E-3,-2.153054811E-2,-6.581306458E-3
9.139788092E0,1.044610888E-2,1.262380555E-2,5.979537964E-4
9.149788092E0,-1.500807703E-3,1.017230004E-2,5.979537964E-4
9.159788092E0,9.180903435E-4,2.932470292E-3,2.993583679E-3
9.169788092E0,8.125439286E-3,2.875503153E-3,-1.137256622E-2
9.189787625E0,-4.391908646E-3,1.022801921E-2,-6.587982178E-3
9.199787625E0,-4.377327859E-3,-4.124656320E-3,-8.981704712E-3
9.209787625E0,-4.408098757E-3,-1.784045249E-3,-8.981704712E-3
9.219787625E0,7.587730885E-3,1.491863653E-2,5.950927734E-4
9.239787591E0,2.682253718E-3,1.241988689E-2,5.950927734E-4
9.249787591E0,9.895980358E-3,-4.286073148E-3,5.383491516E-3
9.259787591E0,-9.243629873E-3,1.488110051E-2,-1.377010345E-2
9.269787591E0,-1.163344085E-2,9.675763547E-3,-1.616382599E-2
9.279787591E0,-1.896627247E-3,-1.009864733E-2,-4.189491272E-3
9.299787124E0,-6.756670773E-3,-5.347739905E-3,5.387306213E-3
9.309787124E0,3.983899951E-4,-2.951938659E-3,-1.376628876E-2
9.319787124E0,-2.023465931E-3,-5.559884012E-4,5.989074707E-4
9.329787124E0,-6.787545979E-3,1.781050116E-3,-1.795768738E-3
9.339787124E0,-1.984454691E-3,1.794096082E-3,-6.584167480E-3
9.349787124E0,7.561907172E-3,-1.262529008E-2,-1.137256622E-2
9.359787124E0,7.586613297E-3,-1.747065783E-2,1.017570496E-2
9.369787124E0,5.219988525E-3,1.365327090E-2,-4.188537598E-3
9.379787590E0,5.244508386E-3,8.807759732E-3,5.998611450E-4
9.389787590E0,1.239959151E-2,1.626383513E-3,-6.583213806E-3
9.399787590E0,7.220186293E-3,-1.037877798E-2,-1.137351990E-2
9.409787590E0,-9.947307408E-3,-1.021686196E-2,7.777214050E-3
9.419787590E0,-3.001540899E-4,-5.418241024E-3,2.989768982E-3
9.439787123E0,4.482150078E-3,-1.031766459E-2,-8.981704712E-3
9.449787123E0,4.140779376E-3,-2.782266587E-3,-4.197120667E-3
9.459787123E0,1.840582862E-2,-1.721141487E-2,-8.986473083E-3
9.469787123E0,-8.342601359E-3,2.143940702E-2,-8.989334106E-3
9.479787123E0,-8.245222270E-3,2.144740149E-2,-8.989334106E-3
9.489787589E0,1.292630285E-2,1.637448743E-2,-4.202842712E-3
9.499787589E0,1.985413954E-2,2.082972601E-2,-8.991241455E-3
9.509787589E0,-7.078386843E-3,5.747649819E-3,-4.203796387E-3
9.519787589E0,2.155445516E-3,2.839230001E-4,-1.138687134E-2
9.529787589E0,9.365722537E-3,2.676408738E-3,1.016139984E-2
9.549787122E0,-7.823333144E-4,-5.279872566E-3,-1.857089996E-2
9.559787122E0,-7.934264839E-3,-5.225852132E-3,-1.857089996E-2
9.569787122E0,1.830655709E-2,-1.238949597E-2,-1.811027527E-3
9.579787122E0,6.365925074E-3,2.029892057E-3,-4.205703735E-3
9.589787622E0,1.351807639E-2,-4.181005061E-4,5.372047424E-3
9.599787622E0,-1.092158258E-2,-3.623478115E-4,-2.096843719E-2
9.609787622E0,-1.102930307E-2,-3.008544445E-4,-2.096939087E-2
9.619787622E0,-1.406669617E-3,-2.178230882E-2,-2.096939087E-2
9.629788122E0,-1.095614582E-2,2.158869058E-3,1.973342896E-2
9.639788122E0,-3.804169595E-3,-2.893321216E-4,-6.603240967E-3
9.649788122E0,-8.522585034E-3,2.115029842E-3,5.368232727E-3
9.659788122E0,-3.706313670E-3,-5.069181323E-3,-6.603240967E-3
9.669788122E0,5.837015808E-3,4.398800433E-3,5.798339844E-4
9.689787655E0,-8.190132678E-3,2.096779644E-3,-1.378345490E-2
9.699787655E0,-1.068509370E-2,1.400446147E-2,-6.601333618E-3
9.709787655E0,-1.739183813E-2,-1.730064303E-2,-8.991241455E-3
9.719787655E0,1.449524239E-2,2.060756087E-3,1.016616821E-2
9.729787655E0,-1.187950373E-2,6.920769811E-3,1.255989075E-2
9.739788121E0,-2.267889678E-3,1.397655532E-2,5.893707275E-4
9.749788121E0,5.378276110E-4,-7.315911353E-4,-1.377201080E-2
9.759788121E0,1.013249159E-2,-5.451966077E-3,-1.800537109E-3
9.769788121E0,-1.138813794E-2,-1.742461324E-2,-6.588935852E-3
9.779788121E0,5.278833210E-3,-1.495548151E-2,-6.589889526E-3
9.799787654E0,7.852546871E-3,2.280559391E-3,-1.803398132E-3
9.809787654E0,-4.041954875E-3,-2.177761495E-2,-6.589889526E-3
9.819787654E0,3.330238163E-3,7.359698415E-3,2.987861633E-3
9.829787654E0,-8.571177721E-3,-1.417890005E-2,-1.801490784E-3
9.839787654E0,-6.165087223E-3,1.261603832E-2,2.985954285E-3
9.849787654E0,-3.744617105E-3,3.009788692E-3,-6.590843201E-3
9.859787654E0,-3.398485482E-3,3.240149468E-3,-6.589889526E-3
9.869787654E0,-3.552906215E-3,1.088992134E-2,5.378723145E-3
9.879788120E0,-1.065262407E-2,3.702618182E-3,-1.803398132E-3
9.899787620E0,1.568147168E-2,-1.141104847E-3,-2.335166931E-2
9.909787620E0,1.332633942E-2,5.997829139E-3,-6.591796875E-3
9.919787620E0,-1.014769077E-3,-1.560766995E-2,1.016807556E-2
9.939787120E0,1.333775371E-2,-1.559314877E-2,-1.803398132E-3
9.949787120E0,-8.308462799E-3,-1.236014068E-3,2.985954285E-3
9.959787120E0,-1.074044406E-2,8.412543684E-3,-1.138019562E-2
9.969787120E0,-1.082357764E-2,8.417099714E-3,-1.138114929E-2
9.979787120E0,-3.671452403E-3,3.574900329E-3,7.773399353E-3
9.989787586E0,5.832381546E-3,1.019242406E-2,1.256370544E-2
9.999787586E0,9.183660150E-4,-9.468566626E-3,-1.137828827E-2
1.000978805E1,8.936971426E-4,-1.659447700E-2,-1.377201080E-2
1.001978805E1,7.829740644E-4,9.748838842E-3,5.922317505E-4
1.002978805E1,1.033926755E-2,4.782155156E-5,-6.590843201E-3
1.004978758E1,7.523447275E-4,2.512387931E-3,-1.856327057E-2
1.005978758E1,-6.391309202E-3,-2.320121974E-3,-4.196166992E-3
1.006978758E1,5.527704954E-3,2.526894212E-3,5.912780762E-4
1.007978758E1,-8.795589209E-3,7.327064872E-3,-1.802444458E-3
1.008978758E1,-1.588143408E-3,1.205860078E-2,-1.802444458E-3
1.009978759E1,7.343292236E-4,-4.505738616E-4,-1.137733459E-2
1.010978759E1,7.078200579E-4,-3.315858543E-3,7.778167725E-3
1.011978759E1,7.255822420E-4,-8.530281484E-4,-4.192352295E-3
1.012978809E1,-4.090718925E-3,-8.515752852E-4,5.960464478E-4
1.013978809E1,-4.072792828E-3,-7.965557277E-3,-6.587982178E-3
1.014978808E1,-1.607820392E-2,-5.680792034E-3,1.256656647E-2
1.015978808E1,-6.157808006E-3,-3.111138940E-3,-1.797676086E-3
1.016978808E1,6.306655705E-3,-1.016879082E-2,-4.188537598E-3
1.018978762E1,-9.053200483E-4,-7.300812751E-3,2.992630005E-3
1.019978762E1,-3.327354789E-3,-2.166493237E-2,7.781028748E-3
1.020978762E1,1.825348660E-2,-3.500655293E-5,-1.137351990E-2
1.021978762E1,3.689385951E-3,1.715243608E-2,1.017189026E-2
1.022978762E1,1.083004475E-2,-9.195819497E-3,2.989768982E-3
1.023978808E1,-1.588210464E-3,-1.807410270E-3,2.985000610E-3
1.024978808E1,-8.816599846E-3,5.308214575E-3,-1.804351807E-3
1.025978808E1,-1.661419868E-3,-9.055785835E-3,-1.856422424E-2
1.026978808E1,6.466135383E-4,2.864830196E-3,-6.592750549E-3
1.027978808E1,3.068596125E-3,-9.108170867E-3,-1.804351807E-3
1.029978762E1,5.989000201E-4,1.258322597E-2,-1.138305664E-2
1.031978715E1,-1.131410897E-2,-1.130735502E-2,-1.805305481E-3
1.032978715E1,7.419213653E-4,1.744692028E-2,-8.986473083E-3
1.033978715E1,1.059861481E-2,-4.561942071E-3,5.931854248E-4
1.034978715E1,-3.794714808E-3,-6.954740733E-3,2.987861633E-3
1.035978715E1,1.059858501E-2,1.698636264E-2,-1.137828827E-2
1.036978715E1,-1.804957539E-2,-9.355217218E-3,-6.588935852E-3
1.037978762E1,-1.330330968E-3,2.382472157E-4,-8.983612061E-3
1.038978762E1,-1.291163266E-3,4.982832819E-3,5.941390991E-4
1.039978762E1,1.057936251E-2,1.210175455E-2,5.931854248E-4
1.040978762E1,-1.096784323E-2,4.446558654E-3,2.989768982E-3
1.041978762E1,-3.687299788E-3,-3.336369991E-4,-4.192352295E-3
1.043978712E1,4.146672785E-3,-6.144773215E-3,-8.973121643E-3
1.044978712E1,1.653097570E-3,-6.180983037E-3,-1.791000366E-3
1.045978712E1,1.365905255E-2,-3.913730383E-3,6.046295166E-4
1.046978712E1,6.490781903E-3,5.676418543E-3,-1.136684418E-2
1.047978712E1,-2.465943992E-2,-3.843840212E-3,-4.183769226E-3
1.048978758E1,-1.026587188E-2,-1.342217997E-2,-1.136684418E-2
1.049978758E1,4.059046507E-3,-1.819438487E-2,2.998352051E-3
1.050978758E1,1.115873456E-2,5.752917379E-3,-6.579399109E-3
1.051978758E1,1.112196594E-2,-3.988482058E-3,-6.579399109E-3
1.052978758E1,1.308828592E-3,-1.546051167E-2,5.389213562E-3
1.054978712E1,1.093509048E-2,-3.603182733E-3,-8.975028992E-3
1.055978712E1,-1.293130219E-3,8.743613958E-3,5.979537964E-4
1.056978712E1,3.517121077E-3,-1.052252576E-2,5.989074707E-4
1.057978712E1,-1.115893573E-2,-7.721625268E-3,-8.981704712E-3
1.058978712E1,8.075200021E-3,1.137243584E-2,-1.376914978E-2
1.059978712E1,1.038951427E-2,-1.251010597E-2,-6.587982178E-3
1.060978712E1,1.242931932E-2,7.011119276E-3,-4.197120667E-3
1.061978712E1,-1.967079937E-3,4.563096911E-3,-4.198074341E-3
1.062978758E1,-1.004114747E-4,-7.406409830E-3,2.982139587E-3
1.063978758E1,6.677880883E-3,-2.400588244E-3,-4.204750061E-3
1.064978758E1,4.248984158E-3,2.514813095E-3,-1.378154755E-2
1.065978758E1,-2.971485257E-3,-1.177934930E-2,-1.857185364E-2
1.066978758E1,-8.026845753E-3,1.021455601E-2,-1.378536224E-2
1.068978711E1,-3.192737699E-3,3.098923713E-3,-4.208564758E-3
1.069978711E1,-7.739067078E-4,-6.535209715E-3,-4.208564758E-3
1.070978711E1,9.238831699E-3,5.773127079E-3,-4.207611084E-3
1.071978711E1,1.405503228E-2,-1.411337405E-3,-1.617908478E-2
1.072978711E1,-5.071528256E-3,5.769841373E-3,-4.206657410E-3
1.073978758E1,2.126023173E-3,-1.337109692E-2,2.976417542E-3
1.074978758E1,1.646376029E-2,1.057289541E-2,5.370140076E-3
1.075978758E1,-2.894452214E-2,1.056796685E-2,-1.617717743E-2
1.076978758E1,-4.959464073E-3,-1.096897945E-2,-1.811981201E-3
1.077978758E1,1.192581654E-2,1.298053563E-2,5.826950073E-4
1.079978711E1,-7.466509938E-3,5.268935114E-3,-4.204750061E-3
1.080978711E1,-1.216712594E-2,-4.229351878E-3,-1.138782501E-2
1.081978711E1,4.672922194E-3,2.893712372E-3,1.734447479E-2
1.082978711E1,-1.924210787E-2,-4.290726036E-3,-1.138687134E-2
1.083978711E1,2.966292202E-3,-2.016752958E-3,2.985000610E-3
1.084978711E1,1.012147218E-2,2.773437649E-3,-8.987426758E-3
1.085978711E1,-4.274755716E-3,-6.857186556E-3,-1.805305481E-3
1.086978711E1,-1.908250153E-3,9.904257953E-3,-1.856517792E-2
1.087978758E1,1.002558321E-2,7.581658661E-3,5.884170532E-4
1.088978758E1,-1.162692904E-2,2.173967659E-3,-8.986473083E-3
1.089978758E1,2.972386777E-3,-5.112141371E-4,-6.589889526E-3
1.090978758E1,8.142143488E-4,-8.193280548E-3,-6.586074829E-3
1.091978758E1,-6.354041398E-3,6.185345352E-3,-8.979797363E-3
1.093978711E1,-1.107862592E-2,-1.306936890E-2,1.017475128E-2
1.094978711E1,-1.105098426E-2,-1.067673787E-2,-1.796722412E-3
1.095978711E1,3.397472203E-3,-1.104693860E-3,5.387306213E-3
1.096978711E1,1.532812789E-2,6.094392389E-3,5.979537964E-4
1.097978711E1,3.402121365E-3,-1.021616161E-3,-8.978843689E-3
1.098978758E1,1.077711582E-3,-2.974323183E-2,-1.376724243E-2
1.099978758E1,2.259201556E-2,-3.845617175E-4,5.384445190E-3
1.100978758E1,-4.143431783E-3,-9.633880109E-3,-6.590843201E-3
1.101978758E1,-1.170066744E-2,1.002736017E-2,-6.595611572E-3
1.102978758E1,-1.652006060E-2,-1.997947693E-3,5.375862122E-3
1.104978711E1,-2.137014270E-2,5.077291280E-3,-8.989334106E-3
1.105978711E1,-8.914880455E-3,2.642218024E-3,-4.198074341E-3
1.106978711E1,-3.632545471E-3,9.713977575E-3,-4.193305969E-3
1.107978711E1,5.969107151E-3,-4.708699882E-3,7.778167725E-3
1.108978711E1,-1.254469156E-3,1.685586572E-2,5.382537842E-3
1.109978711E1,-3.679603338E-3,1.680200547E-2,-1.855945587E-2
1.110978711E1,-3.445133567E-3,6.697945297E-3,2.993583679E-3
1.111978711E1,-9.287074208E-4,-1.033339649E-3,-1.615905762E-2
1.112978758E1,3.818914294E-3,-1.777731255E-2,-1.793861389E-3
1.113978758E1,3.788232803E-3,-1.783102378E-2,-1.793861389E-3
1.114978758E1,-1.031063497E-3,3.663703799E-3,1.017761230E-2
1.115978758E1,-1.782865077E-2,-1.063038036E-2,-1.793861389E-3
1.116978758E1,4.246830940E-3,-1.757888123E-2,2.997398376E-3
1.118978711E1,-9.856253862E-3,-1.950158551E-2,-1.791954041E-3
1.119978711E1,1.200009882E-2,-1.178047806E-2,-4.185676575E-3
1.120978711E1,-2.155296504E-3,-4.067528993E-3,-4.186630249E-3
1.121978711E1,-1.161364466E-2,-1.041013747E-3,1.257228851E-2
1.122978711E1,-1.132322848E-2,9.006328881E-3,-1.793861389E-3
1.123978758E1,2.025176212E-2,-2.878692001E-3,-1.615619659E-2
1.124978758E1,8.309662342E-3,1.935925335E-3,-1.791000366E-3
1.125978758E1,1.078696549E-2,-2.857368439E-3,7.787704468E-3
1.126978758E1,1.182094216E-3,1.150980219E-2,7.787704468E-3
1.127978758E1,-3.591880202E-3,1.945674419E-3,-1.790046692E-3
1.129978711E1,-1.543778181E-2,1.952577382E-3,3.000259399E-3
1.130978711E1,1.106978208E-2,-8.050803095E-3,6.084442139E-4
1.131978711E1,-8.153617382E-4,-2.236561291E-2,-6.574630737E-3
1.132978711E1,-7.860958576E-4,-5.579616874E-3,-4.179954529E-3
1.133978711E1,1.568987966E-3,-5.535583943E-3,-4.179954529E-3
1.134978711E1,4.002429545E-3,2.315175161E-2,-4.179954529E-3
1.135978711E1,1.681216061E-3,1.124564186E-2,-1.136302948E-2
1.136978711E1,-6.884634495E-4,1.837152615E-2,7.792472839E-3
1.137978758E1,4.005245864E-3,8.341252804E-3,-4.178047180E-3
1.138978758E1,-7.068887353E-4,1.279499382E-3,-1.614952087E-2
1.139978758E1,-8.601546288E-4,7.743127644E-4,6.113052368E-4
1.140978758E1,3.833822906E-3,5.110107362E-3,-1.135921478E-2
1.141978758E1,1.823030785E-2,5.164045841E-3,5.400657654E-3
1.143978711E1,-1.565512270E-2,-2.345681190E-3,-1.136016846E-2
1.144978711E1,-1.260280609E-3,-2.319641411E-3,-6.571769714E-3
1.145978711E1,-1.080983132E-2,-2.321485430E-3,-4.177093506E-3
1.146978711E1,-8.397817612E-3,-1.182994619E-2,-1.783370972E-3
1.147978711E1,-2.279413491E-2,8.770823479E-5,-1.136016846E-2
1.148978757E1,1.827615127E-2,-9.371358901E-3,-1.375198364E-2
1.149978757E1,8.674420416E-3,-1.170879975E-2,-4.175186157E-3
1.150978757E1,-1.051064581E-2,1.936290786E-2,-1.782417297E-3
1.151978757E1,3.814287484E-3,1.459063217E-2,-4.176139832E-3
1.152978757E1,6.180994213E-3,-1.174471527E-2,-1.782417297E-3
1.154978711E1,8.572041988E-3,4.959691316E-3,-8.964538574E-3
1.155978711E1,1.085557044E-2,1.772679389E-4,-1.614856720E-2
1.156978711E1,-1.053693146E-2,2.631932497E-3,-6.570816040E-3
1.157978711E1,1.109626144E-2,-6.921920925E-3,-8.963584900E-3
1.158978711E1,6.283171475E-3,2.186641097E-2,-4.175186157E-3
1.159978711E1,-8.818209171E-4,7.569346577E-3,6.122589111E-4
1.160978711E1,-1.282556355E-2,-4.403598607E-3,-8.964538574E-3
1.161978711E1,1.587816328E-2,9.963721037E-3,-1.782417297E-3
1.162978757E1,-9.225830436E-4,5.191244185E-3,-1.782417297E-3
1.163978757E1,-8.354917169E-3,4.705127329E-3,-8.964538574E-3
1.164978757E1,1.239851117E-3,-4.803612828E-3,1.737213135E-2
1.165978757E1,3.593221307E-3,1.386681572E-2,-1.135730743E-2
1.166978757E1,1.073510200E-2,6.200052798E-3,-1.779556274E-3
1.168978711E1,-3.790050745E-3,-3.993112594E-3,-1.374816895E-2
1.169978711E1,-3.765508533E-3,-4.050150514E-3,-8.959770203E-3
1.170978711E1,5.770675838E-3,3.148544580E-3,-1.614284515E-2
1.171978711E1,5.812913179E-3,3.160044551E-3,6.170272827E-4
1.172978711E1,9.235814214E-4,3.096155822E-3,-6.567001343E-3
1.173978757E1,-1.498334110E-3,-4.085011780E-3,-4.172325134E-3
1.174978804E1,1.042909920E-2,-4.124257714E-3,7.799148560E-3
1.175978804E1,5.665168166E-3,5.395829678E-3,3.011703491E-3
1.176978804E1,-1.112259924E-2,-1.785743982E-3,6.160736084E-4
1.177978804E1,3.215104342E-3,6.098337471E-4,3.010749817E-3
1.179978757E1,-8.772470057E-3,2.963174134E-3,5.404472351E-3
1.180978757E1,1.520507038E-2,-1.152910665E-2,-4.171371460E-3
1.181978757E1,-8.723124862E-3,-1.630460657E-2,-4.171371460E-3
1.182978757E1,3.220506012E-3,-3.306308016E-2,6.170272827E-4
1.183978757E1,5.598075688E-3,-8.424978703E-3,-1.135730743E-2
1.184978757E1,1.025998592E-2,1.169452444E-2,-1.615047455E-2
1.185978757E1,-4.307113588E-3,4.884023219E-3,-1.788139343E-3
1.186978757E1,-6.857618690E-3,4.823211581E-3,3.000259399E-3
1.187978804E1,-6.658986211E-3,5.395457149E-3,-6.577491760E-3
1.188978804E1,5.416795611E-4,6.754919887E-4,-8.972167969E-3
1.189978804E1,-4.222325981E-3,-1.775816083E-3,5.393981934E-3
1.190978804E1,-4.197873175E-3,5.349777639E-3,-1.615428925E-2
1.191978804E1,-1.776076853E-3,7.742282003E-3,6.055831909E-4
1.193978757E1,3.445573151E-3,7.287669927E-3,3.005027771E-3
1.194978757E1,1.305028796E-2,1.446891949E-2,-2.093791962E-2
1.195978757E1,-1.093193144E-2,-2.747278661E-3,5.399703979E-3
1.196978757E1,-6.115734577E-3,1.640528068E-2,-6.570816040E-3
1.197978757E1,-1.087969542E-2,-5.200132728E-3,-6.570816040E-3
1.198978804E1,1.112446189E-3,-2.878382802E-4,-4.176139832E-3
1.199978804E1,8.270725608E-3,1.652912050E-2,-6.571769714E-3
1.200978804E1,9.878352284E-4,7.151778787E-3,-8.966445923E-3
1.201978804E1,-3.713272512E-3,4.335869104E-3,-6.570816040E-3
1.202978804E1,-3.644898534E-3,3.818236291E-3,7.798194885E-3
1.204978710E1,1.075945050E-2,-7.777139544E-4,-6.567955017E-3
1.205978710E1,-8.349277079E-3,8.866395801E-3,-6.568908691E-3
1.206978710E1,1.555127650E-2,8.855003864E-3,-6.568908691E-3
1.207978710E1,-1.352526248E-3,-1.060921699E-3,-1.375102997E-2
1.208978710E1,5.934059620E-3,3.846526146E-3,5.403518677E-3
1.209978710E1,-1.353655010E-2,1.058857888E-2,-1.614570618E-2
1.210978710E1,-6.454408169E-3,3.342065960E-3,6.141662598E-4
1.211978710E1,9.950995445E-4,1.486789063E-2,-4.170417786E-3
1.212978757E1,1.038707793E-3,1.201269403E-2,7.802963257E-3
1.213978757E1,-1.086911559E-2,-1.013672352E-2,-1.771926880E-3
1.214978757E1,6.147630513E-3,6.247855723E-3,1.020336151E-2
1.215978757E1,-9.886026382E-4,-1.340705901E-3,5.416870117E-3
1.216978757E1,2.058448270E-2,-6.186258048E-3,-2.091979980E-2
1.218978710E1,3.946729004E-3,-1.341772825E-2,3.024101257E-3
1.219978710E1,-1.683816314E-3,8.719727397E-3,6.217956543E-4
1.220978710E1,-4.487372935E-3,-7.233694196E-4,-6.564140320E-3
1.221978710E1,1.224159449E-2,1.616768539E-3,5.406379700E-3
1.223972043E1,9.185343981E-3,1.945853233E-3,3.006935120E-3
1.225965377E1,6.257906556E-3,1.167761162E-2,-4.179954529E-3
1.227958710E1,-6.016112864E-3,4.303049296E-3,6.065368652E-4
1.229951996E1,-1.129554212E-2,-2.713754773E-3,-1.791954041E-3
1.231945330E1,-1.205943525E-3,-9.675152600E-3,5.393981934E-3
1.233938663E1,9.174473584E-3,-4.431448877E-3,3.003120422E-3
1.235932043E1,-7.387392223E-3,-1.848838851E-2,-1.615047455E-2
1.237925376E1,-7.145807147E-3,1.013308764E-3,-1.786231995E-3
1.239918709E1,1.962482929E-5,9.453631938E-4,-1.785278320E-3
1.241912042E1,-1.850150526E-3,8.880943060E-4,-1.135826111E-2
1.243905329E1,-1.143404096E-2,-6.169311702E-3,-6.569862366E-3
1.245898689E1,-1.390834153E-2,1.065054908E-2,-6.570816040E-3
1.247892022E1,1.007338613E-2,-1.573065855E-2,3.006935120E-3
1.249885355E1,5.347959697E-3,3.558732569E-3,-6.570816040E-3
1.251878688E1,-4.574656487E-6,-3.523185849E-3,-6.574630737E-3
1.252878688E1,-2.439881861E-2,1.387801021E-3,1.736450195E-2
1.253878688E1,-4.315525293E-4,3.725111485E-3,-8.972167969E-3
1.254878688E1,1.990474761E-3,6.117932498E-3,3.000259399E-3
1.255878688E1,4.402495921E-3,-5.785051733E-3,-1.854991913E-2
1.256878688E1,4.430115223E-3,-1.536372863E-2,6.046295166E-4
1.257878688E1,-7.505759597E-3,-8.043888956E-3,-6.578445435E-3
1.258878688E1,-2.699375153E-3,1.601789147E-3,-8.972167969E-3
1.259878738E1,-2.681449056E-3,-5.512185395E-3,-8.973121643E-3
1.260878738E1,2.061635256E-3,-7.906444371E-4,-4.183769226E-3
1.261878738E1,6.996721029E-3,-4.948239774E-3,-4.185676575E-3
1.262878738E1,7.021360099E-3,1.414911821E-2,1.018047333E-2
1.263878738E1,7.094569504E-3,1.421467215E-2,1.018047333E-2
1.265878692E1,4.485487938E-3,-1.273535937E-2,-1.136684418E-2
1.266878692E1,-1.528880000E-2,-5.712118000E-3,-1.855373383E-2
1.267878692E1,3.886915743E-3,-8.218798786E-3,-2.573585510E-2
1.268878692E1,-1.278507710E-2,-3.351427615E-3,1.017856598E-2
1.269878692E1,1.829822734E-2,-5.757126957E-3,-6.581306458E-3
1.270878718E1,8.687257767E-3,-1.065497845E-2,-1.376342773E-2
1.271878718E1,8.515805006E-3,-9.992763400E-3,-1.137351990E-2
1.272878718E1,1.094092429E-2,4.426810890E-3,1.496315002E-2
1.273878718E1,-1.818723232E-2,2.388026565E-3,-1.800537109E-3
1.274878718E1,5.706995726E-3,-7.311373949E-3,5.941390991E-4
1.276878692E1,-2.070187032E-2,-1.667812467E-4,5.931854248E-4
1.277878692E1,-1.594119519E-2,-1.654550433E-4,-1.137828827E-2
1.278878692E1,3.237649798E-3,4.566255957E-3,-6.588935852E-3
1.279878692E1,3.192253411E-3,-9.866379201E-3,-6.589889526E-3
1.280878692E1,7.539466023E-4,-5.117248744E-3,-2.095508575E-2
1.281878692E1,-1.615799963E-3,6.797086447E-3,-1.137733459E-2
1.282878692E1,1.038027555E-2,1.871171594E-2,-1.616477966E-2
1.283878692E1,-1.367516071E-2,6.218519062E-3,2.990722656E-3
1.284878742E1,-1.615577191E-2,3.773219883E-3,-1.799583435E-3
1.285878742E1,1.085236669E-3,-3.742568195E-3,-1.616001129E-2
1.286878742E1,1.109853387E-3,-6.193857640E-3,1.496505737E-2
1.287878742E1,5.860790610E-3,8.243449032E-3,5.989074707E-4
1.288878742E1,-6.138175726E-3,8.245192468E-3,5.387306213E-3
1.290878692E1,1.129113138E-3,-6.597358733E-3,1.496696472E-2
1.291878692E1,3.540955484E-3,-8.923463523E-3,-1.136970520E-2
1.292878692E1,1.074831933E-2,-4.191946238E-3,7.785797119E-3
1.293878692E1,-3.589704633E-3,-1.616489701E-2,2.997398376E-3
1.294878692E1,-8.301541209E-3,-6.703510880E-3,6.036758423E-4
1.295878718E1,1.234821975E-3,1.486106589E-2,-4.185676575E-3
1.296878718E1,1.265645027E-3,2.943690866E-3,-6.579399109E-3
1.297878718E1,-5.899511278E-3,-1.776494086E-3,6.027221680E-4
1.298878718E1,-5.874812603E-3,5.610361695E-4,2.998352051E-3
1.299878718E1,-1.781377941E-2,6.426647305E-4,-4.184722900E-3
1.301878691E1,1.572199166E-3,-1.330526546E-2,-1.791000366E-3
1.302878691E1,-7.625363767E-3,1.121343672E-2,-8.973121643E-3
1.303878691E1,-5.265153944E-3,-1.044447348E-2,2.998352051E-3
1.304878691E1,1.421543211E-2,9.080477059E-3,-8.973121643E-3
1.305878691E1,7.133521140E-3,9.144470096E-3,6.055831909E-4
1.306878691E1,1.420579106E-2,1.154526696E-2,5.392074585E-3
1.307878691E1,4.545561969E-3,1.394409686E-2,-8.973121643E-3
1.308878691E1,-1.225192845E-2,4.438750446E-3,-1.376247406E-2
1.309878741E1,9.251073003E-3,-4.168041050E-4,-1.791954041E-3
1.310878741E1,-6.225034595E-4,-9.975880384E-4,-1.376247406E-2
1.311878741E1,1.789323986E-3,-3.323618323E-3,-6.579399109E-3
1.312878741E1,-1.052462310E-2,-1.091795415E-2,7.785797119E-3
1.313878741E1,1.810589805E-2,-6.193280220E-3,6.017684937E-4
1.315878691E1,-1.383569092E-2,-3.239464015E-3,-8.982658386E-3
1.316878691E1,1.006923616E-2,1.838027686E-2,-1.137828827E-2
1.317878691E1,7.632575929E-3,1.608811319E-3,-1.801490784E-3
1.318878691E1,4.220083356E-4,-3.178279847E-3,-2.095508575E-2
1.319878691E1,-1.387067884E-2,-1.987313852E-2,7.776260376E-3
1.320878718E1,-6.784081459E-3,-3.093954176E-3,5.381584167E-3
1.321878718E1,-2.023108304E-3,-6.980150938E-4,5.922317505E-4
1.322878718E1,-6.794080138E-3,1.613008976E-2,-4.196166992E-3
1.323878718E1,-4.372186959E-3,-2.457415871E-2,-2.095603943E-2
1.324878718E1,-9.142883122E-3,1.831434667E-3,-1.801490784E-3
1.326878691E1,-1.862213016E-3,1.381151378E-2,-8.983612061E-3
1.327878691E1,7.739335299E-3,-7.794190198E-3,-1.801490784E-3
1.328878691E1,-6.538651884E-3,1.861318946E-3,-4.195213318E-3
1.329878691E1,1.748410240E-2,-2.987340093E-3,7.777214050E-3
1.330878691E1,-8.887432516E-3,9.111076593E-3,-1.800537109E-3
1.331878691E1,-4.071362317E-3,-1.004489139E-2,-4.194259644E-3
1.332878691E1,7.448345423E-4,-2.863708884E-3,2.988815308E-3
1.333878691E1,-1.579433680E-3,-2.440221421E-2,-1.377010345E-2
1.334878738E1,-6.395727396E-3,-1.242938265E-2,5.950927734E-4
1.335878738E1,-1.095141470E-2,-6.959043443E-3,1.256465912E-2
1.336878738E1,-1.062269509E-2,3.280241042E-3,-4.195213318E-3
1.337878738E1,1.363329589E-3,-1.107240468E-2,2.987861633E-3
1.338878738E1,-6.839409471E-4,-1.001033932E-3,5.381584167E-3
1.340878688E1,4.614964128E-3,9.505778551E-3,-4.195213318E-3
1.341878688E1,9.372837842E-3,2.269245684E-3,-6.589889526E-3
1.342878688E1,1.418902725E-2,9.450420737E-3,-8.983612061E-3
1.343878688E1,-7.222525775E-3,9.414967149E-3,-8.981704712E-3
1.344878688E1,-1.444771141E-2,-1.737475395E-4,-4.194259644E-3
1.345878714E1,7.198423147E-3,1.180594414E-2,5.383491516E-3
1.346878714E1,1.199866831E-2,9.369742125E-3,-1.798629761E-3
1.347878714E1,7.241040468E-3,-4.941947758E-3,5.950927734E-4
1.348878715E1,-1.189851761E-2,-2.534430474E-3,-1.616477966E-2
1.349878715E1,-1.182235032E-2,1.913468912E-2,-1.798629761E-3
1.351878688E1,-1.170696318E-2,5.726516247E-5,-1.798629761E-3
1.352878688E1,5.132891238E-3,1.196850836E-2,5.384445190E-3
1.353878688E1,-2.077601850E-3,2.392888069E-3,-6.587028503E-3
1.354878688E1,-9.245790541E-3,-2.382420003E-3,-1.616382599E-2
1.355878688E1,-2.087593079E-3,2.462964505E-3,-1.376914978E-2
1.356878688E1,-2.017498016E-3,2.473130822E-3,-1.376819611E-2
1.357878688E1,1.237285882E-2,9.599138051E-3,-1.797676086E-3
1.358878688E1,7.611952722E-3,1.199176908E-2,2.992630005E-3
1.359878738E1,3.312230110E-4,4.300653934E-3,-1.795768738E-3
1.360878738E1,-2.604334801E-2,6.766609848E-3,1.496315002E-2
1.361878738E1,-4.322804511E-3,1.115657017E-2,5.389213562E-3
1.362878738E1,-4.083707929E-3,5.924124271E-3,-8.973121643E-3
1.363878738E1,8.156083524E-3,7.178522646E-4,3.001213074E-3
1.365878691E1,-3.640800714E-3,2.405385301E-2,5.399703979E-3
1.366878691E1,3.649502993E-3,-4.503540695E-4,5.402565002E-3
1.367878691E1,-1.788121462E-2,9.195137769E-3,-1.781463623E-3
1.368878691E1,6.436094642E-3,3.899749368E-3,6.189346313E-4
1.369878691E1,1.561462879E-3,-3.333605826E-3,-1.135444641E-2
1.370878718E1,-1.523590088E-2,3.921110183E-3,7.800102234E-3
1.371878718E1,1.868387684E-2,1.226805151E-3,-4.166603088E-3
1.372878718E1,-1.486664265E-2,1.173097640E-3,3.016471863E-3
1.373878718E1,9.020671248E-3,-6.006728858E-3,3.016471863E-3
1.374878718E1,1.804046333E-3,-1.090429723E-2,-1.135063171E-2
1.376878691E1,-1.754385978E-2,-3.710318357E-3,6.198883057E-4
1.377878691E1,6.478160620E-3,1.561990753E-2,-1.135253906E-2
1.378878691E1,4.171736538E-3,-5.850009620E-3,3.014564514E-3
1.379878691E1,-1.490245014E-2,3.667224199E-3,-1.773834229E-3
1.380878691E1,-5.245357752E-3,-1.315280423E-2,-4.166603088E-3
1.381878691E1,-2.878844738E-3,-1.179907471E-3,-1.772880554E-3
1.382878691E1,1.934245229E-3,-3.631222993E-3,1.977634430E-2
1.383878691E1,1.386487484E-2,1.173418015E-3,1.019859314E-2
1.384878741E1,-7.662847638E-3,-3.491301090E-3,6.208419800E-4
1.385878741E1,6.788842380E-3,-8.229419589E-3,-2.810955048E-2
1.386878741E1,-2.825975418E-3,1.419138163E-3,-8.955955505E-3
1.387878741E1,1.149883866E-2,-9.589903057E-4,5.409240723E-3
1.388878741E1,-2.842202783E-3,-1.015994698E-3,-1.773834229E-3
1.390878691E1,6.731852889E-3,-5.859836936E-3,5.409240723E-3
1.391878691E1,-7.619224489E-3,-5.846861750E-3,3.015518188E-3
1.392878691E1,-3.085985780E-3,-5.443669856E-3,-6.565093994E-3
1.393878691E1,-7.913723588E-3,-7.794152945E-3,6.170272827E-4
1.394878691E1,-7.951438427E-3,4.248678684E-3,-4.171371460E-3
1.395878718E1,6.494216621E-3,4.188816994E-3,-4.171371460E-3
1.396878718E1,-7.839061320E-3,4.270270467E-3,-1.135444641E-2
1.397878718E1,8.945405483E-3,-5.363866687E-3,-6.565093994E-3
1.398878718E1,-6.137713790E-4,-5.295004696E-3,-1.135444641E-2
1.399878718E1,4.202432930E-3,-5.296654999E-3,1.258945465E-2
1.401878691E1,1.621305943E-2,4.236672074E-3,-1.775741577E-3
1.402878691E1,-2.858206630E-3,6.625998765E-3,-1.135253906E-2
1.403878691E1,9.140692651E-3,-1.492425613E-2,3.013610840E-3
1.404878691E1,-5.213320255E-3,-2.995070070E-3,-1.135158539E-2
1.405878691E1,4.333116114E-3,-3.048531711E-3,6.198883057E-4
1.406878691E1,-2.766601741E-3,-6.589852273E-4,-6.563186646E-3
1.407878691E1,-2.804420888E-3,-5.877241492E-4,-6.563186646E-3
1.408878691E1,1.146335900E-2,2.095210180E-2,3.013610840E-3
1.409878741E1,1.108245552E-2,2.084831521E-2,3.011703491E-3
1.410878741E1,3.924183547E-3,-3.151465207E-3,1.258850098E-2
1.411878741E1,6.276138127E-3,-5.557261407E-3,5.405426025E-3
1.412878741E1,-1.093003154E-2,-5.587935448E-3,-6.568908691E-3
1.413878741E1,-1.338265836E-3,-7.862187922E-4,6.141662598E-4
1.415878691E1,-6.545372307E-3,-5.606986582E-3,7.794380188E-3
1.416878691E1,1.747043803E-2,1.641087234E-3,-6.571769714E-3
1.417878691E1,-6.389409304E-3,4.030488431E-3,-1.375293732E-2
1.418878691E1,3.157019615E-3,-1.517741568E-2,-4.177093506E-3
1.419878691E1,-6.831638515E-3,-7.652379572E-3,6.074905396E-4
1.420878718E1,2.666041255E-4,1.676714793E-2,-1.375961304E-2
1.421878718E1,-9.275987744E-3,4.668731242E-3,-1.375865936E-2
1.422878718E1,2.605691552E-4,-9.680420160E-3,-8.971214294E-3
1.423878718E1,7.526479661E-3,-2.502255142E-3,-6.576538086E-3
1.424878718E1,9.824544191E-3,-8.879974484E-5,3.000259399E-3
1.426878691E1,4.962936044E-3,7.028769702E-3,-6.577491760E-3
1.427878691E1,2.472564578E-3,-1.346915960E-4,-6.578445435E-3
1.428878691E1,1.212260127E-2,-1.443520002E-2,7.787704468E-3
1.429878691E1,-4.606507719E-3,-2.410061657E-3,-4.182815552E-3
1.430878691E1,9.728372097E-3,9.507641196E-3,6.046295166E-4
1.431878691E1,1.459005475E-2,-9.581271559E-3,7.788658142E-3
1.432878691E1,-4.595078528E-3,-5.830079317E-5,-8.971214294E-3
1.433878691E1,1.218249649E-2,1.437578350E-2,-4.182815552E-3
1.434878737E1,5.027316511E-3,2.402760088E-3,-1.136589050E-2
1.435878737E1,6.874524057E-3,7.096841931E-3,-6.581306458E-3
1.436878737E1,1.168777049E-2,-2.537004650E-3,-6.581306458E-3
1.437878737E1,3.785692155E-3,-5.126997828E-3,-1.137351990E-2
1.438878737E1,-1.056537777E-2,-5.114026368E-3,-1.796722412E-3
1.440878687E1,-3.273949027E-3,-9.700205177E-3,5.979537964E-4
1.441878687E1,-7.976360619E-3,9.504631162E-3,-1.796722412E-3
1.442878687E1,-7.836416364E-3,2.341721207E-3,5.387306213E-3
1.443878687E1,1.366675645E-2,-4.907891154E-3,-8.977890015E-3
1.444878687E1,6.394475698E-3,-1.219705120E-2,-6.584167480E-3
1.445878714E1,8.816495538E-3,9.349968284E-3,-1.376628876E-2
1.446878714E1,6.436690688E-3,-1.457999460E-2,-6.584167480E-3
1.447878714E1,6.051525474E-3,2.493392676E-3,-1.137638092E-2
1.448878714E1,-1.793213189E-2,-1.425064169E-2,-2.334785461E-2
1.449878714E1,1.076831669E-2,2.455342561E-3,1.496028900E-2
1.451878687E1,1.552912220E-2,-2.331744879E-3,-6.587982178E-3
1.452878687E1,-1.529768109E-3,4.266612232E-4,-6.591796875E-3
1.453878687E1,4.985406995E-4,-1.558013260E-3,-1.138401031E-2
1.454878687E1,-4.314489663E-3,-1.500952989E-3,2.982139587E-3
1.455878687E1,-6.876289845E-3,3.769151866E-3,-4.204750061E-3
1.456878687E1,9.955354035E-3,-1.245309599E-2,-1.378250122E-2
1.457878687E1,-4.739969969E-3,1.180013642E-2,5.798339844E-4
1.458878687E1,9.536489844E-3,-1.224854402E-2,2.973556519E-3
1.459878737E1,-3.153051436E-2,1.213144138E-2,1.733493805E-2
1.460878737E1,1.200491935E-2,7.235083729E-3,1.254940033E-2
1.461878737E1,-1.171346754E-2,4.383727908E-3,-6.602287292E-3
1.462878737E1,-1.174414158E-2,-2.852816135E-3,-1.138973236E-2
1.463878737E1,5.579710007E-3,6.623443216E-3,-6.597518921E-3
1.465878691E1,-2.079173177E-2,-5.220696330E-3,-1.809120178E-3
1.466878691E1,1.024083793E-2,-2.751659602E-3,2.978324890E-3
1.467878691E1,1.155383885E-3,6.922848523E-3,-4.200935364E-3
1.468878691E1,-1.071836054E-2,1.890262216E-2,-4.200935364E-3
1.469878691E1,1.563624665E-2,4.605140537E-3,-4.200935364E-3
1.470878717E1,-3.570280969E-3,-1.449066773E-2,-6.595611572E-3
1.471878717E1,8.425526321E-3,-1.821666956E-4,-6.595611572E-3
1.472878717E1,-3.517955542E-3,4.605140537E-3,-1.138401031E-2
1.473878717E1,1.282215118E-3,2.168737352E-3,5.375862122E-3
1.474878717E1,-3.537178040E-3,-2.673741430E-3,-4.200935364E-3
1.476878690E1,-2.985133231E-2,-8.640401065E-4,-1.616954803E-2
1.477878690E1,9.116820991E-3,1.409444958E-3,-8.981704712E-3
1.478878690E1,-4.425346851E-4,1.344944909E-2,-4.193305969E-3
1.479878690E1,-2.739146352E-3,-3.302149475E-3,-1.799583435E-3
1.480878691E1,2.011604607E-3,-8.019428700E-3,-1.855945587E-2
1.481878691E1,1.645046100E-2,1.623220742E-3,-4.193305969E-3
1.482878691E1,2.060435712E-3,-1.747371629E-2,2.989768982E-3
1.483878691E1,4.130952060E-3,1.407276839E-2,-1.856327057E-2
1.484878737E1,1.618216559E-2,6.829611957E-3,-8.985519409E-3
1.485878737E1,1.141832024E-2,1.395561919E-2,1.016902924E-2
1.486878737E1,-1.967807859E-2,1.877028868E-2,2.986907959E-3
1.487878737E1,-5.519457161E-3,1.535926014E-3,-1.802444458E-3
1.488878784E1,1.633919775E-3,-3.778636456E-3,5.950927734E-4
1.490878734E1,6.575539708E-3,-6.167761981E-3,-1.137638092E-2
1.491878734E1,-2.976946533E-3,1.053538546E-2,5.960464478E-4
1.492878734E1,3.978744149E-3,-1.770619303E-3,-1.616477966E-2
1.493878734E1,-5.636170506E-3,-4.093624651E-3,-1.799583435E-3
1.494878734E1,6.362728775E-3,7.875982672E-3,-1.137638092E-2
1.495878760E1,6.377384067E-3,5.494702607E-3,-1.799583435E-3
1.496878760E1,1.481205225E-3,-1.359779947E-2,-4.194259644E-3
1.497878760E1,3.320045769E-3,-4.017371684E-3,-6.592750549E-3
1.498878760E1,8.326768875E-4,3.240015358E-3,-1.377487183E-2
1.499878760E1,-8.713670075E-3,-1.494791359E-3,-1.804351807E-3
1.501878734E1,-1.409836113E-3,1.323405653E-3,-1.806259155E-3
1.502878734E1,-8.564732969E-3,-5.723834038E-4,-8.989334106E-3
1.503878734E1,-1.409560442E-3,1.858346537E-2,5.375862122E-3
1.504878734E1,3.822878003E-3,-8.316077292E-4,-1.856327057E-2
1.505878734E1,-5.726598203E-3,1.592674106E-2,7.774353027E-3
1.506878734E1,-1.289174706E-2,8.812282234E-3,5.912780762E-4
1.507878734E1,-1.012672484E-2,3.697574139E-3,5.950927734E-4
1.508878734E1,9.401172400E-3,5.820792168E-3,-8.977890015E-3
1.509878784E1,-7.271058857E-3,3.504853696E-3,5.989074707E-4
1.510878784E1,-1.683034003E-2,1.179229468E-3,5.979537964E-4
1.511878784E1,-9.149871767E-3,8.070368320E-3,6.027221680E-4
1.512878784E1,-8.818432689E-3,7.787887007E-3,6.065368652E-4
1.513878784E1,-2.083227038E-2,2.987522632E-3,6.055831909E-4
1.515878737E1,-1.812275499E-2,1.942427084E-2,-1.785278320E-3
1.516878737E1,2.085532621E-2,-5.208928138E-3,-1.777648926E-3
1.517878737E1,-1.013886184E-2,-8.027777076E-4,-4.169464111E-3
1.519878690E1,9.127631783E-3,6.401609629E-3,-8.956909180E-3
1.520878717E1,-7.606245577E-3,3.478176892E-3,3.017425537E-3
1.521878717E1,4.638031125E-3,7.490403950E-4,-4.162788391E-3
1.522878717E1,-1.259297132E-4,-1.846209913E-2,-4.161834717E-3
1.523878717E1,1.186001301E-2,7.050707936E-4,-1.134490967E-2
1.524878717E1,1.170714945E-2,7.000826299E-4,-1.134681702E-2
1.526878690E1,-8.073270321E-3,-1.343615726E-2,-4.168510437E-3
1.527878690E1,8.714437485E-3,3.322411329E-3,-1.774787903E-3
1.528878690E1,1.826087013E-2,3.268700093E-3,-4.168510437E-3
1.529878690E1,-3.805413842E-3,-8.771013469E-3,-4.171371460E-3
1.530878690E1,8.250616491E-3,-8.747793734E-3,-8.959770203E-3
1.531878690E1,-1.358994842E-2,-1.090333238E-2,-4.174232483E-3
1.532878690E1,1.748346165E-2,-8.450448513E-3,6.132125854E-4
1.533878690E1,1.745579764E-2,-8.448723704E-3,3.007888794E-3
1.534878740E1,2.876669168E-4,1.526396722E-3,-1.136207581E-2
1.535878740E1,1.432200521E-2,-5.852803588E-4,-1.136589050E-2
1.536878740E1,-2.842351794E-3,-1.233917475E-2,6.017684937E-4
1.537878740E1,-3.144428134E-3,-4.847612232E-3,1.496410370E-2
1.538878740E1,6.515681744E-3,-4.852287471E-3,5.387306213E-3
1.540878690E1,-1.083604991E-3,3.326203674E-3,-8.984565735E-3
1.541878690E1,-3.525294363E-3,-5.609292537E-3,-2.574634552E-2
1.542878690E1,-1.069655269E-2,6.319861859E-3,-6.592750549E-3
1.543878690E1,1.302517951E-3,8.712593466E-3,7.773399353E-3
1.544878690E1,1.375675201E-3,-1.037615910E-2,5.903244019E-4
1.545878717E1,-3.332771361E-3,-5.647525191E-3,-6.591796875E-3
1.546878717E1,-1.288224757E-2,8.716553450E-3,5.912780762E-4
1.547878717E1,1.567892730E-3,-5.626346916E-3,5.912780762E-4
1.548878717E1,3.986708820E-3,6.287992001E-3,5.380630493E-3
1.549878717E1,-1.699006557E-2,3.931369632E-3,2.990722656E-3
1.551878690E1,-9.360998869E-3,1.593341678E-2,-1.795768738E-3
1.552878690E1,-6.308421493E-3,1.099658757E-2,2.998352051E-3
1.553878690E1,3.872342408E-3,-3.750145435E-3,3.004074097E-3
1.554878690E1,6.294265389E-3,-6.146069616E-3,-1.785278320E-3
1.555878690E1,8.755564690E-3,8.174292743E-3,3.005027771E-3
1.556878690E1,6.336629391E-3,-1.571154594E-2,-1.136207581E-2
1.557878690E1,3.960035741E-3,3.511007875E-3,6.103515625E-4
1.558878690E1,-7.553175092E-4,-1.318335347E-2,-6.572723389E-3
1.559878740E1,1.607537270E-3,1.364730299E-3,-6.573677063E-3
1.560878740E1,-7.871739566E-3,2.052747086E-2,6.093978882E-4
1.561878740E1,1.601571590E-2,3.770850599E-3,-6.573677063E-3
1.562878740E1,-3.514051437E-3,-1.085168496E-2,-1.136302948E-2
1.563878740E1,-1.116461307E-2,8.384160697E-3,-6.579399109E-3
1.565878690E1,5.585484207E-3,3.665916622E-3,-6.579399109E-3
1.566878690E1,8.247345686E-4,3.664489836E-3,6.046295166E-4
1.567878690E1,8.423924446E-4,-5.844172090E-3,-1.136779785E-2
1.568878690E1,-3.925479949E-3,8.645024151E-3,-1.791000366E-3
1.569878690E1,8.015029132E-3,-1.056303456E-2,5.392074585E-3
1.570878717E1,1.749145612E-2,1.344658434E-3,2.997398376E-3
1.571878717E1,1.757603511E-2,1.367598772E-3,2.998352051E-3
1.573872096E1,5.583882332E-3,-8.333250880E-3,7.786750793E-3
1.575865403E1,1.481960714E-2,-5.586393178E-3,-8.975982666E-3
1.577858736E1,-5.622841418E-3,6.943278015E-3,2.985000610E-3
1.579852070E1,-1.563876867E-2,-4.683535546E-3,-4.202842712E-3
1.581845449E1,1.028083265E-3,-9.397357702E-3,-1.378154755E-2
1.583838783E1,-3.884457052E-3,2.594552934E-3,2.978324890E-3
1.585832116E1,-1.546297222E-2,1.199648157E-2,1.734733582E-2
1.587825449E1,-3.504626453E-3,1.919402555E-2,-8.989334106E-3
1.589818732E1,-3.205649555E-3,4.464253783E-3,5.903244019E-4
1.591812065E1,-5.970671773E-4,-1.211278141E-3,1.256656647E-2
1.593805399E1,-5.398608744E-3,1.197639853E-3,-1.799583435E-3
1.595798778E1,-7.858201861E-3,1.084794104E-2,2.988815308E-3
1.597792112E1,4.328198731E-3,-1.746766269E-3,2.992630005E-3
1.599785445E1,-7.568314672E-3,1.898489892E-3,-6.580352783E-3
1.601778752E1,-2.444401383E-3,-8.141577244E-3,6.065368652E-4
1.603778705E1,-6.302446127E-5,3.844641149E-3,7.789611816E-3
1.604778705E1,-2.488166094E-3,-3.392044455E-3,-1.788139343E-3
1.605778705E1,-1.192357391E-2,3.838535398E-3,-6.575584412E-3
1.606778751E1,7.251471281E-3,6.356831640E-3,3.001213074E-3
1.607778751E1,-6.974130869E-3,1.588150859E-3,-8.968353271E-3
1.608778751E1,1.710727811E-4,8.842635900E-3,5.395889282E-3
1.609778751E1,1.211165637E-2,4.000246525E-3,-4.180908203E-3
1.610778751E1,-2.239629626E-3,-1.085246727E-2,-1.136207581E-2
1.612778705E1,-1.183670014E-2,-8.318100125E-3,-8.968353271E-3
1.613778705E1,-1.186425984E-2,-8.316423744E-3,-8.968353271E-3
1.614778705E1,2.466775477E-3,-8.189581335E-3,-4.179954529E-3
1.615778705E1,-2.432554960E-3,6.182271987E-3,7.789611816E-3
1.616778705E1,1.435801387E-2,6.235819310E-3,7.789611816E-3
1.617778705E1,-4.838407040E-5,1.463610679E-3,6.065368652E-4
1.618778705E1,2.088159323E-3,1.075342298E-3,3.001213074E-3
1.619778705E1,4.555590451E-3,-8.436296135E-3,-1.615333557E-2
1.620778751E1,-7.329776883E-3,3.585591912E-3,3.001213074E-3
1.621778751E1,4.663109779E-3,3.473199904E-3,3.002166748E-3
1.622778751E1,4.692375660E-3,-1.289036125E-3,3.002166748E-3
1.623778751E1,2.258911729E-3,-8.428066969E-3,-1.787185669E-3
1.624778751E1,-4.896551371E-3,-1.321867853E-2,7.790565491E-3
1.626778705E1,6.812229753E-3,4.068884999E-3,-1.615619659E-2
1.627778705E1,-5.214780569E-3,-5.505353212E-3,7.786750793E-3
1.628778705E1,4.463143647E-3,1.371257752E-2,-4.184722900E-3
1.629778705E1,-9.895585477E-3,-7.783733308E-4,-4.183769226E-3
1.630778705E1,2.045199275E-3,3.956727684E-3,6.046295166E-4
1.631778751E1,-3.282129765E-4,6.474953145E-3,-1.615619659E-2
1.632778751E1,-2.636350691E-3,1.131413877E-2,6.046295166E-4
1.633778751E1,2.235405147E-3,-1.023886725E-2,-8.971214294E-3
1.634778751E1,7.106959820E-3,6.516378373E-3,-1.854896545E-2
1.635778751E1,-2.445600927E-3,-7.234811783E-4,5.393981934E-3
1.637778704E1,-7.237300277E-3,1.615311950E-3,3.001213074E-3
1.638778755E1,4.751853645E-3,-1.028751209E-2,1.018238068E-2
1.639778754E1,-4.797428846E-3,-7.894661278E-3,5.394935608E-3
1.640778754E1,-2.500832081E-3,-1.269145310E-2,-1.375961304E-2
1.641778754E1,-2.218812704E-3,-4.940696061E-3,6.055831909E-4
1.642778754E1,-7.049627602E-3,-4.952121526E-3,-4.182815552E-3
1.643778755E1,2.555191517E-3,-1.651942730E-4,-6.577491760E-3
1.644778754E1,7.364854217E-3,-2.637778595E-2,-4.182815552E-3
1.645778801E1,-2.161256969E-3,-9.203907102E-3,6.036758423E-4
1.646778801E1,-9.283736348E-3,1.053050905E-2,6.017684937E-4
1.647778801E1,1.251094043E-2,-1.058755815E-2,-1.376342773E-2
1.648778801E1,-6.573103368E-3,-1.000188291E-3,1.017856598E-2
1.649778801E1,7.757201791E-3,1.322873309E-2,-4.185676575E-3
1.651778754E1,2.910070121E-3,3.599148244E-3,5.390167236E-3
1.653772131E1,-9.085766971E-3,-1.132167876E-3,2.996444702E-3
1.655765464E1,5.444779992E-3,-6.690919399E-4,6.008148193E-4
1.657758797E1,2.269446850E-4,-3.951750696E-4,-4.190444946E-3
1.659752131E1,7.333733141E-3,1.384994388E-2,-8.979797363E-3
1.661745417E1,-4.665292799E-3,-7.696881890E-3,-1.797676086E-3
1.663738750E1,2.628102899E-3,1.145080477E-2,-4.190444946E-3
1.665732084E1,7.528752089E-3,1.394983381E-3,-6.582260132E-3
1.667725464E1,-4.393883049E-3,-1.763642207E-2,-1.137065887E-2
1.669718747E1,-4.345200956E-3,-7.539764047E-4,-1.794815063E-3
1.671712080E1,1.496196538E-2,4.039768130E-3,2.995491028E-3
1.673705413E1,-6.644941866E-3,8.776128292E-3,2.995491028E-3
1.675698700E1,-1.936472952E-3,-7.411316037E-4,2.994537354E-3
1.677692033E1,1.475030184E-2,6.376232952E-3,1.496505737E-2
1.679685410E1,2.892807126E-3,-7.940225303E-3,-6.582260132E-3
1.681678743E1,1.011507958E-2,-5.589321256E-3,6.008148193E-4
1.682678743E1,1.254017651E-2,1.122436300E-2,-1.376438141E-2
1.684678699E1,2.012163401E-3,-2.001461014E-2,-8.981704712E-3
1.685678699E1,1.582631096E-2,1.856315881E-3,2.985000610E-3
1.686678699E1,9.992793202E-4,2.048939466E-3,-6.596565247E-3
1.687678699E1,5.352586508E-3,-2.576228231E-3,-1.138877869E-2
1.688678699E1,9.439885616E-6,8.511170745E-5,-1.857662201E-2
1.689678699E1,1.679707691E-2,7.266551256E-3,2.972602844E-3
1.690678699E1,-5.344897509E-4,-2.348110080E-3,-1.139640808E-2
1.691678699E1,-1.043082029E-2,-2.344209701E-3,-4.216194153E-3
1.692678746E1,-8.390545845E-4,-4.725322127E-3,-1.139926910E-2
1.693678746E1,3.983482718E-3,9.749740362E-3,1.254367828E-2
1.694678746E1,-8.471041918E-3,1.194889471E-2,-1.824378967E-3
1.695678746E1,1.065254211E-3,-4.794951528E-3,7.752418518E-3
1.696678746E1,-1.082001626E-2,1.201569289E-2,-1.379489899E-2
1.698678699E1,-2.477751672E-2,6.828881800E-3,2.968788147E-3
1.699678699E1,-5.194067955E-3,-5.416337401E-3,-1.378726959E-2
1.700678699E1,-7.032282650E-3,8.709751070E-3,-4.205703735E-3
1.701678699E1,5.461350083E-3,1.178324223E-3,-2.335548401E-2
1.702678699E1,3.027960658E-3,-8.354723454E-3,-6.595611572E-3
1.703678742E1,6.513521075E-4,-1.103524119E-3,-4.201889038E-3
1.704678742E1,6.304830313E-4,8.349627256E-3,1.016426086E-2
1.705678742E1,-6.590060890E-3,-1.156006008E-3,-4.201889038E-3
1.706678742E1,-1.808685064E-2,5.819685757E-3,2.985000610E-3
1.707678743E1,3.486171365E-3,2.491685003E-2,5.912780762E-4
1.709678699E1,-1.017506421E-2,-9.419988841E-3,7.781982422E-3
1.710678699E1,4.706047475E-3,-4.854615778E-3,-1.791000366E-3
1.711678699E1,-1.247972250E-5,-7.238745689E-3,2.998352051E-3
1.712678699E1,-1.630534977E-2,4.886996001E-3,-1.375865936E-2
1.713678699E1,4.822164774E-4,-7.086023688E-3,-4.181861877E-3
1.714678699E1,1.235601306E-2,-1.906545460E-2,5.393981934E-3
1.715678699E1,7.585301995E-3,-4.631221294E-3,6.055831909E-4
1.716678699E1,-6.887979805E-3,1.458466053E-2,7.787704468E-3
1.717678746E1,-1.164561510E-2,-9.304124862E-3,-1.136684418E-2
1.718678746E1,2.747930586E-3,5.060363561E-3,7.787704468E-3
1.719678746E1,5.104586482E-3,2.737749368E-3,5.392074585E-3
1.720678746E1,-4.389323294E-3,-9.238149971E-3,-1.615524292E-2
1.721678746E1,7.609777153E-3,3.375709057E-4,-4.183769226E-3
1.723678699E1,-8.983910084E-3,2.722576261E-3,3.001213074E-3
1.724678699E1,2.956703305E-3,-2.119634300E-3,-8.970260620E-3
1.725678699E1,6.423518062E-4,-1.415114291E-2,6.065368652E-4
1.726678699E1,3.054566681E-3,-1.168808341E-2,5.394935608E-3
1.727678699E1,3.137581050E-3,-9.298481047E-3,-1.615238190E-2
1.728678742E1,-3.997988999E-3,8.056212217E-3,6.055831909E-4
1.729678742E1,8.056417108E-3,-8.708458394E-3,-1.789093018E-3
1.730678742E1,8.087232709E-3,-1.104871929E-2,-1.788139343E-3
1.731678742E1,3.059625626E-3,1.333791763E-2,-1.615715027E-2
1.732678742E1,-4.227831960E-3,-8.093681186E-3,-8.975028992E-3
1.734678699E1,1.004695147E-2,-1.544423401E-3,2.998352051E-3
1.735678699E1,2.833202481E-3,1.994991302E-2,-8.973121643E-3
1.736678699E1,-6.789363921E-3,1.030580327E-2,-8.974075317E-3
1.737678699E1,1.718102768E-2,-1.667216420E-3,-4.184722900E-3
1.738678699E1,2.387896925E-2,4.792820662E-3,7.785797119E-3
1.739678699E1,6.655834615E-3,6.851781160E-3,-8.975028992E-3
1.740678699E1,-1.048137248E-2,1.778416336E-3,5.388259888E-3
1.741678699E1,-3.228411078E-3,-1.018286496E-2,6.008148193E-4
1.742678746E1,3.580406308E-3,-1.759489626E-2,-4.189491272E-3
1.743678746E1,-1.174233854E-3,-3.119841218E-3,-4.190444946E-3
1.744678746E1,1.560343429E-2,-1.262855902E-2,-2.095031738E-2
1.745678746E1,-1.187339425E-3,-5.499668419E-3,-1.855659485E-2
1.746678746E1,3.628939390E-3,-3.106769174E-3,-4.189491272E-3
1.748678699E1,-2.075064182E-2,-5.365468562E-3,1.496028900E-2
1.749678699E1,1.040566713E-2,-1.010027900E-2,-6.587982178E-3
1.750678699E1,3.291413188E-3,-4.088506103E-5,5.381584167E-3
1.751678699E1,-6.202585995E-3,4.742946476E-3,-6.588935852E-3
1.752678699E1,5.727984011E-3,-7.212352008E-3,7.777214050E-3
1.753678742E1,-1.835621893E-2,4.228428006E-4,-6.592750549E-3
1.754678742E1,3.561519086E-3,-1.379687525E-2,-1.801490784E-3
1.755678742E1,-1.084177941E-2,-6.542559713E-3,5.922317505E-4
1.756678742E1,-3.389649093E-3,-1.407951117E-3,5.931854248E-4
1.757678742E1,-5.863957107E-3,5.834806710E-3,5.922317505E-4
1.759678699E1,-5.553759634E-3,6.164815277E-3,-1.856136322E-2
1.760678699E1,-5.550615489E-3,8.614577353E-3,-4.195213318E-3
1.761678699E1,2.182431519E-3,6.370227784E-3,1.735591888E-2
1.762678699E1,-5.042694509E-3,3.964595497E-3,-1.137542725E-2
1.763678699E1,-2.232342958E-4,-1.752991229E-2,-6.587028503E-3
1.764678749E1,-5.042709410E-3,-1.279549114E-2,-6.587028503E-3
1.765678749E1,-9.872071445E-3,1.586224884E-3,1.256656647E-2
1.766678749E1,-9.451128542E-3,6.698660553E-3,-4.191398621E-3
1.767678795E1,5.506947637E-4,-1.231267489E-2,-1.137256622E-2
1.768678795E1,7.813550532E-3,1.993037760E-3,-6.583213806E-3
1.769678795E1,3.312028944E-3,7.196102291E-3,-1.615905762E-2
1.770678795E1,1.296218485E-2,-9.498558939E-3,-1.376438141E-2
1.771678795E1,3.409892321E-3,1.438757777E-2,-1.792907715E-3
1.773678749E1,5.856506526E-3,-4.825010896E-3,-4.186630249E-3
1.774678749E1,1.034103334E-3,-2.539858222E-3,-6.581306458E-3
1.775678749E1,9.986609221E-4,-7.465329021E-3,6.017684937E-4
1.776678749E1,-1.118870080E-2,7.693096995E-5,-1.795768738E-3
1.777678749E1,-1.639343798E-3,4.866924137E-3,7.781982422E-3
1.778678792E1,-4.009090364E-3,1.917561889E-2,-1.855468750E-2
1.779678792E1,-8.714437485E-3,1.198826730E-2,-6.583213806E-3
1.780678792E1,7.990047336E-3,4.808440804E-3,-1.794815063E-3
1.781678792E1,-2.549888194E-2,-4.714690149E-3,-1.376533508E-2
1.782678792E1,-8.711248636E-3,2.466753125E-3,-1.376533508E-2
1.784678748E1,4.360280931E-3,-1.276247203E-4,-4.179954529E-3
1.785678748E1,6.726898253E-3,-2.520252019E-3,-1.136302948E-2
1.786678748E1,9.204372764E-3,1.423515379E-2,7.792472839E-3
1.787678748E1,4.488974810E-3,-6.502494216E-5,1.018619537E-2
1.788678749E1,-2.724714577E-3,7.063928992E-3,6.093978882E-4
1.789678748E1,-2.767004073E-3,-1.210186817E-2,-4.179000854E-3
1.790678749E1,2.045504749E-3,4.884228110E-5,-4.179954529E-3
1.791678748E1,-2.767711878E-3,-4.682801664E-3,7.791519165E-3
1.792678795E1,1.406217366E-2,1.926982030E-2,-6.574630737E-3
1.793678795E1,1.169562340E-2,1.140050590E-4,-4.179954529E-3
1.795678745E1,9.165421128E-3,1.164792106E-2,7.792472839E-3
1.796678745E1,1.356206834E-2,-1.548682526E-2,1.497459412E-2
1.798678698E1,6.535515189E-3,-1.060429960E-3,-8.966445923E-3
1.799678698E1,1.716084778E-3,-1.114297658E-3,-4.178047180E-3
1.800678698E1,-3.581665456E-3,1.069122180E-2,1.018428802E-2
1.801678698E1,1.086691767E-2,1.109175384E-3,-6.574630737E-3
1.802678698E1,-1.346745342E-2,1.278307661E-2,-1.788139343E-3
1.803678742E1,-1.585733891E-2,3.947205842E-4,-1.136302948E-2
1.804678742E1,-8.579954505E-3,9.924758226E-3,5.396842957E-3
1.805678742E1,3.352418542E-3,2.672887221E-2,-1.786231995E-3
1.806678742E1,-8.459918201E-3,2.402164042E-3,6.113052368E-4
1.807678742E1,8.678190410E-3,-6.800889969E-4,-6.567001343E-3
1.809678698E1,4.187114537E-3,3.216769546E-3,3.016471863E-3
1.810678698E1,-1.260047406E-2,-6.358604878E-3,-1.134967804E-2
1.811678698E1,-3.124229610E-3,7.603019476E-4,3.016471863E-3
1.812678698E1,1.692138612E-3,-6.423946470E-3,-1.772880554E-3
1.813678698E1,8.834123611E-3,-1.619249582E-3,-1.772880554E-3
1.814678698E1,4.000283778E-3,-4.080314189E-3,-1.135063171E-2
1.815678698E1,6.367020309E-3,7.100887597E-4,-4.167556763E-3
1.816678698E1,1.350443810E-2,-1.851102337E-2,1.019763947E-2
1.817678745E1,3.626711667E-3,5.768109113E-3,3.011703491E-3
1.818678745E1,-3.415971994E-3,-1.336601377E-2,7.802009583E-3
1.819678745E1,8.638538420E-3,3.389362246E-3,1.019573212E-2
1.820678745E1,-8.041381836E-3,-1.343041658E-2,3.014564514E-3
1.821678745E1,-8.893236518E-4,-3.907226026E-3,3.014564514E-3
1.823678698E1,-5.586028099E-3,1.085640863E-2,-1.374626160E-2
1.825672031E1,1.642100513E-3,-1.048251987E-3,5.407333374E-3
1.827665365E1,-1.039630920E-2,-1.002967358E-3,-1.776695251E-3
1.829658698E1,-5.673840642E-3,-1.266523823E-2,-1.777648926E-3
1.831652031E1,-1.013725996E-3,1.638244838E-3,-1.135540009E-2
1.833645321E1,-3.432728350E-3,-3.093488514E-3,-8.961677551E-3
1.835638654E1,-1.276437938E-2,2.361539751E-3,1.258563995E-2
1.837632037E1,-3.244876862E-4,5.437687039E-3,-4.173278809E-3
1.839625417E1,2.405170724E-2,1.194708049E-3,-8.960723877E-3
1.841618750E1,4.879772663E-3,-8.451025933E-3,-8.960723877E-3
1.843612084E1,-2.139844000E-3,-1.809249818E-2,6.170272827E-4
1.845605417E1,1.554265618E-4,-3.262903541E-3,-1.135635376E-2
1.847598703E1,1.916124299E-2,1.407467946E-2,-1.614761353E-2
1.849592037E1,1.385980844E-2,4.512879997E-3,-1.136302948E-2
1.851585370E1,3.044202924E-3,-7.250525057E-3,-1.795768738E-3
1.853578703E1,-1.005627215E-2,1.067705452E-4,-4.198074341E-3
1.854578703E1,6.672792137E-3,-4.735641181E-3,-4.197120667E-3
1.855578703E1,1.841887832E-3,4.829831421E-3,7.773399353E-3
1.856578703E1,4.146911204E-3,-2.459190786E-3,1.016712189E-2
1.857578703E1,1.135738194E-2,4.721991718E-3,5.378723145E-3
1.858578703E1,1.321032643E-3,-2.163086645E-2,-6.595611572E-3
1.859578703E1,-1.523807645E-3,2.698346972E-3,1.494789124E-2
1.860578703E1,5.233161151E-3,6.337836385E-4,1.494503021E-2
1.861578703E1,-1.876637340E-3,3.093395382E-3,-4.208564758E-3
1.862578703E1,-9.553343058E-3,1.996417344E-2,-1.139545441E-2
1.863578703E1,-2.425961196E-3,5.601521581E-3,5.363464355E-3
1.864578753E1,2.344995737E-3,-8.832462132E-3,-6.608009338E-3
1.865578753E1,-4.813306034E-3,5.476225168E-3,5.750656128E-4
1.867578703E1,-4.782609642E-3,-2.320142090E-2,-6.608009338E-3
1.868578703E1,5.243189633E-3,8.246514946E-3,5.779266357E-4
1.870578656E1,1.241294295E-2,8.261136711E-3,-6.605148315E-3
1.871578656E1,2.918951213E-3,3.467876464E-3,7.761001587E-3
1.872578656E1,-9.104788303E-3,8.314881474E-3,-1.817703247E-3
1.873578656E1,-1.151234657E-2,1.501219720E-2,-1.618003845E-2
1.874578656E1,-1.154981554E-2,7.184110582E-4,-1.139259338E-2
1.875578656E1,-1.362886280E-2,1.715510339E-2,5.370140076E-3
1.876578656E1,3.387831151E-3,1.199095696E-2,-8.991241455E-3
1.877578656E1,-8.342355490E-3,4.155401140E-3,-1.377677917E-2
1.878578656E1,-8.061014116E-3,1.330003887E-2,-4.196166992E-3
1.879578656E1,-5.292311311E-3,-3.967072815E-3,-1.855754852E-2
1.880578656E1,-7.735051215E-3,-8.877828717E-3,-4.191398621E-3
1.881578656E1,4.711002111E-3,-9.084738791E-3,-1.793861389E-3
1.882578656E1,-7.759779692E-5,-4.296284169E-3,2.995491028E-3
1.883578656E1,4.269331694E-4,-1.819394529E-3,6.036758423E-4
1.884578656E1,9.392201900E-4,-6.386868656E-3,-4.181861877E-3
1.885578656E1,5.807690322E-3,-1.123547927E-2,6.084442139E-4
1.886578656E1,8.095964789E-3,-8.251991123E-3,-4.183769226E-3
1.887578656E1,7.277429104E-4,-6.562806666E-4,1.017856598E-2
1.888578656E1,8.222684264E-4,-3.097541630E-3,-1.855182648E-2
1.889578703E1,5.507051945E-3,6.360474974E-3,5.390167236E-3
1.890578703E1,-1.361949742E-2,3.964550793E-3,1.257324219E-2
1.891578703E1,1.746371016E-2,-1.759554446E-2,-4.186630249E-3
1.892578703E1,7.738918066E-4,6.357379258E-3,2.997398376E-3
1.893578703E1,-1.953348517E-3,-2.964865416E-3,-8.977890015E-3
1.895578653E1,-1.787148416E-3,1.139158756E-2,-4.187583923E-3
1.896578653E1,7.762216032E-3,-1.494397968E-2,-8.975982666E-3
1.897578653E1,-4.420436919E-3,9.441304952E-3,5.386352539E-3
1.898578653E1,5.184225738E-3,-4.926182330E-3,5.979537964E-4
1.899578653E1,2.848207951E-4,-1.314654946E-4,-4.191398621E-3
1.900578653E1,-1.956410706E-3,-1.209761016E-2,-1.376724243E-2
1.901578653E1,-9.196035564E-3,1.710903645E-2,-6.587028503E-3
1.902578653E1,7.573805749E-3,-2.115201205E-3,-1.616382599E-2
1.903578653E1,-1.148257405E-2,2.876222134E-4,2.991676331E-3
1.904578653E1,-1.889444888E-3,1.708802208E-2,-6.586074829E-3
1.905578653E1,-1.868672669E-3,5.240395665E-3,1.017284393E-2
1.906578653E1,4.917234182E-4,-2.051487565E-3,-6.587028503E-3
1.907578653E1,-6.663374603E-3,3.411695361E-4,5.970001221E-4
1.908578703E1,5.391128361E-3,1.230799407E-2,7.780075073E-3
1.909578703E1,1.499894261E-2,-6.792388856E-3,1.256942749E-2
1.910578703E1,-4.130698740E-3,-6.849423051E-3,-8.978843689E-3
1.911578703E1,1.257403940E-2,3.368146718E-4,2.991676331E-3
1.912578703E1,1.020741463E-2,2.729445696E-3,-1.616191864E-2
1.913578703E1,7.373817265E-3,1.215054095E-2,2.989768982E-3
1.914578753E1,-6.846688688E-3,-1.671421900E-2,2.990722656E-3
1.915578753E1,-1.387640089E-2,2.445232123E-3,-4.190444946E-3
1.916578753E1,-4.344761372E-3,-1.677596942E-2,-1.855659485E-2
1.917578753E1,-4.320330918E-3,2.321068197E-3,-6.585121155E-3
1.918578753E1,1.026237011E-2,-6.851565093E-3,2.992630005E-3
1.920578706E1,-4.100292921E-3,-2.007748932E-3,-1.796722412E-3
1.921578706E1,-1.691371202E-3,5.188070238E-3,1.496315002E-2
1.922578706E1,-4.124820232E-3,-9.133610874E-3,-6.585121155E-3
1.923578706E1,-1.133540273E-2,1.002211124E-2,-1.137351990E-2
1.924578706E1,1.138344407E-3,2.630740404E-3,-4.186630249E-3
1.925578706E1,1.781833544E-2,7.479421794E-3,1.496601105E-2
1.926578706E1,-4.058778286E-3,6.817381829E-3,-8.975982666E-3
1.927578706E1,-4.092887044E-3,6.707835943E-3,-8.975982666E-3
1.928578706E1,7.234737277E-4,-2.870686352E-3,1.496601105E-2
1.929578706E1,7.922515273E-3,-7.618371397E-3,-1.793861389E-3
1.930578706E1,-1.361133158E-2,2.112600207E-2,-1.137065887E-2
1.931578706E1,-1.136700809E-2,-1.234369166E-2,-1.137161255E-2
1.932578706E1,5.766227841E-4,2.023410052E-3,-1.794815063E-3
1.933578706E1,-1.143231988E-2,-2.991110086E-4,-1.795768738E-3
1.934578706E1,-4.291854799E-3,-1.228210516E-2,-4.189491272E-3
1.935578706E1,-9.117864072E-3,-7.421676069E-3,-6.585121155E-3
1.936578706E1,5.275338888E-3,6.942126900E-3,-8.977890015E-3
1.937578706E1,2.013416961E-2,-9.692415595E-3,-8.975028992E-3
1.939578703E1,-8.547864854E-3,1.174221560E-2,6.017684937E-4
1.940578703E1,-1.340523362E-3,-2.861246467E-4,6.027221680E-4
1.941578703E1,5.873829126E-3,1.925911754E-3,-1.615619659E-2
1.942578703E1,1.109898090E-3,6.657455117E-3,6.036758423E-4
1.943578703E1,2.027400210E-2,-5.954056978E-4,-6.579399109E-3
1.945578653E1,7.237002254E-3,-3.416243941E-3,-1.376724243E-2
1.947571986E1,1.637328044E-2,1.316007972E-2,-8.980751038E-3
1.949565319E1,-1.990336925E-2,1.049418747E-2,5.950927734E-4
1.951558699E1,-6.998479366E-4,1.038060337E-2,-1.616477966E-2
1.953552032E1,-7.768817246E-3,3.246799111E-3,7.779121399E-3
1.955545366E1,-1.702652127E-2,5.637407303E-3,-1.795768738E-3
1.957538699E1,-8.945681155E-3,2.045184374E-5,-4.180908203E-3
1.959532032E1,1.019079983E-2,1.192336157E-2,-1.136302948E-2
1.961525412E1,1.278876513E-2,-5.417346954E-3,-1.783370972E-3
1.963518745E1,-1.383873075E-2,-1.598965377E-3,1.258468628E-2
1.965512078E1,-1.333176345E-2,7.852651179E-3,-1.374816895E-2
1.967505411E1,1.614354551E-3,-9.203992784E-3,-6.559371948E-3
1.969498698E1,-3.072530031E-3,-2.193298191E-3,-6.559371948E-3
1.971492031E1,8.773311973E-3,2.588253468E-3,3.018379211E-3
1.973485364E1,-1.193836331E-3,4.239380360E-4,3.013610840E-3
1.975478744E1,-8.320927620E-3,1.478701457E-2,-4.168510437E-3
1.976478744E1,-3.630243242E-3,-1.155872643E-2,3.013610840E-3
1.977478744E1,-6.055280566E-3,-2.035301179E-3,-4.169464111E-3
1.978478744E1,-1.081600785E-2,-6.825271994E-3,5.408287048E-3
1.979478744E1,1.225315034E-3,-1.160394773E-2,-8.956909180E-3
1.981478698E1,3.903940320E-3,-1.792728156E-2,6.189346313E-4
1.982478698E1,6.247602403E-3,-1.494688727E-2,-1.778602600E-3
1.983478698E1,6.185472012E-3,-4.741352051E-3,-4.175186157E-3
1.984478698E1,-1.319000125E-2,1.253119856E-2,-8.967399597E-3
1.985478698E1,-8.322194219E-3,5.524411798E-3,-1.375579834E-2
1.986478744E1,1.285642385E-3,3.183875233E-3,-8.967399597E-3
1.987478744E1,1.088719815E-2,7.915195078E-3,1.018619537E-2
1.988478744E1,-1.059658825E-3,1.025250554E-2,-1.136207581E-2
1.989478744E1,6.077788770E-3,-1.785855740E-3,3.004074097E-3
1.990478744E1,6.043069065E-3,-4.053477198E-3,-1.785278320E-3
1.992478698E1,-5.934715271E-3,7.806792855E-3,-1.136207581E-2
1.993478698E1,8.395537734E-3,4.871450365E-4,-8.967399597E-3
1.994478698E1,-6.003879011E-3,-4.410501570E-3,5.397796631E-3
1.995478698E1,-5.973160267E-3,1.240323111E-2,-1.785278320E-3
1.996478698E1,-3.568954766E-3,2.756021917E-3,7.793426514E-3
1.997478698E1,-1.215405762E-3,5.166567862E-3,5.397796631E-3
1.998478698E1,-1.560864598E-2,-6.803058088E-3,3.004074097E-3
1.999478698E1,4.020079970E-3,-1.658737659E-2,5.402565002E-3
2.000478744E1,-7.509067655E-4,-2.130776271E-2,3.008842468E-3
2.001478744E1,2.082831785E-2,2.688720822E-3,6.132125854E-4
2.002478744E1,1.133112609E-2,-6.948437542E-3,6.151199341E-4
2.003478744E1,-8.082941175E-3,-1.839835197E-3,-1.375389099E-2
2.004478744E1,-8.724778891E-4,5.341336131E-3,6.122589111E-4
2.006478697E1,-1.048021019E-2,-1.895029098E-3,-4.177093506E-3
2.007478697E1,1.350024343E-2,2.822063863E-3,7.795333862E-3
2.008478697E1,-5.702510476E-3,-2.088882029E-3,-1.854133606E-2
2.009478697E1,-9.418353438E-4,2.700988203E-3,3.006935120E-3
2.010478697E1,-1.050107926E-2,9.952396154E-3,-1.614761353E-2
2.011478744E1,-8.994415402E-4,-1.165311038E-2,-4.175186157E-3
2.012478744E1,1.821247116E-2,1.227828488E-2,3.006935120E-3
2.013478744E1,-9.170174599E-4,-1.411554404E-2,1.497840881E-2
2.014478744E1,-8.339807391E-4,-1.412029378E-2,1.497840881E-2
2.015478744E1,-3.200732172E-3,2.637855709E-3,-8.963584900E-3
2.017478697E1,-1.285413653E-2,-9.454466403E-3,3.007888794E-3
2.018478697E1,1.111615449E-2,-4.667766392E-3,-4.175186157E-3
2.019478697E1,1.837201789E-2,-2.208154649E-3,-1.135730743E-2
2.020478697E1,-1.059770584E-3,-4.350833595E-3,3.005981445E-3
2.021478697E1,3.553472459E-3,-4.007764161E-3,-1.615142822E-2
2.022478697E1,-1.803270727E-2,1.282361522E-2,-1.787185669E-3
2.023478697E1,-1.242168248E-3,1.287723333E-2,3.003120422E-3
2.024478697E1,-3.744006157E-3,-1.100379974E-2,-4.181861877E-3
2.025478744E1,1.490533352E-3,-1.097353548E-2,3.004074097E-3
2.026478744E1,-3.350444138E-3,-8.521076292E-3,5.397796631E-3
2.027478744E1,3.915295005E-3,-1.343123615E-3,-4.179000854E-3
2.028478744E1,-3.289073706E-3,1.792329922E-2,-8.967399597E-3
2.029478744E1,-8.739456534E-4,1.325852424E-2,1.018619537E-2
2.031478697E1,-5.810700357E-3,1.928292960E-2,-4.176139832E-3
2.032478697E1,-3.390543163E-3,-7.583472878E-3,6.141662598E-4
2.033478697E1,-1.038536429E-3,-2.806343138E-3,-8.962631226E-3
2.034478697E1,-9.132176638E-4,-1.766503602E-2,-1.777648926E-3
2.035478697E1,6.297230721E-3,-8.089512587E-3,-1.777648926E-3
2.036478744E1,1.526348293E-3,-5.626875907E-3,-6.566047668E-3
2.037478744E1,1.485832036E-3,-7.504850626E-3,-8.961677551E-3
2.038478744E1,1.510553062E-3,-7.561657578E-3,-1.374912262E-2
2.039478744E1,1.099998504E-2,-7.140345871E-3,-6.569862366E-3
2.040478744E1,-1.052387804E-2,-2.408560365E-3,7.796287537E-3
2.042478697E1,-9.188205004E-4,-9.592507035E-3,5.402565002E-3
2.043478697E1,1.700408757E-3,5.278140306E-4,-8.963584900E-3
2.044478697E1,-4.866868258E-4,-1.336316206E-2,-4.175186157E-3
2.045478697E1,-5.151242018E-3,1.345298067E-2,-1.783370972E-3
2.046478697E1,-7.631577551E-3,3.825265914E-3,3.005981445E-3
2.047478697E1,1.871854439E-2,-1.773765311E-2,6.113052368E-4
2.048478697E1,1.831896603E-3,-2.906601876E-3,5.397796631E-3
2.049478697E1,-7.184967399E-4,-1.204468124E-2,5.394935608E-3
2.050478744E1,-3.153495491E-3,2.337239683E-3,7.789611816E-3
2.051478744E1,1.122523844E-2,-2.465758473E-3,-8.970260620E-3
2.052478744E1,-7.858827710E-3,3.106419370E-2,3.001213074E-3
2.053478744E1,6.470456719E-3,-7.645092905E-3,3.003120422E-3
2.054478744E1,6.556592882E-3,-9.988728911E-3,-6.574630737E-3
2.056478697E1,1.868978143E-3,-2.189599164E-2,3.003120422E-3
2.057478697E1,8.812688291E-3,-7.086470723E-3,-8.971214294E-3
2.058478697E1,4.048787057E-3,-4.749033600E-3,-1.789093018E-3
2.059478697E1,2.050807700E-2,-2.018526196E-3,-4.186630249E-3
2.060478697E1,3.318928182E-3,1.022685319E-2,-1.796722412E-3
2.061478744E1,1.296288520E-2,-6.578579545E-3,-1.616096497E-2
2.062478744E1,-1.931220293E-3,-1.552205533E-3,-6.588935852E-3
2.063478744E1,1.956191286E-2,-1.549009234E-3,5.382537842E-3
2.064478744E1,2.268806100E-3,5.788359791E-3,-1.377487183E-2
2.065478744E1,2.296365798E-3,5.786523223E-3,-4.198074341E-3
2.067478697E1,-1.269622892E-2,-8.613392711E-3,-1.138496399E-2
2.068478697E1,-7.950037718E-3,-1.442186534E-3,5.855560303E-4
2.069478697E1,-7.463470101E-4,8.258849382E-3,-1.809120178E-3
2.070478697E1,-3.119871020E-3,5.988400429E-3,-6.598472595E-3
2.071478697E1,2.551375329E-2,-3.597188741E-3,-1.810073853E-3
2.072478697E1,-8.608996868E-4,2.041721344E-2,-1.138782501E-2
2.073478697E1,3.831341863E-3,1.035944372E-2,7.767677307E-3
2.074478697E1,-9.424760938E-4,-1.117583923E-2,5.846023560E-4
2.075478744E1,-1.231208444E-3,1.471892744E-2,1.016139984E-2
2.076478744E1,1.315908879E-2,7.479261607E-3,2.980232239E-3
2.077478744E1,-1.191988587E-3,2.703689039E-3,5.373954773E-3
2.078478744E1,-3.800153732E-3,-2.433907241E-3,-6.598472595E-3
2.079478744E1,1.765054837E-2,-4.836630076E-3,-4.204750061E-3
2.081478697E1,3.438249230E-3,-9.619444609E-3,-8.991241455E-3
2.083472057E1,2.029575035E-2,-7.216870785E-3,-1.809120178E-3
2.085465390E1,2.368316054E-4,-5.105316639E-3,5.807876587E-4
2.087458723E1,-2.452358603E-4,6.935123354E-3,-8.998870850E-3
2.089452056E1,-2.675846219E-3,4.140127450E-3,-6.604194641E-3
2.091445343E1,-2.699784935E-3,8.749280125E-3,5.798339844E-4
2.093438676E1,-7.353611290E-3,3.634199500E-3,-1.138973236E-2
2.095432009E1,4.975251853E-3,-8.648991585E-3,-1.138591766E-2
2.097425393E1,-1.966364682E-3,5.563668907E-3,-4.200935364E-3
2.099418726E1,1.231601089E-2,-1.614883542E-3,-8.990287781E-3
2.101412059E1,1.911322400E-2,-1.137888059E-2,-1.617527008E-2
2.103405392E1,6.722837687E-3,5.585283041E-3,-4.206657410E-3
2.105398679E1,-2.771295607E-3,1.276334003E-2,5.817413330E-4
2.107392012E1,4.463888705E-3,3.127772361E-3,1.015949249E-2
2.109385372E1,-3.210671246E-3,6.358847022E-4,-1.139163971E-2
2.111378705E1,-1.766627282E-2,1.513158157E-2,-8.998870850E-3
2.112378705E1,-1.010249555E-2,5.158629268E-3,-4.205703735E-3
2.114378678E1,-1.418887079E-2,-2.632882446E-3,-1.138210297E-2
2.115378678E1,-1.131688058E-2,-1.715017483E-2,1.256465912E-2
2.116378678E1,-5.987599492E-3,-1.237801835E-2,-1.797676086E-3
2.117378678E1,1.130104810E-2,4.644148052E-3,-1.794815063E-3
2.118378678E1,-3.046736121E-3,-7.565319538E-5,2.993583679E-3
2.119378678E1,-1.216803491E-2,7.304526865E-3,2.996444702E-3
2.120378678E1,-2.573199570E-3,1.900829375E-4,1.257324219E-2
2.121378678E1,-1.512840390E-4,1.455408707E-2,6.017684937E-4
2.122378728E1,-4.557706416E-3,-1.694014668E-2,-1.789093018E-3
2.123378728E1,1.462104172E-2,9.339839220E-3,-1.789093018E-3
2.124378728E1,-2.187445760E-3,-9.936757386E-3,7.789611816E-3
2.125378728E1,2.628758550E-3,1.161007211E-2,5.394935608E-3
2.126378728E1,4.982188344E-3,-1.949935406E-2,6.065368652E-4
2.128378678E1,7.351845503E-3,-2.883896232E-4,-8.971214294E-3
2.129378678E1,7.250510156E-3,-1.157410443E-4,-8.972167969E-3
2.130378678E1,2.703070641E-5,-1.446509548E-2,6.036758423E-4
2.131378678E1,-1.438399404E-2,-4.954732955E-3,-6.579399109E-3
2.132378678E1,3.243237734E-5,2.641651779E-3,-8.974075317E-3
2.133378705E1,4.775524139E-3,-1.418527402E-2,1.257419586E-2
2.134378705E1,4.751048982E-3,-6.445501000E-3,1.257228851E-2
2.135378705E1,-1.935754716E-2,-5.936052650E-3,-1.376819611E-2
2.136378705E1,-7.132843137E-3,1.552212983E-3,-1.137351990E-2
2.137378705E1,5.246341228E-3,1.625609398E-2,-1.795768738E-3
2.139378678E1,2.894259989E-3,1.866177097E-2,-8.977890015E-3
2.140378678E1,-1.879625022E-3,1.149211079E-2,-6.584167480E-3
2.141378678E1,7.780417800E-3,1.148717478E-2,-6.582260132E-3
2.142378678E1,5.713477731E-4,-8.137620986E-3,1.017856598E-2
2.143378678E1,-9.106598794E-3,-3.412980586E-3,-8.975028992E-3
2.144378678E1,2.889424562E-3,-5.864098668E-3,6.017684937E-4
2.145378678E1,-6.662964821E-3,-1.132365316E-3,-1.376342773E-2
2.146378678E1,-1.985430717E-3,8.450686932E-3,-4.187583923E-3
2.147378728E1,-1.399599016E-2,-1.082621515E-3,5.389213562E-3
2.148378728E1,4.988722503E-3,3.659516573E-3,-1.376533508E-2
2.149378728E1,2.248883247E-4,3.602709621E-3,2.994537354E-3
2.150378728E1,-4.535779357E-3,5.995824933E-3,-1.615905762E-2
2.151378728E1,-2.016156912E-3,-1.554587483E-2,-8.975028992E-3
2.153378678E1,2.765528858E-3,1.091654971E-2,-6.582260132E-3
2.154378678E1,7.656097412E-3,1.050771773E-2,-6.580352783E-3
2.155378678E1,-4.359222949E-3,-1.502897590E-3,6.027221680E-4
2.156378678E1,-6.722755730E-3,-1.102625579E-2,7.785797119E-3
2.157378678E1,1.962910220E-2,-1.435764134E-3,7.785797119E-3
2.158378705E1,2.826921642E-3,-6.235741079E-3,-1.791954041E-3
2.159378705E1,-6.732366979E-3,1.015741378E-3,2.997398376E-3
2.160378705E1,-9.161256254E-3,1.142591238E-3,1.017856598E-2
2.161378705E1,-4.473567009E-3,-1.315593719E-3,6.008148193E-4
2.162378705E1,2.072602510E-4,1.311153919E-2,-4.187583923E-3
2.164378678E1,-1.597285271E-2,-8.497484028E-3,-2.094364166E-2
2.165378678E1,-3.565296531E-3,-3.608424217E-3,-1.375770569E-2
2.166378678E1,1.687265933E-3,1.279376447E-3,-8.966445923E-3
2.167378678E1,9.402424097E-3,-1.539931074E-2,-4.174232483E-3
2.168378678E1,7.088184357E-3,1.327205077E-2,5.402565002E-3
2.169378678E1,-7.302112877E-3,8.540343493E-3,-8.962631226E-3
2.170378678E1,-1.014769077E-4,-9.681023657E-4,5.402565002E-3
2.171378678E1,1.661290228E-2,1.358959824E-3,1.258563995E-2
2.172378725E1,-1.777783036E-4,-1.089047641E-3,1.019001007E-2
2.173378725E1,-7.471248507E-3,-1.082718372E-3,-1.781463623E-3
2.174378725E1,2.133302391E-3,-1.066162810E-2,-1.854133606E-2
2.175378725E1,6.931856275E-3,-5.943164229E-3,5.401611328E-3
2.176378725E1,-2.734579146E-3,-3.655113280E-3,-8.963584900E-3
2.178378675E1,-5.152888596E-3,1.053117216E-2,-1.780509949E-3
2.179378675E1,-3.397911787E-4,1.047413424E-2,-1.780509949E-3
2.180378675E1,2.083465457E-3,-6.759785116E-3,-8.960723877E-3
2.181378675E1,9.266421199E-3,4.231669009E-4,7.799148560E-3
2.182378675E1,-1.225457340E-2,1.718121395E-2,-1.778602600E-3
2.183378701E1,-3.238767385E-4,-1.956611872E-3,-1.778602600E-3
2.184378701E1,1.879106089E-2,-1.912850887E-3,-1.778602600E-3
2.185378701E1,-2.684257925E-3,-9.030207992E-3,-1.778602600E-3
2.186378701E1,2.132102847E-3,-1.382018439E-2,5.404472351E-3
2.187378701E1,-5.026184022E-3,4.885047674E-4,-1.777648926E-3
2.189378675E1,2.127684280E-2,-6.803754717E-3,-1.614379883E-2
2.190378675E1,-5.476988852E-3,5.663115531E-3,-8.965492249E-3
2.191378675E1,2.093014494E-2,-3.903809935E-3,7.796287537E-3
2.192378675E1,-1.016467810E-2,9.384751320E-4,6.122589111E-4
2.193378675E1,9.004004300E-3,1.292261854E-2,-1.135921478E-2
2.194378675E1,-5.454570055E-4,-8.627500385E-3,-1.135826111E-2
2.195378675E1,8.653089404E-3,-3.651387990E-3,7.792472839E-3
2.196378675E1,6.258770823E-3,5.925606936E-3,-1.615047455E-2
2.197378725E1,-6.214275956E-3,-3.678996116E-3,-1.615333557E-2
2.198378725E1,1.541714370E-2,-1.289673150E-3,-1.615333557E-2
2.199378725E1,1.536180079E-2,-8.469298482E-3,-1.136493683E-2
2.200378725E1,5.352400243E-3,3.720637411E-3,-1.792907715E-3
2.201378725E1,1.671454683E-2,-5.822431296E-3,5.386352539E-3
2.203378678E1,1.256622374E-3,1.606506482E-2,-1.138305664E-2
2.204378678E1,3.613255918E-3,-1.259474643E-2,-4.199981689E-3
2.205378678E1,8.300952613E-3,-5.475826561E-3,2.983093262E-3
2.206378678E1,1.311404258E-2,-3.138586879E-3,-8.988380432E-3
2.207378678E1,-4.072882235E-3,-5.467321724E-3,-4.202842712E-3
2.208378704E1,-6.567999721E-3,-7.426701486E-4,2.980232239E-3
2.209378705E1,-1.410535723E-2,-1.474131271E-2,-8.996009827E-3
2.210378704E1,-1.420328766E-2,1.158681884E-2,2.975463867E-3
2.211378705E1,2.626597881E-3,4.413869232E-3,-8.996009827E-3
2.212378704E1,5.500897765E-3,1.413074881E-2,2.978324890E-3
2.214378678E1,-1.115796715E-2,-4.959236830E-3,-6.599426270E-3
2.215378678E1,1.525898650E-2,-2.625089139E-3,2.980232239E-3
2.216378678E1,-3.947496414E-3,1.898187026E-2,5.846023560E-4
2.217378678E1,1.003801823E-2,1.145927235E-2,5.371093750E-3
2.218378678E1,5.204014480E-3,1.618082449E-2,2.977371216E-3
2.219378678E1,-6.798200309E-3,4.155512899E-3,1.494884491E-2
2.220378678E1,-6.853640079E-3,1.373561472E-2,-1.811981201E-3
2.221378678E1,-1.394885033E-2,-1.051448286E-3,-8.991241455E-3
2.222378684E1,5.438253284E-3,5.576703697E-3,-1.806259155E-3
2.223378684E1,-1.557089388E-3,2.560865134E-3,5.380630493E-3
2.224378684E1,1.302452385E-2,9.384240955E-3,5.383491516E-3
2.225378684E1,-1.351283491E-2,-7.928423584E-4,-1.137542725E-2
2.226378684E1,3.323420882E-3,2.566504106E-2,-4.192352295E-3
2.228378634E1,-1.323223114E-3,-4.254668951E-3,-8.975028992E-3
2.229378634E1,8.540503681E-3,-1.441735029E-2,-1.615428925E-2
2.230378634E1,-5.821920931E-3,1.436945423E-2,-8.970260620E-3
2.231378634E1,-5.727365613E-3,1.432239264E-2,-8.970260620E-3
2.232378634E1,1.830689609E-3,-2.865344286E-4,-1.136112213E-2
2.233378661E1,1.845367253E-3,2.120904624E-3,-4.178047180E-3
