"Time (s)","Acceleration x (m/s^2)","Acceleration y (m/s^2)","Acceleration z (m/s^2)"
0.000000000E0,-3.280156553E-1,1.556278586E0,9.450202942E0
1.000588100E-2,-4.525179267E-1,1.539518714E0,9.471751213E0
2.001101500E-2,-4.189980924E-1,1.446141958E0,9.507665634E0
3.001321500E-2,-2.250618339E-1,1.446141958E0,9.569916725E0
4.001585200E-2,-5.027977005E-2,1.486844659E0,9.589070320E0
5.001793700E-2,4.788549617E-3,1.474873304E0,9.696812630E0
6.201716700E-2,-7.182824612E-2,1.383890867E0,9.794978142E0
7.401689900E-2,-1.795706153E-1,1.309668303E0,9.893143654E0
8.601633100E-2,-3.375927508E-1,1.321639657E0,9.938634872E0
9.801552800E-2,-4.189980924E-1,1.386285067E0,9.955394745E0
1.100143930E-1,-4.046324492E-1,1.443747759E0,9.895537376E0
1.220132920E-1,-3.687183261E-1,1.467690468E0,9.873989105E0
1.340106250E-1,-3.519583941E-1,1.494027495E0,9.816526413E0
1.460090900E-1,-3.399870098E-1,1.477267504E0,9.845257759E0
1.580076210E-1,-2.873129845E-1,1.436564922E0,9.857229233E0
1.700062860E-1,-1.963305324E-1,1.436564922E0,9.912297249E0
1.820048500E-1,-1.699935049E-1,1.448536277E0,9.900326729E0
1.940044800E-1,-1.580221355E-1,1.479661822E0,9.809344292E0
2.060028800E-1,-2.394274771E-1,1.462901950E0,9.732727051E0
2.180018110E-1,-2.873129845E-1,1.438959122E0,9.672870636E0
2.300010770E-1,-3.735068738E-1,1.467690468E0,9.636956215E0
2.420005090E-1,-4.046324492E-1,1.520364523E0,9.624984741E0
2.539988060E-1,-4.644893110E-1,1.546701550E0,9.641744614E0
2.659985370E-1,-4.716721475E-1,1.582615614E0,9.615407944E0
2.779974360E-1,-4.620950520E-1,1.587404251E0,9.605830193E0
2.899961020E-1,-4.070267081E-1,1.623318315E0,9.591464996E0
3.019945670E-1,-3.256213665E-1,1.611346960E0,9.605830193E0
3.139929980E-1,-2.609759569E-1,1.623318315E0,9.687235832E0
3.259911970E-1,-2.561874092E-1,1.577827096E0,9.763853073E0
3.379897290E-1,-2.609759569E-1,1.534730196E0,9.833286285E0
3.499881940E-1,-2.394274771E-1,1.477267504E0,9.895537376E0
3.619862250E-1,-2.513988614E-1,1.472478986E0,9.917086601E0
3.739855900E-1,-2.801301479E-1,1.470084786E0,9.850046158E0
3.859840550E-1,-2.609759569E-1,1.470084786E0,9.797372818E0
3.979825530E-1,-1.843591630E-1,1.470084786E0,9.775823593E0
4.099810180E-1,-6.943397224E-2,1.494027495E0,9.756669998E0
4.219798830E-1,-4.788549617E-3,1.510787368E0,9.783006668E0
4.339779150E-1,-2.394274808E-2,1.479661822E0,9.806949615E0
4.459763800E-1,-7.901106775E-2,1.465296149E0,9.799766541E0
4.579748120E-1,-2.202732861E-1,1.508393168E0,9.794978142E0
4.699732100E-1,-3.447755575E-1,1.505998850E0,9.780612946E0
4.819716410E-1,-3.806896806E-1,1.505998850E0,9.809344292E0
4.939700050E-1,-3.471698463E-1,1.472478986E0,9.806949615E0
5.059685370E-1,-3.040728867E-1,1.465296149E0,9.797372818E0
5.179665020E-1,-2.873129845E-1,1.477267504E0,9.828497887E0
5.299649670E-1,-2.777358890E-1,1.479661822E0,9.766246796E0
5.419634320E-1,-2.897072434E-1,1.453324795E0,9.711178780E0
5.539615300E-1,-3.112557232E-1,1.470084786E0,9.636956215E0
5.659599280E-1,-3.136500120E-1,1.484450340E0,9.613013268E0
5.779588260E-1,-3.232271075E-1,1.508393168E0,9.620196342E0
5.899574570E-1,-3.304099143E-1,1.496421814E0,9.565128326E0
6.019563870E-1,-3.375927508E-1,1.453324795E0,9.541185379E0
6.119565510E-1,-3.184385598E-1,1.431776285E0,9.584281921E0
6.239547810E-1,-2.513988614E-1,1.403045058E0,9.553156853E0
6.359538110E-1,-1.675992310E-1,1.419804931E0,9.545973778E0
6.479524080E-1,-1.245022863E-1,1.446141958E0,9.593858719E0
6.599502730E-1,-1.245022863E-1,1.458113313E0,9.620196342E0
6.719475380E-1,-1.891477108E-1,1.450930476E0,9.730332375E0
6.839464360E-1,-2.825244367E-1,1.415016413E0,9.857229233E0
6.959445340E-1,-3.184385598E-1,1.410227895E0,9.950606346E0
7.079429990E-1,-3.184385598E-1,1.403045058E0,1.004158878E1
7.199419970E-1,-2.633702159E-1,1.398256540E0,1.003440571E1
7.319408620E-1,-1.915419847E-1,1.419804931E0,1.002004051E1
7.439393940E-1,-1.987248063E-1,1.467690468E0,9.986519814E0
7.559379260E-1,-2.298503816E-1,1.455719113E0,9.895537376E0
7.679363240E-1,-2.442160249E-1,1.453324795E0,9.828497887E0
7.799345220E-1,-2.466102988E-1,1.455719113E0,9.804554939E0
7.919334200E-1,-3.016786277E-1,1.434170604E0,9.756669998E0
8.039314850E-1,-2.944957912E-1,1.426987767E0,9.727938652E0
8.159298830E-1,-2.585816681E-1,1.424593568E0,9.682447433E0
8.279279150E-1,-2.394274771E-1,1.429382086E0,9.596253395E0
8.399261800E-1,-2.370332032E-1,1.482056141E0,9.562733650E0
8.519237450E-1,-3.016786277E-1,1.460507631E0,9.620196342E0
8.639226100E-1,-3.208328187E-1,1.484450340E0,9.653716087E0
8.759210080E-1,-2.944957912E-1,1.443747759E0,9.730332375E0
8.879199060E-1,-1.604164094E-1,1.436564922E0,9.897932053E0
8.999186380E-1,-8.379961550E-2,1.443747759E0,1.000088596E1
9.119179360E-1,-4.788549617E-2,1.467690468E0,9.996097565E0
9.239163340E-1,-5.985686928E-2,1.479661822E0,9.988914490E0
9.359143660E-1,-2.035133541E-1,1.498816013E0,9.938634872E0
9.479128310E-1,-3.854782581E-1,1.486844659E0,9.792584419E0
9.599112960E-1,-4.261809289E-1,1.472478986E0,9.732727051E0
9.719098270E-1,-3.399870098E-1,1.484450340E0,9.682447433E0
9.839078590E-1,-2.466102988E-1,1.491633177E0,9.634561539E0
9.959069240E-1,-1.388679445E-1,1.491633177E0,9.572310448E0
1.007905654E0,-1.412622184E-1,1.470084786E0,9.565128326E0
1.019904151E0,-1.867534369E-1,1.470084786E0,9.579493523E0
1.031902647E0,-2.944957912E-1,1.455719113E0,9.603436470E0
1.043901744E0,-3.543526828E-1,1.465296149E0,9.668081284E0
1.055899475E0,-3.711125851E-1,1.474873304E0,9.720755577E0
1.067897940E0,-3.782954216E-1,1.489238977E0,9.737515450E0
1.079896472E0,-3.375927508E-1,1.498816013E0,9.732727051E0
1.091895171E0,-3.280156553E-1,1.494027495E0,9.742303848E0
1.103893636E0,-2.968900800E-1,1.501210332E0,9.759063721E0
1.115892934E0,-2.729473412E-1,1.513181686E0,9.783006668E0
1.127891332E0,-1.819648892E-1,1.522758722E0,9.818921089E0
1.139889830E0,-1.556278616E-1,1.529941559E0,9.840469360E0
1.151887628E0,-1.795706153E-1,1.529941559E0,9.806949615E0
1.163886160E0,-1.388679445E-1,1.505998850E0,9.780612946E0
1.175885192E0,-1.460507661E-1,1.465296149E0,9.713572502E0
1.187883590E0,-1.460507661E-1,1.498816013E0,9.660899162E0
1.199882121E0,-1.460507661E-1,1.479661822E0,9.639349937E0
1.211880285E0,-1.364736706E-1,1.479661822E0,9.624984741E0
1.223878750E0,-1.364736706E-1,1.458113313E0,9.706390381E0
1.235876448E0,-1.556278616E-1,1.453324795E0,9.792584419E0
1.247875112E0,-1.412622184E-1,1.398256540E0,9.806949615E0
1.259873811E0,-1.197137386E-1,1.403045058E0,9.847652435E0
1.271873643E0,-7.661679387E-2,1.417410731E0,9.806949615E0
1.283872839E0,-9.577099234E-3,1.426987767E0,9.768641472E0
1.295872102E0,-4.788549617E-2,1.407833576E0,9.742303848E0
1.307871233E0,-1.173194647E-1,1.410227895E0,9.668081284E0
1.319869964E0,-1.867534369E-1,1.429382086E0,9.660899162E0
1.331869097E0,-2.921015322E-1,1.443747759E0,9.703995705E0
1.343867562E0,-3.543526828E-1,1.450930476E0,9.727938652E0
1.355866160E0,-3.495641351E-1,1.455719113E0,9.778218269E0
1.367865191E0,-3.160442710E-1,1.443747759E0,9.811738014E0
1.379864356E0,-2.705530524E-1,1.472478986E0,9.790189743E0
1.391861054E0,-1.795706153E-1,1.460507631E0,9.759063721E0
1.403859519E0,-1.077423692E-1,1.470084786E0,9.778218269E0
1.415858051E0,-1.221080124E-1,1.484450340E0,9.787795067E0
1.427855949E0,-2.035133541E-1,1.505998850E0,9.730332375E0
1.439854147E0,-2.490045726E-1,1.494027495E0,9.744698524E0
1.451853045E0,-3.088614643E-1,1.525153041E0,9.723150253E0
1.463851143E0,-3.423812985E-1,1.522758722E0,9.694418907E0
1.475849608E0,-3.423812985E-1,1.510787368E0,9.737515450E0
1.487848073E0,-2.753416002E-1,1.479661822E0,9.749486923E0
1.499847571E0,-1.987248063E-1,1.458113313E0,9.754275322E0
1.511847303E0,-1.053480953E-1,1.477267504E0,9.756669998E0
1.523846135E0,-8.140534163E-2,1.465296149E0,9.737515450E0
1.535844600E0,-1.101366431E-1,1.448536277E0,9.677659035E0
1.547842998E0,-1.771763414E-1,1.438959122E0,9.701601982E0
1.559839863E0,-2.370332032E-1,1.438959122E0,9.742303848E0
1.571837195E0,-2.585816681E-1,1.446141958E0,9.792584419E0
1.583835727E0,-2.394274771E-1,1.436564922E0,9.794978142E0
1.595834125E0,-1.723877788E-1,1.438959122E0,9.794978142E0
1.607832590E0,-8.619388938E-2,1.441353440E0,9.778218269E0
1.619831521E0,-9.337671846E-2,1.419804931E0,9.751881599E0
1.631831051E0,-8.858817071E-2,1.450930476E0,9.778218269E0
1.643829647E0,-1.316851079E-1,1.441353440E0,9.747093201E0
1.655828277E0,-2.154847383E-1,1.412622094E0,9.720755577E0
1.667827840E0,-2.442160249E-1,1.443747759E0,9.713572502E0
1.679826005E0,-2.035133541E-1,1.450930476E0,9.725543976E0
1.691824470E0,-1.628106833E-1,1.489238977E0,9.742303848E0
1.703822868E0,-1.268965602E-1,1.465296149E0,9.771035194E0
1.715821366E0,-1.221080124E-1,1.458113313E0,9.821314812E0
1.727818998E0,-2.154847383E-1,1.498816013E0,9.835680962E0
1.739817930E0,-2.657645047E-1,1.494027495E0,9.828497887E0
1.751815528E0,-3.280156553E-1,1.470084786E0,9.749486923E0
1.763814060E0,-3.184385598E-1,1.482056141E0,9.701601982E0
1.775812525E0,-2.897072434E-1,1.486844659E0,9.651321411E0
1.787810990E0,-2.130904645E-1,1.501210332E0,9.596253395E0
1.799809388E0,-2.130904645E-1,1.470084786E0,9.624984741E0
1.811808653E0,-2.106961906E-1,1.467690468E0,9.682447433E0
1.823807118E0,-2.035133541E-1,1.458113313E0,9.720755577E0
1.835805650E0,-1.939362586E-1,1.446141958E0,9.787795067E0
1.847804115E0,-1.819648892E-1,1.465296149E0,9.802161217E0
1.859802513E0,-1.604164094E-1,1.458113313E0,9.814132690E0
1.871800978E0,-1.819648892E-1,1.438959122E0,9.814132690E0
1.883799443E0,-1.891477108E-1,1.441353440E0,9.802161217E0
1.895797541E0,-2.154847383E-1,1.450930476E0,9.783006668E0
1.907795939E0,-2.466102988E-1,1.470084786E0,9.857229233E0
1.919794471E0,-2.657645047E-1,1.467690468E0,9.883566856E0
1.931792070E0,-2.442160249E-1,1.465296149E0,9.897932053E0
1.943790535E0,-2.490045726E-1,1.441353440E0,9.883566856E0
1.955788966E0,-2.083019018E-1,1.455719113E0,9.845257759E0
1.967787431E0,-1.723877788E-1,1.482056141E0,9.723150253E0
1.979785429E0,-1.221080124E-1,1.474873304E0,9.665687561E0
1.991784793E0,-1.292908341E-1,1.498816013E0,9.656110764E0
2.003783258E0,-1.364736706E-1,1.455719113E0,9.579493523E0
2.015782056E0,-1.675992310E-1,1.446141958E0,9.605830193E0
2.027780653E0,-1.723877788E-1,1.448536277E0,9.751881599E0
2.039779783E0,-1.675992310E-1,1.462901950E0,9.744698524E0
2.051777713E0,-1.580221355E-1,1.415016413E0,9.727938652E0
2.063776309E0,-1.316851079E-1,1.450930476E0,9.763853073E0
2.075774972E0,-4.788549617E-2,1.484450340E0,9.739910126E0
2.087774604E0,1.197137404E-2,1.503604531E0,9.715967178E0
2.099773069E0,-2.873129770E-2,1.496421814E0,9.703995705E0
2.111771834E0,-1.364736706E-1,1.489238977E0,9.675264359E0
2.123770299E0,-2.609759569E-1,1.494027495E0,9.636956215E0
2.135768297E0,-3.878725171E-1,1.477267504E0,9.629773140E0
2.147765729E0,-3.280156553E-1,1.505998850E0,9.646533012E0
2.159764194E0,-2.418217510E-1,1.508393168E0,9.694418907E0
2.171762859E0,-1.604164094E-1,1.532335877E0,9.744698524E0
2.183761391E0,-7.422251999E-2,1.541913033E0,9.787795067E0
2.195760322E0,-7.661679387E-2,1.503604531E0,9.785401344E0
2.207758787E0,-1.221080124E-1,1.462901950E0,9.737515450E0
2.219757118E0,-1.867534369E-1,1.446141958E0,9.708784103E0
2.231755783E0,-3.878725171E-1,1.448536277E0,9.682447433E0
2.243754248E0,-4.812492430E-1,1.479661822E0,9.653716087E0
2.255752547E0,-4.477293789E-1,1.501210332E0,9.850046158E0
2.267750945E0,-2.992843390E-1,1.484450340E0,9.981731415E0
2.279749043E0,-1.412622184E-1,1.455719113E0,1.001525116E1
2.291746407E0,-2.154847234E-2,1.453324795E0,1.007032013E1
2.303745170E0,4.309694469E-2,1.443747759E0,1.002961731E1
2.315744600E0,5.746259540E-2,1.446141958E0,9.866806030E0
2.327744198E0,-6.943397224E-2,1.446141958E0,9.668081284E0
2.337744496E0,-1.819648892E-1,1.441353440E0,9.560338974E0
2.347744594E0,-3.040728867E-1,1.462901950E0,9.514847755E0
2.359744491E0,-3.256213665E-1,1.438959122E0,9.512454033E0
2.371744122E0,-3.495641351E-1,1.467690468E0,9.538790703E0
2.383743586E0,-2.873129845E-1,1.426987767E0,9.608224869E0
2.395742783E0,-2.346389294E-1,1.410227895E0,9.711178780E0
2.407740981E0,-1.388679445E-1,1.446141958E0,9.816526413E0
2.419740246E0,-8.858817071E-2,1.438959122E0,9.828497887E0
2.431738912E0,-2.633702382E-2,1.458113313E0,9.806949615E0
2.443737377E0,-9.577099234E-3,1.467690468E0,9.797372818E0
2.455735808E0,-6.943397224E-2,1.472478986E0,9.725543976E0
2.467735073E0,-1.628106833E-1,1.494027495E0,9.723150253E0
2.479733538E0,-2.537931204E-1,1.489238977E0,9.723150253E0
2.491732370E0,-2.346389294E-1,1.479661822E0,9.713572502E0
2.503730835E0,-1.723877788E-1,1.465296149E0,9.802161217E0
2.515729300E0,-4.788549617E-2,1.498816013E0,9.821314812E0
2.527727765E0,-2.394274808E-3,1.482056141E0,9.766246796E0
2.539726763E0,2.873129770E-2,1.465296149E0,9.727938652E0
2.551724861E0,-1.915419847E-2,1.455719113E0,9.692024231E0
2.563723259E0,-1.005595401E-1,1.419804931E0,9.703995705E0
2.575721724E0,-3.375927508E-1,1.419804931E0,9.675264359E0
2.587720256E0,-5.554717779E-1,1.441353440E0,9.610619545E0
2.599718588E0,-5.315290093E-1,1.465296149E0,9.694418907E0
2.611716986E0,-4.166038036E-1,1.491633177E0,9.799766541E0
2.623715451E0,-2.322446555E-1,1.529941559E0,9.835680962E0
2.635714049E0,-6.703969836E-2,1.515576005E0,9.914691925E0
2.647712514E0,4.549122229E-2,1.491633177E0,9.871595383E0
2.659710179E0,7.182824612E-2,1.498816013E0,9.814132690E0
2.671709177E0,-2.394274808E-2,1.508393168E0,9.756669998E0
2.683707709E0,-1.723877788E-1,1.515576005E0,9.711178780E0
2.695706040E0,-3.351984620E-1,1.501210332E0,9.689630508E0
2.707704505E0,-4.094209969E-1,1.486844659E0,9.665687561E0
2.719703836E0,-3.974496126E-1,1.486844659E0,9.708784103E0
2.731701401E0,-2.944957912E-1,1.517970204E0,9.732727051E0
2.743699932E0,-1.388679445E-1,1.529941559E0,9.687235832E0
2.755698662E0,-5.746259540E-2,1.549095750E0,9.682447433E0
2.767697258E0,-5.027977005E-2,1.529941559E0,9.699207306E0
2.779695921E0,-5.985686928E-2,1.515576005E0,9.747093201E0
2.791695418E0,-1.412622184E-1,1.474873304E0,9.744698524E0
2.803694015E0,-2.729473412E-1,1.474873304E0,9.785401344E0
2.815693713E0,-3.830839694E-1,1.491633177E0,9.747093201E0
2.827692178E0,-3.375927508E-1,1.491633177E0,9.732727051E0
2.839691510E0,-2.537931204E-1,1.501210332E0,9.761458397E0
2.851690109E0,-8.858817071E-2,1.508393168E0,9.718361855E0
2.863688574E0,2.633702382E-2,1.501210332E0,9.773429871E0
2.875686239E0,4.070267081E-2,1.450930476E0,9.818921089E0
2.887684704E0,-7.182824612E-2,1.419804931E0,9.869200706E0
2.899682436E0,-1.699935049E-1,1.436564922E0,9.900326729E0
2.911680334E0,-3.040728867E-1,1.441353440E0,9.821314812E0
2.923678732E0,-4.189980924E-1,1.486844659E0,9.744698524E0
2.935676264E0,-3.998439014E-1,1.508393168E0,9.696812630E0
2.947674729E0,-2.418217510E-1,1.573038578E0,9.596253395E0
2.959672294E0,-1.532335877E-1,1.568249941E0,9.601041794E0
2.971670725E0,-6.225114316E-2,1.558672905E0,9.646533012E0
2.983669190E0,-4.070267081E-2,1.563461423E0,9.682447433E0
2.995667822E0,-1.388679445E-1,1.539518714E0,9.730332375E0
3.007666354E0,-2.944957912E-1,1.520364523E0,9.732727051E0
3.019664952E0,-3.399870098E-1,1.508393168E0,9.706390381E0
3.031663350E0,-3.232271075E-1,1.479661822E0,9.732727051E0
3.043661815E0,-2.825244367E-1,1.513181686E0,9.763853073E0
3.055660946E0,-1.939362586E-1,1.498816013E0,9.749486923E0
3.067659411E0,-8.379961550E-2,1.505998850E0,9.799766541E0
3.079658042E0,-4.788549617E-2,1.510787368E0,9.773429871E0
3.091656574E0,-7.182824612E-2,1.510787368E0,9.718361855E0
3.103655106E0,-1.364736706E-1,1.520364523E0,9.708784103E0
3.115653171E0,-1.436564922E-1,1.498816013E0,9.723150253E0
3.128179351E0,-1.795706153E-1,1.498816013E0,9.778218269E0
3.140177349E0,-2.130904645E-1,1.498816013E0,9.780612946E0
3.152175747E0,-1.723877788E-1,1.470084786E0,9.739910126E0
3.164173977E0,-1.316851079E-1,1.450930476E0,9.783006668E0
3.176171740E0,-7.182824612E-2,1.460507631E0,9.778218269E0
3.188170403E0,-4.070267081E-2,1.462901950E0,9.773429871E0
3.200169066E0,-5.506832153E-2,1.479661822E0,9.763853073E0
3.212167930E0,-7.182824612E-2,1.474873304E0,9.759063721E0
3.224166828E0,-1.915419847E-1,1.446141958E0,9.747093201E0
3.234166926E0,-2.250618339E-1,1.426987767E0,9.735121727E0
3.246165391E0,-1.675992310E-1,1.448536277E0,9.735121727E0
3.258164056E0,-1.053480953E-1,1.484450340E0,9.744698524E0
3.270162521E0,-9.098244458E-2,1.503604531E0,9.725543976E0
3.282160786E0,-1.580221355E-1,1.494027495E0,9.708784103E0
3.294158717E0,-2.466102988E-1,1.467690468E0,9.725543976E0
3.306157182E0,-2.418217510E-1,1.482056141E0,9.689630508E0
3.318156414E0,-2.250618339E-1,1.477267504E0,9.732727051E0
3.330154812E0,-1.604164094E-1,1.462901950E0,9.727938652E0
3.342153344E0,-8.379961550E-2,1.505998850E0,9.751881599E0
3.354151876E0,-9.577099234E-2,1.517970204E0,9.802161217E0
3.366150341E0,-1.508393139E-1,1.525153041E0,9.771035194E0
3.378147839E0,-2.250618339E-1,1.515576005E0,9.751881599E0
3.390146469E0,-2.083019018E-1,1.520364523E0,9.759063721E0
3.402145234E0,-1.699935049E-1,1.510787368E0,9.737515450E0
3.414144166E0,-1.747820675E-1,1.537124395E0,9.701601982E0
3.426143429E0,-1.652049571E-1,1.544307232E0,9.696812630E0
3.436143760E0,-2.322446555E-1,1.534730196E0,9.725543976E0
3.448142891E0,-2.202732861E-1,1.520364523E0,9.668081284E0
3.460141922E0,-1.747820675E-1,1.534730196E0,9.663292885E0
3.472140722E0,-1.125309169E-1,1.539518714E0,9.713572502E0
3.484139187E0,-6.943397224E-2,1.527547359E0,9.751881599E0
3.496137652E0,-1.005595401E-1,1.522758722E0,9.804554939E0
3.508136184E0,-1.556278616E-1,1.491633177E0,9.727938652E0
3.520134616E0,-2.083019018E-1,1.460507631E0,9.737515450E0
3.532133014E0,-2.154847383E-1,1.470084786E0,9.713572502E0
3.544131479E0,-1.652049571E-1,1.474873304E0,9.708784103E0
3.556129344E0,-9.816526622E-2,1.489238977E0,9.739910126E0
3.568127809E0,-1.388679445E-1,1.496421814E0,9.830892563E0
3.580126540E0,-1.029538140E-1,1.472478986E0,9.816526413E0
3.592124639E0,-1.125309169E-1,1.474873304E0,9.828497887E0
3.604123171E0,-1.173194647E-1,1.484450340E0,9.802161217E0
3.616122203E0,-1.149251908E-1,1.484450340E0,9.751881599E0
3.628121234E0,-1.221080124E-1,1.484450340E0,9.744698524E0
3.640119799E0,-1.149251908E-1,1.491633177E0,9.703995705E0
3.652118597E0,-1.292908341E-1,1.498816013E0,9.682447433E0
3.664117062E0,-1.675992310E-1,1.479661822E0,9.670475960E0
3.676115760E0,-1.963305324E-1,1.503604531E0,9.720755577E0
3.688113592E0,-2.274561077E-1,1.513181686E0,9.720755577E0
3.700111357E0,-2.322446555E-1,1.515576005E0,9.708784103E0
3.712109922E0,-2.130904645E-1,1.501210332E0,9.737515450E0
3.724108387E0,-1.747820675E-1,1.486844659E0,9.720755577E0
3.736107351E0,-1.316851079E-1,1.505998850E0,9.718361855E0
3.748105816E0,-7.901106775E-2,1.522758722E0,9.783006668E0
3.760104515E0,-5.985686928E-2,1.532335877E0,9.749486923E0
3.772102613E0,-1.628106833E-1,1.539518714E0,9.785401344E0
3.784101209E0,-2.609759569E-1,1.549095750E0,9.794978142E0
3.796099106E0,-3.088614643E-1,1.537124395E0,9.763853073E0
3.808097769E0,-3.136500120E-1,1.527547359E0,9.787795067E0
3.820096532E0,-2.035133541E-1,1.527547359E0,9.766246796E0
3.832096062E0,-1.484450400E-1,1.503604531E0,9.763853073E0
3.844094527E0,-5.746259540E-2,1.527547359E0,9.739910126E0
3.856092126E0,1.675992459E-2,1.508393168E0,9.641744614E0
3.868090591E0,-2.154847234E-2,1.486844659E0,9.708784103E0
3.880089389E0,-7.901106775E-2,1.472478986E0,9.665687561E0
3.892087053E0,-1.699935049E-1,1.472478986E0,9.627379417E0
3.904085518E0,-1.771763414E-1,1.484450340E0,9.718361855E0
3.916083983E0,-2.106961906E-1,1.494027495E0,9.754275322E0
3.928082515E0,-2.059076279E-1,1.515576005E0,9.830892563E0
3.940080313E0,-2.250618339E-1,1.515576005E0,9.857229233E0
3.952078778E0,-1.723877788E-1,1.465296149E0,9.833286285E0
3.964077243E0,-1.077423692E-1,1.510787368E0,9.818921089E0
3.976076641E0,-8.379961550E-2,1.496421814E0,9.809344292E0
3.988075039E0,-1.005595401E-1,1.503604531E0,9.759063721E0
4.000073771E0,-1.340793967E-1,1.494027495E0,9.744698524E0
4.012072536E0,-1.292908341E-1,1.474873304E0,9.747093201E0
4.024071068E0,-1.340793967E-1,1.501210332E0,9.725543976E0
4.036069533E0,-1.316851079E-1,1.491633177E0,9.715967178E0
4.048067931E0,-1.652049571E-1,1.501210332E0,9.672870636E0
4.060066396E0,-1.843591630E-1,1.527547359E0,9.684841156E0
4.072064428E0,-2.346389294E-1,1.534730196E0,9.629773140E0
4.084062893E0,-2.537931204E-1,1.525153041E0,9.603436470E0
4.096061458E0,-2.705530524E-1,1.532335877E0,9.675264359E0
4.108059990E0,-2.130904645E-1,1.549095750E0,9.682447433E0
4.120058455E0,-1.580221355E-1,1.527547359E0,9.751881599E0
4.132057353E0,-9.816526622E-2,1.537124395E0,9.809344292E0
4.144055751E0,-5.267404765E-2,1.556278586E0,9.854835510E0
4.156053116E0,-1.005595401E-1,1.544307232E0,9.862017632E0
4.168051581E0,-1.699935049E-1,1.529941559E0,9.799766541E0
4.180050146E0,-2.681587934E-1,1.496421814E0,9.735121727E0
4.192048809E0,-2.825244367E-1,1.479661822E0,9.727938652E0
4.204047405E0,-2.011190802E-1,1.484450340E0,9.718361855E0
4.216046569E0,-1.508393139E-1,1.532335877E0,9.725543976E0
4.228045232E0,-1.149251908E-1,1.482056141E0,9.780612946E0
4.240043862E0,-1.029538140E-1,1.479661822E0,9.775823593E0
4.252042260E0,-9.577099234E-2,1.477267504E0,9.732727051E0
4.264040792E0,-1.029538140E-1,1.498816013E0,9.742303848E0
4.276038823E0,-1.173194647E-1,1.517970204E0,9.680052757E0
4.288037288E0,-1.963305324E-1,1.505998850E0,9.701601982E0
4.300035686E0,-2.250618339E-1,1.477267504E0,9.682447433E0
4.312034151E0,-2.274561077E-1,1.508393168E0,9.713572502E0
4.324032616E0,-1.580221355E-1,1.484450340E0,9.766246796E0
4.336032914E0,-1.077423692E-1,1.510787368E0,9.821314812E0
4.348031379E0,-6.943397224E-2,1.484450340E0,9.840469360E0
4.360030011E0,-1.053480953E-1,1.472478986E0,9.809344292E0
4.372028476E0,-1.125309169E-1,1.477267504E0,9.773429871E0
4.384026941E0,-1.460507661E-1,1.494027495E0,9.696812630E0
4.396024506E0,-1.747820675E-1,1.522758722E0,9.663292885E0
4.408022904E0,-2.202732861E-1,1.532335877E0,9.694418907E0
4.420021202E0,-2.729473412E-1,1.520364523E0,9.675264359E0
4.432019800E0,-2.298503816E-1,1.484450340E0,9.672870636E0
4.444018563E0,-1.460507661E-1,1.479661822E0,9.672870636E0
4.456016826E0,-5.267404765E-2,1.496421814E0,9.706390381E0
4.468016424E0,-2.394274808E-2,1.498816013E0,9.780612946E0
4.480015855E0,-4.070267081E-2,1.503604531E0,9.840469360E0
4.492015685E0,-1.604164094E-1,1.491633177E0,9.866806030E0
4.504015448E0,-2.466102988E-1,1.484450340E0,9.866806030E0
4.514015680E0,-2.226675600E-1,1.482056141E0,9.857229233E0
4.526015144E0,-1.699935049E-1,1.482056141E0,9.823709488E0
4.538014675E0,-1.460507661E-1,1.477267504E0,9.756669998E0
4.550013673E0,-1.173194647E-1,1.477267504E0,9.687235832E0
4.562012539E0,-1.292908341E-1,1.474873304E0,9.644139290E0
4.574011505E0,-1.436564922E-1,1.505998850E0,9.617801666E0
4.586009970E0,-1.699935049E-1,1.498816013E0,9.617801666E0
4.598008702E0,-1.604164094E-1,1.498816013E0,9.677659035E0
4.610007167E0,-1.029538140E-1,1.501210332E0,9.701601982E0
4.622005399E0,-1.029538140E-1,1.503604531E0,9.756669998E0
4.634002897E0,-1.221080124E-1,1.491633177E0,9.787795067E0
4.646001362E0,-1.412622184E-1,1.484450340E0,9.754275322E0
4.657999493E0,-1.388679445E-1,1.465296149E0,9.744698524E0
4.669997958E0,-1.173194647E-1,1.477267504E0,9.732727051E0
4.681996490E0,-1.580221355E-1,1.477267504E0,9.747093201E0
4.693995988E0,-1.723877788E-1,1.467690468E0,9.778218269E0
4.705994386E0,-1.939362586E-1,1.453324795E0,9.816526413E0
4.717993151E0,-2.011190802E-1,1.436564922E0,9.888355255E0
4.729991616E0,-1.364736706E-1,1.472478986E0,9.878777504E0
4.741990314E0,-6.943397224E-2,1.501210332E0,9.826104164E0
4.753987879E0,-5.027977005E-2,1.522758722E0,9.754275322E0
4.765986344E0,-6.943397224E-2,1.561067224E0,9.687235832E0
4.777984376E0,-1.340793967E-1,1.568249941E0,9.550762177E0
4.789982841E0,-2.394274771E-1,1.582615614E0,9.517242432E0
4.801980906E0,-3.399870098E-1,1.570644259E0,9.553156853E0
4.813979204E0,-3.639297783E-1,1.534730196E0,9.593858719E0
4.825977669E0,-2.849186957E-1,1.472478986E0,9.641744614E0
4.837976334E0,-1.699935049E-1,1.479661822E0,9.739910126E0
4.849974866E0,-7.901106775E-2,1.467690468E0,9.850046158E0
4.861973664E0,-7.422251999E-2,1.477267504E0,9.905115128E0
4.873973062E0,-7.182824612E-2,1.455719113E0,9.955394745E0
4.885971527E0,-1.101366431E-1,1.470084786E0,9.967366219E0
4.897970525E0,-1.221080124E-1,1.513181686E0,9.955394745E0
4.909969121E0,-2.106961906E-1,1.529941559E0,9.871595383E0
4.921967784E0,-2.226675600E-1,1.556278586E0,9.783006668E0
4.933966881E0,-2.202732861E-1,1.541913033E0,9.687235832E0
4.945965611E0,-1.628106833E-1,1.539518714E0,9.627379417E0
4.957963508E0,-1.005595401E-1,1.541913033E0,9.596253395E0
4.969961906E0,-5.746259540E-2,1.532335877E0,9.620196342E0
4.981960738E0,-6.943397224E-2,1.489238977E0,9.660899162E0
4.993957903E0,-9.337671846E-2,1.462901950E0,9.687235832E0
5.005956368E0,-1.316851079E-1,1.443747759E0,9.735121727E0
5.017954999E0,-2.035133541E-1,1.455719113E0,9.694418907E0
5.029953531E0,-2.370332032E-1,1.462901950E0,9.658504486E0
5.041951629E0,-2.226675600E-1,1.460507631E0,9.651321411E0
5.053950094E0,-2.059076279E-1,1.491633177E0,9.624984741E0
5.065948725E0,-1.987248063E-1,1.494027495E0,9.636956215E0
5.077947190E0,-1.939362586E-1,1.479661822E0,9.708784103E0
5.089945655E0,-1.795706153E-1,1.489238977E0,9.763853073E0
5.101944187E0,-1.268965602E-1,1.513181686E0,9.792584419E0
5.113943585E0,-1.077423692E-1,1.484450340E0,9.859623909E0
5.125942583E0,-9.337671846E-2,1.453324795E0,9.857229233E0
5.137941048E0,-1.484450400E-1,1.462901950E0,9.799766541E0
5.149939513E0,-1.412622184E-1,1.479661822E0,9.938634872E0
5.161937978E0,-1.819648892E-1,1.551490068E0,9.766246796E0
5.173935476E0,-1.771763414E-1,1.520364523E0,9.826104164E0
5.185934042E0,-1.987248063E-1,1.522758722E0,9.917086601E0
5.197932574E0,-1.604164094E-1,1.520364523E0,9.845257759E0
5.209931039E0,-1.556278616E-1,1.539518714E0,9.780612946E0
5.221929437E0,-1.675992310E-1,1.517970204E0,9.715967178E0
5.233928335E0,-1.675992310E-1,1.472478986E0,9.596253395E0
5.245925933E0,-1.795706153E-1,1.465296149E0,9.529213905E0
5.257924398E0,-1.268965602E-1,1.513181686E0,9.500482559E0
5.269922863E0,-1.268965602E-1,1.520364523E0,9.550762177E0
5.281921328E0,-1.484450400E-1,1.467690468E0,9.627379417E0
5.293920260E0,-1.604164094E-1,1.438959122E0,9.718361855E0
5.305918791E0,-2.035133541E-1,1.441353440E0,9.773429871E0
5.317917454E0,-1.747820675E-1,1.434170604E0,9.835680962E0
5.329916050E0,-1.364736706E-1,1.472478986E0,9.864412308E0
5.341914713E0,-1.364736706E-1,1.491633177E0,9.866806030E0
5.353912577E0,-1.364736706E-1,1.494027495E0,9.842864037E0
5.365911174E0,-1.412622184E-1,1.489238977E0,9.818921089E0
5.377909572E0,-1.316851079E-1,1.494027495E0,9.780612946E0
5.389908037E0,-1.436564922E-1,1.477267504E0,9.761458397E0
5.401906502E0,-1.580221355E-1,1.455719113E0,9.771035194E0
5.411906534E0,-1.771763414E-1,1.458113313E0,9.737515450E0
5.423904932E0,-2.035133541E-1,1.453324795E0,9.711178780E0
5.435903464E0,-1.771763414E-1,1.477267504E0,9.715967178E0
5.447901996E0,-1.675992310E-1,1.537124395E0,9.749486923E0
5.459900461E0,-2.274561077E-1,1.539518714E0,9.775823593E0
5.471898426E0,-2.657645047E-1,1.517970204E0,9.730332375E0
5.483896891E0,-2.753416002E-1,1.498816013E0,9.689630508E0
5.495895356E0,-2.035133541E-1,1.498816013E0,9.627379417E0
5.507893821E0,-8.140534163E-2,1.501210332E0,9.620196342E0
5.519892286E0,-4.070267081E-2,1.501210332E0,9.682447433E0
5.531892050E0,-7.422251999E-2,1.477267504E0,9.751881599E0
5.543890849E0,-2.083019018E-1,1.472478986E0,9.749486923E0
5.555889847E0,-2.825244367E-1,1.443747759E0,9.799766541E0
5.567889110E0,-2.825244367E-1,1.462901950E0,9.802161217E0
5.579888306E0,-1.675992310E-1,1.455719113E0,9.802161217E0
5.591886271E0,-8.858817071E-2,1.479661822E0,9.771035194E0
5.603885269E0,-2.394274808E-2,1.491633177E0,9.737515450E0
5.615884002E0,-5.985686928E-2,1.472478986E0,9.742303848E0
5.627882400E0,-1.604164094E-1,1.450930476E0,9.751881599E0
5.639880865E0,-2.130904645E-1,1.489238977E0,9.744698524E0
5.651878697E0,-2.035133541E-1,1.477267504E0,9.794978142E0
5.663877162E0,-1.987248063E-1,1.484450340E0,9.811738014E0
5.675875427E0,-1.723877788E-1,1.482056141E0,9.806949615E0
5.687873892E0,-1.891477108E-1,1.484450340E0,9.850046158E0
5.699872390E0,-2.106961906E-1,1.479661822E0,9.828497887E0
5.711871655E0,-2.106961906E-1,1.462901950E0,9.773429871E0
5.723870120E0,-1.867534369E-1,1.424593568E0,9.689630508E0
5.735868551E0,-1.675992310E-1,1.453324795E0,9.677659035E0
5.747867016E0,-1.460507661E-1,1.477267504E0,9.632167816E0
5.759865514E0,-1.197137386E-1,1.489238977E0,9.579493523E0
5.771863879E0,-1.915419847E-1,1.510787368E0,9.634561539E0
5.783862277E0,-2.202732861E-1,1.462901950E0,9.677659035E0
5.795860909E0,-2.202732861E-1,1.458113313E0,9.778218269E0
5.807859374E0,-1.460507661E-1,1.482056141E0,9.787795067E0
5.819857839E0,-1.125309169E-1,1.498816013E0,9.809344292E0
5.831856237E0,-1.268965602E-1,1.498816013E0,9.842864037E0
5.843854702E0,-1.292908341E-1,1.496421814E0,9.811738014E0
5.855853200E0,-1.268965602E-1,1.486844659E0,9.850046158E0
5.867851732E0,-1.771763414E-1,1.515576005E0,9.835680962E0
5.879850197E0,-2.346389294E-1,1.520364523E0,9.828497887E0
5.891847662E0,-2.442160249E-1,1.465296149E0,9.790189743E0
5.903846127E0,-2.418217510E-1,1.462901950E0,9.761458397E0
5.915844592E0,-1.867534369E-1,1.491633177E0,9.737515450E0
5.927843057E0,-1.101366431E-1,1.505998850E0,9.675264359E0
5.939841653E0,-1.125309169E-1,1.482056141E0,9.632167816E0
5.951840617E0,-9.816526622E-2,1.460507631E0,9.608224869E0
5.963838880E0,-7.422251999E-2,1.436564922E0,9.596253395E0
5.975837577E0,-7.901106775E-2,1.450930476E0,9.596253395E0
5.987836173E0,-1.149251908E-1,1.460507631E0,9.684841156E0
5.999834971E0,-1.723877788E-1,1.450930476E0,9.711178780E0
6.011834569E0,-2.226675600E-1,1.453324795E0,9.790189743E0
6.023833501E0,-1.963305324E-1,1.460507631E0,9.859623909E0
6.035831966E0,-1.628106833E-1,1.491633177E0,9.869200706E0
6.047830364E0,-8.140534163E-2,1.494027495E0,9.873989105E0
6.059828495E0,-8.858817071E-2,1.474873304E0,9.850046158E0
6.071825593E0,-9.577099234E-2,1.453324795E0,9.809344292E0
6.083824058E0,-1.388679445E-1,1.458113313E0,9.773429871E0
6.095822456E0,-1.915419847E-1,1.450930476E0,9.732727051E0
6.107820988E0,-2.442160249E-1,1.515576005E0,9.668081284E0
6.119819520E0,-2.130904645E-1,1.517970204E0,9.653716087E0
6.131818885E0,-1.987248063E-1,1.541913033E0,9.675264359E0
6.143816383E0,-1.675992310E-1,1.520364523E0,9.696812630E0
6.155814848E0,-1.412622184E-1,1.517970204E0,9.723150253E0
6.167813313E0,-1.388679445E-1,1.505998850E0,9.735121727E0
6.179812045E0,-1.221080124E-1,1.494027495E0,9.725543976E0
6.191810543E0,-1.268965602E-1,1.467690468E0,9.711178780E0
6.203809841E0,-1.604164094E-1,1.479661822E0,9.730332375E0
6.215808606E0,-1.819648892E-1,1.484450340E0,9.735121727E0
6.227808271E0,-1.819648892E-1,1.455719113E0,9.761458397E0
6.239806469E0,-1.556278616E-1,1.446141958E0,9.818921089E0
6.251804200E0,-1.005595401E-1,1.474873304E0,9.854835510E0
6.263801832E0,-5.506832153E-2,1.479661822E0,9.859623909E0
6.275800530E0,-5.985686928E-2,1.465296149E0,9.797372818E0
6.287797795E0,-1.388679445E-1,1.498816013E0,9.684841156E0
6.299796160E0,-2.011190802E-1,1.470084786E0,9.641744614E0
6.311795192E0,-2.130904645E-1,1.489238977E0,9.615407944E0
6.323794557E0,-1.747820675E-1,1.496421814E0,9.636956215E0
6.335792588E0,-1.221080124E-1,1.501210332E0,9.684841156E0
6.347791251E0,-5.267404765E-2,1.484450340E0,9.711178780E0
6.359789515E0,-4.549122229E-2,1.467690468E0,9.711178780E0
6.371788512E0,-9.816526622E-2,1.484450340E0,9.706390381E0
6.383787175E0,-1.963305324E-1,1.486844659E0,9.684841156E0
6.395785705E0,-2.729473412E-1,1.470084786E0,9.718361855E0
6.407784103E0,-2.801301479E-1,1.458113313E0,9.720755577E0
6.419782368E0,-2.322446555E-1,1.477267504E0,9.756669998E0
6.431779700E0,-1.053480953E-1,1.491633177E0,9.797372818E0
6.443778232E0,-3.351984918E-2,1.501210332E0,9.888355255E0
6.455777230E0,0.000000000E0,1.522758722E0,9.881172180E0
6.467775695E0,-5.985686928E-2,1.455719113E0,9.876383781E0
6.479774927E0,-1.053480953E-1,1.441353440E0,9.871595383E0
6.491774425E0,-1.245022863E-1,1.465296149E0,9.852440834E0
6.503773390E0,-1.771763414E-1,1.460507631E0,9.857229233E0
6.515770988E0,-1.795706153E-1,1.501210332E0,9.816526413E0
6.527769520E0,-2.083019018E-1,1.494027495E0,9.768641472E0
6.539767418E0,-1.867534369E-1,1.484450340E0,9.761458397E0
6.551764650E0,-1.771763414E-1,1.482056141E0,9.699207306E0
6.563762481E0,-2.083019018E-1,1.477267504E0,9.596253395E0
6.575761445E0,-2.585816681E-1,1.486844659E0,9.454991341E0
6.587760308E0,-2.944957912E-1,1.489238977E0,9.328094482E0
6.599760072E0,-2.226675600E-1,1.484450340E0,9.256266594E0
6.611759870E0,-1.077423692E-1,1.508393168E0,9.289786339E0
6.623759734E0,2.394274808E-2,1.494027495E0,9.421471596E0
6.633760265E0,1.149251908E-1,1.470084786E0,9.569916725E0
6.645760028E0,1.723877788E-1,1.470084786E0,9.761458397E0
6.657759293E0,2.513988614E-1,1.498816013E0,1.003440571E1
6.669758657E0,2.968900800E-1,1.599375606E0,1.031214142E1
6.679758922E0,2.729473412E-1,1.642472506E0,1.040791225E1
6.691757787E0,2.322446555E-1,1.690358043E0,1.053002071E1
6.703756653E0,1.364736706E-1,1.735849261E0,1.053002071E1
6.715755618E0,2.106961906E-1,1.764580488E0,1.044622135E1
6.727754083E0,4.381522834E-1,1.757397652E0,1.016369629E1
6.739752315E0,5.937801600E-1,1.711906433E0,9.967366219E0
6.751750313E0,8.044763207E-1,1.728666425E0,9.699207306E0
6.763748778E0,9.936240315E-1,1.695146561E0,9.534002304E0
6.775746776E0,1.041509509E0,1.671203852E0,9.431048393E0
6.787745308E0,9.624984860E-1,1.604164124E0,9.387951851E0
6.799743606E0,8.308133483E-1,1.618529797E0,9.397528648E0
6.811741971E0,6.895511150E-1,1.565855742E0,9.368797302E0
6.823740436E0,5.458946824E-1,1.520364523E0,9.399923325E0
6.835739334E0,5.626545548E-1,1.450930476E0,9.380768776E0
6.847737732E0,7.278595567E-1,1.424593568E0,9.356825829E0
6.859735597E0,8.619389534E-1,1.424593568E0,9.423865318E0
6.871734129E0,9.577099085E-1,1.369525194E0,9.459779739E0
6.883732594E0,9.768640995E-1,1.292908430E0,9.538790703E0
6.895731059E0,8.810931444E-1,1.261782765E0,9.718361855E0
6.907729457E0,8.188419938E-1,1.218685865E0,9.938634872E0
6.919728855E0,7.637736797E-1,1.211503029E0,1.009905148E1
6.931727053E0,6.967339516E-1,1.242628574E0,1.026665020E1
6.943725585E0,7.110996246E-1,1.266571403E0,1.032650757E1
6.955723883E0,6.943396926E-1,1.300091267E0,1.027622795E1
6.967722348E0,6.512427330E-1,1.295302629E0,1.016369629E1
6.979720246E0,6.177229285E-1,1.309668303E0,1.007750225E1
6.991718978E0,5.865973234E-1,1.328822494E0,1.002482891E1
7.003717376E0,5.051919818E-1,1.352765322E0,9.873989105E0
7.015716408E0,4.525179267E-1,1.362342358E0,9.658504486E0
7.027714940E0,4.573064744E-1,1.367130876E0,9.411893845E0
7.039714405E0,4.405465722E-1,1.362342358E0,9.318517685E0
7.051712670E0,4.333637357E-1,1.355159521E0,9.186832428E0
7.063711266E0,4.070267081E-1,1.383890867E0,9.124581337E0
7.075709463E0,4.046324492E-1,1.398256540E0,9.320911407E0
7.087708126E0,2.370332032E-1,1.407833576E0,9.624984741E0
7.099706423E0,1.221080124E-1,1.374313712E0,9.771035194E0
7.111705219E0,2.154847234E-2,1.359948039E0,9.948211670E0
7.123703751E0,2.154847234E-2,1.352765322E0,9.984126091E0
7.135702216E0,1.819648892E-1,1.352765322E0,9.967366219E0
7.147700681E0,4.070267081E-1,1.319245458E0,9.890748978E0
7.159698146E0,4.644893110E-1,1.295302629E0,9.830892563E0
7.171696244E0,4.908263385E-1,1.268965602E0,9.799766541E0
7.183694709E0,4.118152559E-1,1.271359921E0,9.771035194E0
7.195693607E0,3.160442710E-1,1.264177084E0,9.792584419E0
7.207692072E0,2.083019018E-1,1.252205729E0,9.830892563E0
7.219691370E0,1.364736706E-1,1.247417212E0,9.864412308E0
7.231689769E0,1.268965602E-1,1.235445857E0,9.885960579E0
7.243688234E0,1.388679445E-1,1.218685865E0,9.830892563E0
7.255686332E0,1.604164094E-1,1.211503029E0,9.799766541E0
7.267684730E0,1.675992310E-1,1.201925993E0,9.739910126E0
7.279682862E0,1.628106833E-1,1.192348838E0,9.675264359E0
7.291682727E0,1.197137386E-1,1.187560320E0,9.634561539E0
7.303681192E0,2.394274808E-2,1.259388566E0,9.557945251E0
7.315679823E0,-2.873129770E-2,1.245022893E0,9.440625191E0
7.327678288E0,-1.364736706E-1,1.204320192E0,9.548367500E0
7.339676253E0,-1.987248063E-1,1.204320192E0,9.613013268E0
7.351673818E0,-1.843591630E-1,1.213897347E0,9.677659035E0
7.363672283E0,-1.460507661E-1,1.240234375E0,9.730332375E0
7.375670515E0,-5.027977005E-2,1.218685865E0,9.768641472E0
7.387668980E0,6.464541703E-2,1.249811411E0,9.792584419E0
7.399668378E0,1.340793967E-1,1.297696948E0,9.823709488E0
7.411666843E0,1.771763414E-1,1.280937076E0,9.878777504E0
7.423665241E0,1.005595401E-1,1.297696948E0,9.881172180E0
7.435663706E0,1.197137404E-2,1.292908430E0,9.902720451E0
7.447662238E0,0.000000000E0,1.247417212E0,9.953000069E0
7.459660469E0,5.027977005E-2,1.216291547E0,9.981731415E0
7.471659532E0,1.891477108E-1,1.276148438E0,9.998491287E0
7.483657995E0,3.399870098E-1,1.448536277E0,9.933846474E0
7.495656658E0,3.591412306E-1,1.491633177E0,9.878777504E0
7.507655321E0,1.987248063E-1,1.359948039E0,9.869200706E0
7.519654218E0,1.221080124E-1,1.295302629E0,9.842864037E0
7.531652216E0,3.112557158E-2,1.295302629E0,9.696812630E0
7.543650948E0,-8.140534163E-2,1.347976685E0,9.493299484E0
7.555649213E0,-1.939362586E-1,1.350371003E0,9.234718323E0
7.567647678E0,-2.346389294E-1,1.221080184E0,9.079090118E0
7.579646076E0,-1.173194647E-1,1.209108829E0,9.071907043E0
7.591644874E0,1.125309169E-1,1.245022893E0,9.227535248E0
7.603643339E0,3.447755575E-1,1.297696948E0,9.347249031E0
7.615642071E0,4.309694767E-1,1.290514112E0,9.548367500E0
7.627640469E0,2.561874092E-1,1.254600048E0,9.811738014E0
7.639638934E0,1.436564922E-1,1.211503029E0,9.936240196E0
7.651636899E0,2.873129770E-2,1.216291547E0,1.009186840E1
7.663635397E0,-1.675992459E-2,1.221080184E0,1.020439911E1
7.675633993E0,-4.788549617E-2,1.254600048E0,1.019721603E1
7.687632826E0,-1.412622184E-1,1.261782765E0,1.010383987E1
7.699631023E0,-2.346389294E-1,1.189954638E0,1.023073673E1
7.711630520E0,-2.992843390E-1,1.098972082E0,1.058508873E1
7.723629750E0,-3.016786277E-1,1.046298146E0,1.063057995E1
7.735628748E0,-2.729473412E-1,1.063058019E0,1.041988373E1
7.747627647E0,-2.968900800E-1,1.094183564E0,9.979337692E0
7.759626279E0,-3.088614643E-1,1.098972082E0,9.658504486E0
7.771624744E0,-3.232271075E-1,1.180377483E0,9.294574738E0
7.783623142E0,-3.615354896E-1,1.252205729E0,9.186832428E0
7.795621674E0,-3.639297783E-1,1.300091267E0,9.428654671E0
7.807620139E0,-3.806896806E-1,1.314456820E0,9.730332375E0
7.819619204E0,-3.136500120E-1,1.261782765E0,9.941028595E0
7.831617602E0,-1.867534369E-1,1.223474383E0,1.022115898E1
7.843616067E0,1.915419847E-2,1.242628574E0,1.032411289E1
7.855614199E0,1.412622184E-1,1.312062621E0,1.021637058E1
7.867612731E0,1.412622184E-1,1.419804931E0,9.972154617E0
7.879610629E0,1.604164094E-1,1.474873304E0,9.804554939E0
7.891609027E0,2.059076279E-1,1.599375606E0,9.632167816E0
7.903607492E0,2.322446555E-1,1.781340480E0,9.665687561E0
7.915606290E0,1.915419847E-1,1.903448462E0,9.732727051E0
7.927604755E0,4.788549617E-2,1.908236980E0,1.000327969E1
7.939604320E0,1.197137404E-2,1.898659945E0,1.020918751E1
7.951602852E0,3.830839694E-2,1.860351562E0,1.040073013E1
7.963601384E0,2.226675600E-1,1.865140080E0,1.053720379E1
7.975599849E0,3.711125851E-1,1.841197371E0,1.055635738E1
7.987598247E0,4.836435020E-1,1.814860344E0,1.032890129E1
7.999597079E0,4.477293789E-1,1.766974807E0,1.010862827E1
8.011595544E0,3.136500120E-1,1.702329397E0,9.876383781E0
8.023594009E0,1.795706153E-1,1.625712633E0,9.632167816E0
8.035592474E0,1.580221355E-1,1.534730196E0,9.368797302E0
8.047590939E0,2.178790122E-1,1.436564922E0,9.277814865E0
8.059588537E0,2.657645047E-1,1.388679385E0,9.268238068E0
8.071588135E0,3.256213665E-1,1.381496549E0,9.239506721E0
8.083586600E0,2.633702159E-1,1.331216812E0,9.296969414E0
8.095585630E0,8.140534163E-2,1.261782765E0,9.337671280E0
8.107584293E0,-5.027977005E-2,1.223474383E0,9.368797302E0
8.119583790E0,-6.943397224E-2,1.240234375E0,9.378374100E0
8.131581953E0,-9.098244458E-2,1.297696948E0,9.316123009E0
8.143580549E0,-1.245022863E-1,1.304879785E0,9.251478195E0
8.155578581E0,-1.556278616E-1,1.264177084E0,9.136552811E0
8.167577046E0,-1.197137386E-1,1.235445857E0,9.024022102E0
8.179575011E0,-2.154847234E-2,1.283331275E0,8.983319283E0
8.191574209E0,1.556278616E-1,1.391073704E0,9.024022102E0
8.203572674E0,2.130904645E-1,1.412622094E0,9.170072556E0
8.215571573E0,1.245022863E-1,1.343188167E0,9.443019867E0
8.227570038E0,-7.661679387E-2,1.331216812E0,9.850046158E0
8.239568803E0,-2.226675600E-1,1.343188167E0,1.003201103E1
8.251565701E0,-3.232271075E-1,1.300091267E0,1.018763924E1
8.263564166E0,-3.399870098E-1,1.288119793E0,1.033368969E1
8.275561831E0,-2.561874092E-1,1.364736676E0,1.036721039E1
8.287560363E0,-1.604164094E-1,1.324033976E0,1.027143860E1
8.299558461E0,-1.436564922E-1,1.328822494E0,1.021876526E1
8.311556659E0,-1.460507661E-1,1.412622094E0,1.005356026E1
8.323555124E0,-1.628106833E-1,1.470084786E0,9.945817947E0
8.335553589E0,-2.154847383E-1,1.556278586E0,1.002722263E1
8.347551987E0,-3.782954216E-1,1.616135478E0,9.998491287E0
8.359549519E0,-4.716721475E-1,1.589798450E0,9.945817947E0
8.371549084E0,-6.273000240E-1,1.563461423E0,9.811738014E0
8.383547549E0,-6.656084061E-1,1.553884387E0,9.615407944E0
8.395546447E0,-6.799740195E-1,1.563461423E0,9.320911407E0
8.407544845E0,-6.201171875E-1,1.589798450E0,9.000079155E0
8.419544410E0,-5.865973234E-1,1.599375606E0,8.861210823E0
8.431542242E0,-5.339232683E-1,1.611346960E0,8.746285439E0
8.443540774E0,-5.698373914E-1,1.690358043E0,8.777411461E0
8.455538772E0,-6.081457734E-1,1.695146561E0,9.028810501E0
8.467537304E0,-6.991282701E-1,1.671203852E0,9.375980377E0
8.479536769E0,-6.943396926E-1,1.623318315E0,9.682447433E0
8.491534834E0,-5.842030644E-1,1.604164124E0,1.000567436E1
8.503533430E0,-4.405465722E-1,1.596981287E0,1.029298782E1
8.515532060E0,-2.705530524E-1,1.577827096E0,1.041988373E1
8.527530723E0,-1.268965602E-1,1.666415215E0,1.042706680E1
8.539528153E0,-8.379961550E-2,1.709512234E0,1.035044956E1
8.551527216E0,-7.182824612E-2,1.805283189E0,1.020679379E1
8.563525614E0,-1.388679445E-1,1.874717116E0,1.013975334E1
8.575524812E0,-1.652049571E-1,1.913025618E0,1.011581135E1
8.587523277E0,-1.771763414E-1,1.936968327E0,1.007750225E1
8.599521009E0,-1.556278616E-1,1.989642382E0,1.007989693E1
8.611518974E0,-6.703969836E-2,2.015979290E0,1.014454269E1
8.623517506E0,6.703969836E-2,2.030344963E0,1.013257122E1
8.635515238E0,2.298503816E-1,1.953728199E0,1.014454269E1
8.647513703E0,4.381522834E-1,1.972882390E0,1.009905148E1
8.659512901E0,5.051919818E-1,2.008796453E0,1.001046276E1
8.671511766E0,5.099805593E-1,2.001613855E0,9.926663399E0
8.683510231E0,4.309694767E-1,1.913025618E0,9.912297249E0
8.695509196E0,3.328042030E-1,1.860351562E0,9.883566856E0
8.707508494E0,3.208328187E-1,1.862745762E0,9.893143654E0
8.719507391E0,3.088614643E-1,1.836408734E0,9.854835510E0
8.731506488E0,2.849186957E-1,1.829225898E0,9.730332375E0
8.743505885E0,2.585816681E-1,1.836408734E0,9.636956215E0
8.755505250E0,2.561874092E-1,1.881899953E0,9.603436470E0
8.767504213E0,2.490045726E-1,1.884294271E0,9.644139290E0
8.779502909E0,2.370332032E-1,1.889082789E0,9.706390381E0
8.791502507E0,1.316851079E-1,1.798100352E0,9.854835510E0
8.803501907E0,7.422251999E-2,1.728666425E0,9.921875000E0
8.815501607E0,7.182824425E-3,1.666415215E0,9.811738014E0
8.827500870E0,-5.027977005E-2,1.630501151E0,9.560338974E0
8.837501102E0,-1.005595401E-1,1.635289669E0,9.392740250E0
8.849500133E0,-8.858817071E-2,1.635289669E0,8.961771011E0
8.861498933E0,-4.788549617E-2,1.637683988E0,8.693612099E0
8.873497465E0,-2.873129770E-2,1.611346960E0,8.504464149E0
8.885495997E0,-2.154847234E-2,1.616135478E0,8.418270111E0
8.897494462E0,9.577099234E-3,1.628106833E0,8.461367607E0
8.909492860E0,6.943397224E-2,1.664021015E0,8.684034348E0
8.921491325E0,1.197137386E-1,1.733454943E0,8.889942169E0
8.933489790E0,1.412622184E-1,1.788523316E0,9.179649353E0
8.945488255E0,8.858817071E-2,1.783734679E0,9.435836792E0
8.957485787E0,-9.577099234E-3,1.771763325E0,9.553156853E0
8.969484252E0,-1.628106833E-1,1.764580488E0,9.579493523E0
8.981483084E0,-2.705530524E-1,1.762186289E0,9.538790703E0
8.993481549E0,-4.046324492E-1,1.747820616E0,9.462174416E0
9.005480014E0,-5.363175869E-1,1.747820616E0,9.457385063E0
9.017479345E0,-6.129343510E-1,1.695146561E0,9.550762177E0
9.029477810E0,-6.273000240E-1,1.649655342E0,9.771035194E0
9.041475975E0,-5.554717779E-1,1.611346960E0,1.011581135E1
9.053474106E0,-4.692778587E-1,1.642472506E0,1.048931789E1
9.065472504E0,-4.189980924E-1,1.697540879E0,1.074311066E1
9.077470936E0,-4.884320498E-1,1.716695070E0,1.089155579E1
9.089469401E0,-5.770202279E-1,1.678386688E0,1.087719059E1
9.101468199E0,-6.057515144E-1,1.675992370E0,1.079817963E1
9.113467364E0,-5.865973234E-1,1.738243461E0,1.059706020E1
9.125465829E0,-5.650488734E-1,1.757397652E0,1.028341007E1
9.137463460E0,-5.027977228E-1,1.802888989E0,9.921875000E0
9.149462424E0,-4.477293789E-1,1.901054144E0,9.541185379E0
9.161460754E0,-3.759011328E-1,1.946545362E0,9.270631790E0
9.173459184E0,-3.184385598E-1,2.008796453E0,9.172467232E0
9.185457847E0,-2.418217510E-1,2.066259146E0,9.205986977E0
9.197457444E0,-2.178790122E-1,2.090201855E0,9.251478195E0
9.209455675E0,-2.537931204E-1,2.073441982E0,9.409500122E0
9.221453273E0,-2.609759569E-1,2.075836182E0,9.560338974E0
9.233451072E0,-1.675992310E-1,2.157241583E0,9.639349937E0
9.245449537E0,-6.703969836E-2,2.272166729E0,9.641744614E0
9.257446702E0,-3.351984918E-2,2.339206457E0,9.545973778E0
9.269445100E0,-1.436564885E-2,2.353572130E0,9.443019867E0
9.281444298E0,4.788549617E-2,2.343995094E0,9.409500122E0
9.293443263E0,1.197137386E-1,2.305686712E0,9.383162498E0
9.305441728E0,3.375927508E-1,2.243435383E0,9.366402626E0
9.317440559E0,5.961744189E-1,2.183578730E0,9.483722687E0
9.329438524E0,8.044763207E-1,2.128510237E0,9.610619545E0
9.341436622E0,9.194015265E-1,2.061470509E0,9.682447433E0
9.353435053E0,9.050358534E-1,2.008796453E0,9.751881599E0
9.365433585E0,8.092648983E-1,2.001613855E0,9.830892563E0
9.377433116E0,6.799740195E-1,2.059076309E0,9.840469360E0
9.389432081E0,6.105400920E-1,2.078230619E0,9.902720451E0
9.401430679E0,6.081457734E-1,2.073441982E0,9.953000069E0
9.413428310E0,6.368771195E-1,2.061470509E0,1.002482891E1
9.425426708E0,5.770202279E-1,2.068653345E0,9.902720451E0
9.437425173E0,5.147690773E-1,2.044710636E0,9.818921089E0
9.449423638E0,4.788549542E-1,1.975276709E0,9.792584419E0
9.461422337E0,4.692778587E-1,1.905842781E0,9.756669998E0
9.473421702E0,4.836435020E-1,1.822043180E0,9.656110764E0
9.485420100E0,4.860377908E-1,1.759791970E0,9.651321411E0
9.497417732E0,5.171633363E-1,1.723877907E0,9.620196342E0
9.509416197E0,5.578660369E-1,1.683175206E0,9.579493523E0
9.521414795E0,5.578660369E-1,1.640078187E0,9.569916725E0
9.533413193E0,5.075862408E-1,1.541913033E0,9.524425507E0
9.545411725E0,5.051919818E-1,1.484450340E0,9.581888199E0
9.557410055E0,5.458946824E-1,1.503604531E0,9.579493523E0
9.569408718E0,4.549122155E-1,1.510787368E0,9.567522049E0
9.581407314E0,3.735068738E-1,1.458113313E0,9.474145889E0
9.593405977E0,3.423812985E-1,1.436564922E0,9.445414543E0
9.605404640E0,3.304099143E-1,1.434170604E0,9.490905762E0
9.617404038E0,2.801301479E-1,1.446141958E0,9.541185379E0
9.629402503E0,2.849186957E-1,1.393467903E0,9.567522049E0
9.641400968E0,2.346389294E-1,1.312062621E0,9.703995705E0
9.653399266E0,1.484450400E-1,1.283331275E0,9.794978142E0
9.665397731E0,9.098244458E-2,1.285725594E0,9.835680962E0
9.677396129E0,4.309694469E-2,1.321639657E0,9.850046158E0
9.689394527E0,-3.112557158E-2,1.369525194E0,9.689630508E0
9.701393325E0,-8.379961550E-2,1.319245458E0,9.505270958E0
9.713392024E0,-1.915419847E-1,1.285725594E0,9.378374100E0
9.725390489E0,-2.226675600E-1,1.307274103E0,9.299363136E0
9.737388587E0,-2.657645047E-1,1.328822494E0,9.249083519E0
9.749387052E0,-3.567469418E-1,1.297696948E0,9.375980377E0
9.761385184E0,-4.501236677E-1,1.324033976E0,9.507665634E0
9.773383649E0,-4.956148863E-1,1.357553840E0,9.636956215E0
9.785382114E0,-5.387118459E-1,1.324033976E0,9.780612946E0
9.797381046E0,-5.961744189E-1,1.326428294E0,9.893143654E0
9.809379643E0,-6.033572555E-1,1.405439258E0,1.001764584E1
9.821378506E0,-6.680026650E-1,1.496421814E0,1.003201103E1
9.833377769E0,-7.206767201E-1,1.537124395E0,9.984126091E0
9.845377367E0,-8.236305118E-1,1.575432777E0,9.878777504E0
9.857376197E0,-9.313728809E-1,1.529941559E0,9.747093201E0
9.869376061E0,-9.624984860E-1,1.498816013E0,9.426259995E0
9.881375358E0,-9.241901040E-1,1.630501151E0,9.311334610E0
9.893374956E0,-8.547561169E-1,1.752609134E0,9.256266594E0
9.905374219E0,-6.608198285E-1,1.814860344E0,9.251478195E0
9.915374484E0,-5.482889414E-1,1.843591571E0,9.414288521E0
9.927373515E0,-3.567469418E-1,1.723877907E0,9.739910126E0
9.939372848E0,-2.992843390E-1,1.649655342E0,1.000806904E1
9.951371380E0,-2.753416002E-1,1.589798450E0,1.018763924E1
9.963369912E0,-3.208328187E-1,1.563461423E0,1.007271385E1
9.975368344E0,-3.950553536E-1,1.664021015E0,9.857229233E0
9.987366742E0,-6.656084061E-1,1.788523316E0,9.579493523E0
9.999364707E0,-7.829278708E-1,1.903448462E0,9.488511086E0
1.001136350E1,-9.553156495E-1,1.994430900E0,9.478934288E0
1.002336197E1,-1.075029373E0,1.884294271E0,9.713572502E0
1.003536090E1,-9.936240315E-1,1.719089270E0,1.000567436E1
1.004735937E1,-7.134938836E-1,1.654443860E0,1.037199879E1
1.005935873E1,-4.022381604E-1,1.683175206E0,1.053720379E1
1.007135656E1,-5.746259540E-2,1.812466025E0,1.062339687E1
1.008335503E1,9.098244458E-2,1.908236980E0,1.053241444E1
1.009535299E1,6.464541703E-2,1.829225898E0,1.041509533E1
1.010735146E1,-6.943397224E-2,1.788523316E0,1.026186180E1
1.011934949E1,-2.250618339E-1,1.829225898E0,1.007750225E1
1.013134789E1,-4.549122155E-1,1.929785490E0,9.960183144E0
1.014334629E1,-6.440598965E-1,1.932179809E0,9.873989105E0
1.015534502E1,-7.087053657E-1,1.936968327E0,9.838075638E0
1.016734348E1,-6.703969240E-1,1.826831698E0,9.754275322E0
1.017934311E1,-7.039167881E-1,1.817254543E0,9.703995705E0
1.019134234E1,-7.518022656E-1,1.740637779E0,9.601041794E0
1.020334081E1,-8.523618579E-1,1.644866824E0,9.459779739E0
1.021533954E1,-9.385557175E-1,1.520364523E0,9.359220505E0
1.022733801E1,-1.000806928E0,1.450930476E0,9.215563774E0
1.023933514E1,-1.019961119E0,1.431776285E0,9.112609863E0
1.025133297E1,-9.648927450E-1,1.371919513E0,9.002472878E0
1.026333143E1,-9.122186899E-1,1.340793848E0,8.973741531E0
1.027532916E1,-8.356019258E-1,1.362342358E0,9.062330246E0
1.028732713E1,-7.853221297E-1,1.431776285E0,9.122186661E0
1.029932589E1,-7.685621977E-1,1.477267504E0,9.246688843E0
1.031132496E1,-7.494080067E-1,1.529941559E0,9.536396980E0
1.032332362E1,-7.805336118E-1,1.635289669E0,9.720755577E0
1.033532255E1,-8.882759809E-1,1.733454943E0,9.881172180E0
1.034732172E1,-1.055875182E0,1.836408734E0,1.005116558E1
1.035932018E1,-1.087000728E0,1.903448462E0,1.014454269E1
1.037131848E1,-1.142069101E0,1.929785490E0,1.027383327E1
1.038331701E1,-1.142069101E0,1.939362645E0,1.032890129E1
1.039531454E1,-1.079817891E0,1.965699673E0,1.034566116E1
1.040731294E1,-1.017566800E0,1.989642382E0,1.032411289E1
1.041931140E1,-9.648927450E-1,1.989642382E0,1.023073673E1
1.043130987E1,-9.265843630E-1,1.965699673E0,1.006553173E1
1.044330834E1,-8.810931444E-1,1.960911036E0,9.893143654E0
1.045530680E1,-7.781392932E-1,1.987248063E0,9.668081284E0
1.046730533E1,-7.206767201E-1,1.999219418E0,9.402317047E0
1.047930380E1,-6.871568561E-1,1.972882390E0,9.320911407E0
1.049130226E1,-6.943396926E-1,1.901054144E0,9.239506721E0
1.050330066E1,-7.254652381E-1,1.812466025E0,9.205986977E0
1.051529999E1,-7.254652381E-1,1.762186289E0,9.270631790E0
1.052729846E1,-6.488484740E-1,1.750214934E0,9.414288521E0
1.053929699E1,-5.889915824E-1,1.759791970E0,9.529213905E0
1.055129545E1,-5.722316504E-1,1.783734679E0,9.620196342E0
1.056329392E1,-5.913859010E-1,1.788523316E0,9.749486923E0
1.057529145E1,-5.937801600E-1,1.793311834E0,9.842864037E0
1.058728992E1,-6.536370516E-1,1.788523316E0,9.869200706E0
1.059928835E1,-6.847625971E-1,1.798100352E0,9.890748978E0
1.061128675E1,-6.823683381E-1,1.822043180E0,9.921875000E0
1.062328521E1,-7.518022656E-1,1.848380208E0,1.001046276E1
1.063528468E1,-8.044763207E-1,1.872322917E0,1.007750225E1
1.064728314E1,-7.565908432E-1,1.805283189E0,1.015651417E1
1.065928144E1,-7.398309112E-1,1.807677507E0,1.014693642E1
1.067127990E1,-6.895511150E-1,1.810071707E0,1.002004051E1
1.068327847E1,-6.464542150E-1,1.822043180E0,9.909903526E0
1.069527686E1,-6.727912426E-1,1.783734679E0,9.828497887E0
1.070727460E1,-8.020820618E-1,1.788523316E0,9.744698524E0
1.071927339E1,-8.403904438E-1,1.807677507E0,9.706390381E0
1.073127206E1,-8.571503758E-1,1.836408734E0,9.711178780E0
1.074327062E1,-8.786988258E-1,1.819648862E0,9.696812630E0
1.075526925E1,-8.595446348E-1,1.786128998E0,9.644139290E0
1.076526932E1,-8.882759809E-1,1.738243461E0,9.601041794E0
1.077726778E1,-8.643332124E-1,1.683175206E0,9.488511086E0
1.078926631E1,-7.637736797E-1,1.644866824E0,9.416683197E0
1.080126478E1,-6.895511150E-1,1.613741279E0,9.469356537E0
1.081326334E1,-5.722316504E-1,1.573038578E0,9.577098846E0
1.082526134E1,-5.291347504E-1,1.491633177E0,9.636956215E0
1.083725981E1,-5.147690773E-1,1.470084786E0,9.742303848E0
1.084925827E1,-5.506832004E-1,1.525153041E0,9.828497887E0
1.086125667E1,-6.081457734E-1,1.558672905E0,9.895537376E0
1.087325513E1,-6.727912426E-1,1.573038578E0,9.964971542E0
1.088525367E1,-6.703969240E-1,1.599375606E0,9.984126091E0
1.089725216E1,-5.674431324E-1,1.592192769E0,9.936240196E0
1.090925076E1,-4.884320498E-1,1.565855742E0,9.847652435E0
1.092124919E1,-4.142095447E-1,1.520364523E0,9.773429871E0
1.093324902E1,-2.873129845E-1,1.477267504E0,9.696812630E0
1.094524829E1,-1.915419847E-1,1.422199249E0,9.670475960E0
1.095724738E1,-1.125309169E-1,1.367130876E0,9.620196342E0
1.096924645E1,-1.675992310E-1,1.314456820E0,9.629773140E0
1.098124581E1,-2.274561077E-1,1.316851139E0,9.641744614E0
1.099324371E1,-2.585816681E-1,1.355159521E0,9.663292885E0
1.100524218E1,-2.106961906E-1,1.350371003E0,9.701601982E0
1.101724071E1,-1.891477108E-1,1.364736676E0,9.708784103E0
1.102924014E1,-1.245022863E-1,1.374313712E0,9.720755577E0
1.104123861E1,-6.225114316E-2,1.405439258E0,9.756669998E0
1.105323620E1,-9.577099234E-3,1.462901950E0,9.742303848E0
1.106523460E1,-1.197137404E-2,1.474873304E0,9.735121727E0
1.107723393E1,-4.070267081E-2,1.498816013E0,9.737515450E0
1.108923143E1,-5.027977005E-2,1.453324795E0,9.665687561E0
1.110122990E1,-2.154847234E-2,1.491633177E0,9.610619545E0
1.111322830E1,-2.394274808E-3,1.467690468E0,9.577098846E0
1.112522676E1,-1.197137404E-2,1.517970204E0,9.495694160E0
1.113722443E1,-1.029538140E-1,1.594586968E0,9.466962814E0
1.114922289E1,-1.939362586E-1,1.494027495E0,9.517242432E0
1.116122136E1,-1.484450400E-1,1.415016413E0,9.577098846E0
1.117322069E1,-2.873129770E-2,1.410227895E0,9.639349937E0
1.118521915E1,1.316851079E-1,1.616135478E0,9.660899162E0
1.119721762E1,1.628106833E-1,1.891477108E0,9.608224869E0
1.120921615E1,-4.070267081E-2,1.987248063E0,9.538790703E0
1.122121455E1,-2.274561077E-1,1.786128998E0,9.598648071E0
1.123321308E1,-2.657645047E-1,1.625712633E0,9.864412308E0
1.124521154E1,-7.422251999E-2,1.608952641E0,1.011581135E1
1.125720998E1,1.675992310E-1,1.709512234E0,1.019482231E1
1.126920837E1,3.591412306E-1,1.673598051E0,1.016130257E1
1.128120684E1,4.309694767E-1,1.589798450E0,1.000327969E1
1.129320474E1,5.195576549E-1,1.477267504E0,9.909903526E0
1.130520330E1,5.435003638E-1,1.472478986E0,9.909903526E0
1.131720157E1,5.578660369E-1,1.498816013E0,9.797372818E0
1.132920016E1,5.506832004E-1,1.546701550E0,9.634561539E0
1.134119876E1,5.099805593E-1,1.585009933E0,9.541185379E0
1.135319706E1,4.525179267E-1,1.573038578E0,9.500482559E0
1.136519569E1,4.453351200E-1,1.582615614E0,9.557945251E0
1.137719458E1,4.357580245E-1,1.558672905E0,9.622590065E0
1.138919312E1,5.147690773E-1,1.522758722E0,9.680052757E0
1.140119165E1,5.698373914E-1,1.486844659E0,9.850046158E0
1.141319104E1,6.057515144E-1,1.510787368E0,9.986519814E0
1.142518944E1,5.578660369E-1,1.508393168E0,1.002004051E1
1.143718784E1,5.291347504E-1,1.517970204E0,1.003680038E1
1.144918714E1,4.333637357E-1,1.515576005E0,9.986519814E0
1.146118567E1,3.735068738E-1,1.520364523E0,9.950606346E0
1.147318424E1,3.423812985E-1,1.491633177E0,9.814132690E0
1.148518270E1,2.944957912E-1,1.494027495E0,9.610619545E0
1.149718153E1,3.136500120E-1,1.501210332E0,9.445414543E0
1.150917916E1,3.064671755E-1,1.520364523E0,9.306546211E0
1.152117763E1,2.705530524E-1,1.522758722E0,9.246688843E0
1.153317593E1,1.771763414E-1,1.436564922E0,9.323306084E0
1.154517439E1,1.245022863E-1,1.386285067E0,9.452596664E0
1.155717256E1,1.867534369E-1,1.369525194E0,9.603436470E0
1.156917102E1,2.585816681E-1,1.460507631E0,9.730332375E0
1.158116942E1,2.609759569E-1,1.508393168E0,9.754275322E0
1.159316842E1,2.394274771E-1,1.513181686E0,9.766246796E0
1.160516688E1,2.561874092E-1,1.532335877E0,9.713572502E0
1.161716535E1,3.351984620E-1,1.546701550E0,9.636956215E0
1.162916381E1,4.118152559E-1,1.482056141E0,9.565128326E0
1.164116228E1,4.692778587E-1,1.482056141E0,9.529213905E0
1.165315928E1,5.554717779E-1,1.541913033E0,9.589070320E0
1.166515774E1,5.602602959E-1,1.575432777E0,9.727938652E0
1.167715621E1,4.764606953E-1,1.561067224E0,9.881172180E0
1.168915460E1,3.926610649E-1,1.508393168E0,1.001046276E1
1.170115307E1,3.806896806E-1,1.491633177E0,1.001525116E1
1.171315273E1,3.759011328E-1,1.501210332E0,9.981731415E0
1.172515146E1,3.974496126E-1,1.508393168E0,9.883566856E0
1.173715006E1,4.046324492E-1,1.510787368E0,9.663292885E0
1.174914872E1,4.429408312E-1,1.441353440E0,9.490905762E0
1.176114779E1,4.668835998E-1,1.429382086E0,9.440625191E0
1.177314735E1,4.453351200E-1,1.434170604E0,9.380768776E0
1.178514575E1,4.429408312E-1,1.472478986E0,9.428654671E0
1.179714421E1,4.022381604E-1,1.565855742E0,9.474145889E0
1.180914274E1,2.729473412E-1,1.575432777E0,9.481328011E0
1.182114081E1,2.202732861E-1,1.582615614E0,9.543579102E0
1.183313724E1,2.083019018E-1,1.589798450E0,9.634561539E0
1.184513564E1,2.466102988E-1,1.685569525E0,9.756669998E0
1.185713410E1,2.370332032E-1,1.659232497E0,9.737515450E0
1.186913214E1,2.083019018E-1,1.522758722E0,9.696812630E0
1.188113067E1,1.628106833E-1,1.453324795E0,9.687235832E0
1.189313000E1,2.059076279E-1,1.467690468E0,9.557945251E0
1.190512846E1,2.274561077E-1,1.608952641E0,9.325700760E0
1.191712693E1,1.987248063E-1,1.652049661E0,9.196409225E0
1.192912583E1,1.628106833E-1,1.632895470E0,9.246688843E0
1.194112423E1,1.101366431E-1,1.644866824E0,9.502876282E0
1.195312192E1,8.379961550E-2,1.599375606E0,9.823709488E0
1.196512095E1,8.619388938E-2,1.510787368E0,1.024270725E1
1.197712035E1,9.816526622E-2,1.438959122E0,1.065931129E1
1.198912002E1,1.460507661E-1,1.362342358E0,1.079578495E1
1.200111981E1,2.106961906E-1,1.333611012E0,1.082212257E1
1.201112031E1,2.298503816E-1,1.331216812E0,1.069522572E1
1.202312004E1,2.681587934E-1,1.336005330E0,1.042227840E1
1.203511964E1,3.184385598E-1,1.347976685E0,1.009186840E1
1.204711890E1,3.687183261E-1,1.304879785E0,9.660899162E0
1.205911807E1,4.118152559E-1,1.285725594E0,9.404711723E0
1.207111720E1,4.764606953E-1,1.309668303E0,9.275420189E0
1.208311600E1,5.267404318E-1,1.336005330E0,9.237112045E0
1.209511439E1,5.387118459E-1,1.307274103E0,9.337671280E0
1.210711286E1,4.812492430E-1,1.237840056E0,9.617801666E0
1.211911132E1,5.123748183E-1,1.177983165E0,9.840469360E0
1.213110999E1,5.794144869E-1,1.180377483E0,1.009905148E1
1.214310839E1,6.081457734E-1,1.206714511E0,1.019721603E1
1.215510645E1,5.913859010E-1,1.161223292E0,1.020200539E1
1.216710492E1,5.842030644E-1,1.127703428E0,9.972154617E0
1.217910248E1,5.482889414E-1,1.146857619E0,9.845257759E0
1.219110195E1,5.243461728E-1,1.175588965E0,9.634561539E0
1.220310041E1,4.764606953E-1,1.180377483E0,9.431048393E0
1.221509908E1,4.166038036E-1,1.223474383E0,9.301757812E0
1.222709761E1,3.926610649E-1,1.321639657E0,9.265843391E0
1.223909697E1,3.160442710E-1,1.379102230E0,9.332882881E0
1.225109337E1,2.178790122E-1,1.362342358E0,9.457385063E0
1.226309184E1,1.364736706E-1,1.364736676E0,9.727938652E0
1.227509053E1,1.077423692E-1,1.297696948E0,9.957788467E0
1.228708850E1,1.795706153E-1,1.223474383E0,1.015651417E1
1.229908690E1,1.939362586E-1,1.211503029E0,1.024270725E1
1.231108593E1,2.035133541E-1,1.199531674E0,1.009426212E1
1.232308439E1,1.652049571E-1,1.209108829E0,9.941028595E0
1.233508289E1,8.140534163E-2,1.218685865E0,9.792584419E0
1.234708179E1,-4.788549617E-2,1.237840056E0,9.574705124E0
1.235908015E1,-1.268965602E-1,1.245022893E0,9.517242432E0
1.237107812E1,-1.197137386E-1,1.221080184E0,9.498087883E0
1.238307665E1,-4.549122229E-2,1.228263021E0,9.553156853E0
1.239507448E1,5.027977005E-2,1.264177084E0,9.634561539E0
1.240707295E1,1.149251908E-1,1.206714511E0,9.684841156E0
1.241907151E1,1.197137386E-1,1.166011810E0,9.761458397E0
1.243107098E1,2.130904645E-1,1.189954638E0,9.804554939E0
1.244306921E1,2.609759569E-1,1.259388566E0,9.897932053E0
1.245506834E1,2.801301479E-1,1.319245458E0,9.974549294E0
1.246706700E1,1.747820675E-1,1.328822494E0,1.008708000E1
1.247906573E1,1.460507661E-1,1.302485466E0,1.006313705E1
1.249106433E1,1.939362586E-1,1.359948039E0,1.013496494E1
1.250306253E1,2.059076279E-1,1.417410731E0,1.021637058E1
1.251506092E1,1.580221355E-1,1.450930476E0,1.020439911E1
1.252705902E1,8.379961550E-2,1.374313712E0,1.010862827E1
1.253905749E1,1.125309169E-1,1.374313712E0,1.007750225E1
1.255105615E1,1.221080124E-1,1.417410731E0,1.001046276E1
1.256305525E1,1.771763414E-1,1.484450340E0,9.864412308E0
1.257505388E1,2.011190802E-1,1.498816013E0,9.799766541E0
1.258705272E1,1.412622184E-1,1.489238977E0,9.727938652E0
1.259905078E1,6.943397224E-2,1.446141958E0,9.627379417E0
1.261104898E1,2.394274808E-3,1.364736676E0,9.522030830E0
1.262304744E1,2.154847234E-2,1.312062621E0,9.495694160E0
1.263504598E1,8.140534163E-2,1.268965602E0,9.459779739E0
1.264704451E1,1.221080124E-1,1.230657220E0,9.486116409E0
1.265904291E1,1.292908341E-1,1.201925993E0,9.454991341E0
1.267104137E1,1.460507661E-1,1.139674783E0,9.474145889E0
1.268303984E1,1.675992310E-1,1.096577883E0,9.577098846E0
1.269503847E1,1.460507661E-1,1.019961119E0,9.744698524E0
1.270703643E1,2.035133541E-1,1.034326673E0,9.902720451E0
1.271903530E1,2.250618339E-1,1.106154919E0,1.000088596E1
1.273103490E1,2.106961906E-1,1.149251938E0,1.002482891E1
1.274303336E1,1.340793967E-1,1.163617611E0,1.001525116E1
1.275503166E1,4.549122229E-2,1.189954638E0,9.955394745E0
1.276703049E1,3.112557158E-2,1.163617611E0,9.924268723E0
1.277902896E1,-5.985686928E-2,1.108549237E0,9.974549294E0
1.279102635E1,5.746259540E-2,1.187560320E0,1.001285744E1
1.280302489E1,1.580221355E-1,1.187560320E0,9.890748978E0
1.281502328E1,2.011190802E-1,1.252205729E0,9.850046158E0
1.282702175E1,2.849186957E-1,1.288119793E0,9.845257759E0
1.283902031E1,2.897072434E-1,1.336005330E0,9.859623909E0
1.285101804E1,2.921015322E-1,1.304879785E0,9.833286285E0
1.286301664E1,2.873129845E-1,1.304879785E0,9.751881599E0
1.287501530E1,3.950553536E-1,1.362342358E0,9.723150253E0
1.288701403E1,5.937801600E-1,1.295302629E0,9.754275322E0
1.289901266E1,7.134938836E-1,1.256994247E0,9.895537376E0
1.291101189E1,8.236305118E-1,1.185166001E0,9.979337692E0
1.292301079E1,7.661679387E-1,1.180377483E0,9.948211670E0
1.293500926E1,7.206767201E-1,1.067846537E0,9.926663399E0
1.294700772E1,8.044763207E-1,9.840469360E-1,9.785401344E0
1.295900615E1,1.048692346E0,9.074301720E-1,9.632167816E0
1.297100472E1,9.864411950E-1,1.118126392E0,9.718361855E0
1.298300275E1,1.084606528E0,1.395862222E0,9.778218269E0
1.299500122E1,9.050358534E-1,1.431776285E0,9.866806030E0
1.300699878E1,4.549122155E-1,1.173194647E0,1.000567436E1
1.301899764E1,3.950553536E-1,1.019961119E0,9.993702888E0
1.303099628E1,5.171633363E-1,1.015172482E0,9.907508850E0
1.304299451E1,8.260248303E-1,1.144463301E0,9.828497887E0
1.305499317E1,1.084606528E0,1.297696948E0,9.715967178E0
1.306699294E1,1.096577883E0,1.297696948E0,9.569916725E0
1.307899170E1,1.024749637E0,1.273754239E0,9.524425507E0
1.309098983E1,9.026415944E-1,1.343188167E0,9.560338974E0
1.310298933E1,7.470137477E-1,1.395862222E0,9.579493523E0
1.311498846E1,6.703969240E-1,1.412622094E0,9.596253395E0
1.312698726E1,6.632141471E-1,1.415016413E0,9.720755577E0
1.313898579E1,7.637736797E-1,1.429382086E0,9.766246796E0
1.315098452E1,8.571503758E-1,1.410227895E0,9.811738014E0
1.316298299E1,8.715160489E-1,1.338399649E0,9.888355255E0
1.317498138E1,9.146129489E-1,1.206714511E0,9.902720451E0
1.318697985E1,1.041509509E0,1.132491946E0,9.938634872E0
1.319897832E1,1.154040456E0,1.098972082E0,9.909903526E0
1.321097755E1,1.175588965E0,1.101366401E0,9.905115128E0
1.322297601E1,1.149251938E0,1.103760719E0,9.914691925E0
1.323494169E1,1.027143836E0,1.144463301E0,9.905115128E0
1.324694016E1,9.601042271E-1,1.180377483E0,9.866806030E0
1.325893829E1,9.529213905E-1,1.237840056E0,9.833286285E0
1.327093592E1,1.027143836E0,1.314456820E0,9.780612946E0
1.328293432E1,1.015172482E0,1.422199249E0,9.692024231E0
1.329493302E1,9.696813226E-1,1.510787368E0,9.567522049E0
1.330693155E1,9.337671995E-1,1.589798450E0,9.490905762E0
1.331893042E1,8.930644989E-1,1.678386688E0,9.454991341E0
1.333092965E1,8.236305118E-1,1.781340480E0,9.397528648E0
1.334292768E1,7.565908432E-1,1.841197371E0,9.414288521E0
1.335492658E1,6.512427330E-1,1.886688590E0,9.462174416E0
1.336692504E1,4.453351200E-1,1.999219418E0,9.383162498E0
1.337892344E1,2.753416002E-1,2.056682110E0,9.419076920E0
1.339092237E1,1.197137404E-2,2.061470509E0,9.392740250E0
1.340292134E1,-9.098244458E-2,1.984853864E0,9.323306084E0
1.341491980E1,-1.197137404E-2,1.905842781E0,9.313729286E0
1.342691827E1,2.585816681E-1,1.822043180E0,9.328094482E0
1.343891666E1,4.860377908E-1,1.829225898E0,9.306546211E0
1.345091373E1,7.972934842E-1,1.831620216E0,9.330489159E0
1.346291226E1,9.146129489E-1,1.824437380E0,9.399923325E0
1.347491099E1,8.020820618E-1,1.810071707E0,9.464568138E0
1.348690959E1,5.004034638E-1,1.757397652E0,9.603436470E0
1.349890825E1,4.166038036E-1,1.726272106E0,9.596253395E0
1.351090785E1,5.913859010E-1,1.743032098E0,9.553156853E0
1.352290644E1,6.680026650E-1,1.755003452E0,9.723150253E0
1.353490484E1,6.775797606E-1,1.723877907E0,1.004398251E1
1.354690331E1,6.464542150E-1,1.544307232E0,1.025946712E1
1.355890150E1,7.015225291E-1,1.446141958E0,1.036960411E1
1.357089987E1,8.595446348E-1,1.446141958E0,1.047016335E1
1.358289833E1,9.433442950E-1,1.568249941E0,1.047974110E1
1.359489673E1,8.379961848E-1,1.601769805E0,1.038397026E1
1.360689520E1,6.416656375E-1,1.714300752E0,1.025946712E1
1.361889400E1,4.788549542E-1,1.810071707E0,1.002482891E1
1.363089169E1,5.746259689E-1,1.778946161E0,9.603436470E0
1.364288969E1,2.011190802E-1,1.855562925E0,9.579493523E0
1.365488822E1,4.046324492E-1,1.750214934E0,9.380768776E0
1.366688669E1,5.027977228E-1,1.735849261E0,9.184437752E0
1.367888515E1,5.530774593E-1,1.733454943E0,9.411893845E0
1.369088468E1,4.573064744E-1,1.824437380E0,9.711178780E0
1.370288355E1,8.715160489E-1,1.319245458E0,9.613013268E0
1.371488198E1,1.139674783E0,1.589798450E0,9.711178780E0
1.372688051E1,1.000806928E0,2.097384691E0,9.701601982E0
1.373887898E1,6.991282701E-1,2.130904675E0,9.450202942E0
1.375087668E1,3.351984620E-1,1.853168726E0,9.229928970E0
1.376287514E1,4.788549617E-2,1.675992370E0,8.839662552E0
1.377487364E1,2.370332032E-1,1.582615614E0,8.552350044E0
1.378687210E1,1.101366431E-1,1.450930476E0,9.028810501E0
1.379887050E1,4.309694469E-2,1.453324795E0,9.282603264E0
1.381086860E1,1.029538140E-1,1.764580488E0,9.507665634E0
1.382286713E1,2.394274808E-3,2.015979290E0,1.000567436E1
1.383486560E1,1.005595401E-1,2.083019018E0,9.991309166E0
1.384686400E1,1.412622184E-1,2.056682110E0,9.804554939E0
1.385886246E1,1.197137386E-1,2.099778891E0,9.979337692E0
1.387086196E1,1.221080124E-1,2.219492674E0,9.960183144E0
1.388286062E1,2.154847234E-2,2.193155766E0,9.703995705E0
1.389485928E1,2.394274808E-3,1.965699673E0,9.718361855E0
1.390685795E1,2.011190802E-1,1.680780888E0,9.663292885E0
1.391885628E1,2.035133541E-1,1.704723716E0,9.723150253E0
1.393085454E1,1.723877788E-1,1.913025618E0,9.555550575E0
1.394285301E1,3.711125851E-1,2.051893473E0,9.308940887E0
1.395485140E1,6.368771195E-1,2.106961727E0,9.287391663E0
1.396684987E1,9.241901040E-1,2.083019018E0,9.210775375E0
1.397884873E1,1.151646137E0,2.044710636E0,9.368797302E0
1.399084813E1,1.211503029E0,1.996825218E0,9.545973778E0
1.400284653E1,9.936240315E-1,2.085413456E0,9.955394745E0
1.401484500E1,5.435003638E-1,2.245829821E0,1.041270161E1
1.402684346E1,-2.873129845E-1,2.296109438E0,1.073592854E1
1.403884173E1,-7.063110471E-1,2.224281311E0,1.066170597E1
1.405083862E1,-9.553156495E-1,2.111750364E0,1.030016994E1
1.406283709E1,-7.829278708E-1,2.042316437E0,9.759063721E0
1.407483529E1,-2.729473412E-1,2.183578730E0,9.155706406E0
1.408683382E1,6.392713785E-1,2.238646984E0,8.844450951E0
1.409883268E1,1.233051538E0,2.178790092E0,8.851634026E0
1.411083281E1,1.391073704E0,2.219492674E0,9.347249031E0
1.412283234E1,9.289786220E-1,2.439765930E0,9.905115128E0
1.413283244E1,4.189980924E-1,2.535537004E0,9.464568138E0
1.414483227E1,4.956148863E-1,1.448536277E0,8.973741531E0
1.415483243E1,5.746259689E-1,1.678386688E0,9.244295120E0
1.416683200E1,3.495641351E-1,2.695953369E0,8.423058510E0
1.417883046E1,1.891477108E-1,2.777358770E0,9.059935570E0
1.419082987E1,-5.578660369E-1,2.217098475E0,8.691217422E0
1.420282913E1,-1.417410731E0,1.233051538E0,9.129369736E0
1.421482793E1,-1.697540879E0,1.017566800E0,9.756669998E0
1.422682696E1,-9.050358534E-1,1.503604531E0,9.885960579E0
1.423882639E1,-6.440598965E-1,1.498816013E0,9.730332375E0
1.425082485E1,-5.602602959E-1,1.443747759E0,9.648927689E0
1.426282332E1,-5.770202279E-1,1.431776285E0,9.524425507E0
1.427482178E1,-8.068706393E-1,1.467690468E0,9.682447433E0
1.428682025E1,-1.024749637E0,1.721483588E0,9.771035194E0
1.429881895E1,-9.289786220E-1,1.843591571E0,9.560338974E0
1.431081741E1,-5.171633363E-1,1.831620216E0,9.395133972E0
1.432281594E1,-3.088614643E-1,1.778946161E0,9.414288521E0
1.433481444E1,-5.411061049E-1,1.448536277E0,1.006313705E1
1.434681284E1,-1.122914910E0,1.146857619E0,1.129618835E1
1.435881037E1,-1.252205729E0,6.943396926E-1,1.115253162E1
1.437080910E1,-2.370332032E-1,7.781392932E-1,1.116450310E1
1.438280757E1,6.105400920E-1,1.731060743E0,1.090113354E1
1.439480623E1,3.902668059E-1,1.371919513E0,1.083169937E1
1.440680470E1,-5.339232683E-1,1.039115310E0,9.859623909E0
1.441680476E1,-1.053480864E0,1.079817891E0,9.536396980E0
1.442880323E1,-1.915419817E0,1.247417212E0,9.076695442E0
1.444080093E1,-2.375120640E0,1.240234375E0,9.083878517E0
1.445279919E1,-2.533142805E0,1.094183564E0,9.557945251E0
1.446479766E1,-2.015979290E0,1.357553840E0,1.009186840E1
1.447679616E1,-1.412622094E0,8.906702399E-1,1.091071033E1
1.448879462E1,-6.320885420E-1,7.087053657E-1,1.160026169E1
1.450079375E1,-6.703969836E-2,9.002473354E-1,1.129139996E1
1.451279222E1,-2.394274808E-2,1.221080184E0,1.013735962E1
1.452479075E1,-1.029538155E0,1.379102230E0,8.868393898E0
1.453678815E1,-2.449343204E0,1.161223292E0,8.099831581E0
1.454878674E1,-3.749434233E0,1.019961119E0,7.929838181E0
1.456078517E1,-4.055901527E0,1.106154919E0,8.281796455E0
1.457278347E1,-3.689577579E0,1.307274103E0,9.232323647E0
1.458478206E1,-3.313676357E0,1.206714511E0,1.044861507E1
1.459678173E1,-2.528354168E0,1.240234375E0,1.111901188E1
1.460878020E1,-2.454131603E0,1.266571403E0,1.116929245E1
1.462077823E1,-2.652856588E0,1.213897347E0,1.015890789E1
1.463277712E1,-3.567469358E0,7.805336118E-1,7.937020779E0
1.464477559E1,-4.881926537E0,9.768640995E-1,5.952167034E0
1.465677282E1,-5.985687256E0,1.656838179E0,5.372752666E0
1.466877129E1,-6.289760113E0,1.472478986E0,6.009629726E0
1.468077018E1,-6.143709183E0,1.101366401E0,7.113390446E0
1.469276865E1,-5.748653889E0,1.089395046E0,8.863605499E0
1.470476612E1,-5.909070015E0,9.313728809E-1,1.022834206E1
1.471676548E1,-6.438204765E0,7.206767201E-1,1.049171257E1
1.472876401E1,-6.672843933E0,7.422251701E-1,9.718361855E0
1.474076254E1,-6.749460697E0,9.289786220E-1,8.609811783E0
1.475276094E1,-6.562707424E0,1.403045058E0,6.184412003E0
1.476476054E1,-6.586649895E0,1.812466025E0,4.295329094E0
1.477675911E1,-6.478907585E0,2.047105074E0,4.290540695E0
1.478875757E1,-6.162863255E0,1.695146561E0,5.523591995E0
1.480075597E1,-5.901887417E0,1.431776285E0,6.775797844E0
1.481275443E1,-5.858790398E0,1.216291547E0,8.147717476E0
1.482475277E1,-6.919454098E0,3.399870098E-1,8.418270111E0
1.483675080E1,-8.147717476E0,-1.245022863E-1,8.367990494E0
1.484874926E1,-8.875576973E0,1.987248063E-1,8.511647224E0
1.486074793E1,-8.710371971E0,5.961744189E-1,8.195602417E0
1.487274639E1,-7.644919395E0,9.457385540E-1,7.063110828E0
1.488474486E1,-6.249057293E0,1.374313712E0,5.664854050E0
1.489674372E1,-5.334444046E0,1.750214934E0,5.241067410E0
1.490874212E1,-5.037554264E0,1.656838179E0,5.535563469E0
1.492073989E1,-5.130930901E0,1.474873304E0,6.103006363E0
1.493273845E1,-5.475706577E0,1.407833576E0,6.902694225E0
1.494473711E1,-6.428627968E0,9.481328130E-1,7.403097630E0
1.495673474E1,-7.283383846E0,4.213923812E-1,7.920260906E0
1.496873340E1,-8.154899597E0,1.556278616E-1,8.195602417E0
1.498073257E1,-8.420664787E0,1.556278616E-1,8.075888634E0
1.499273120E1,-7.781393051E0,5.243461728E-1,7.601822376E0
1.500472966E1,-6.914665699E0,1.007989645E0,7.190007210E0
1.501672926E1,-6.093429565E0,1.230657220E0,7.041562080E0
1.502872773E1,-5.466129303E0,1.307274103E0,7.113390446E0
1.504072619E1,-5.310501575E0,1.295302629E0,7.249864101E0
1.505272466E1,-5.559505939E0,1.089395046E0,7.316903591E0
1.506472306E1,-6.373559475E0,7.326480746E-1,7.242681503E0
1.507672039E1,-7.312115192E0,5.339232683E-1,7.474925995E0
1.508871885E1,-7.812518597E0,4.644893110E-1,7.922655106E0
1.510071772E1,-7.630553722E0,4.477293789E-1,8.269824982E0
1.511271612E1,-7.194795609E0,5.937801600E-1,8.365595818E0
1.512471458E1,-6.737489223E0,6.799740195E-1,8.073494911E0
1.513671398E1,-6.445387840E0,7.350423932E-1,7.570696831E0
1.514871251E1,-6.229903221E0,9.098244309E-1,6.878751755E0
1.516071058E1,-6.045543671E0,1.010383964E0,6.562707424E0
1.517270904E1,-5.971321583E0,1.060663700E0,6.428627968E0
1.518470764E1,-5.894704342E0,1.113337755E0,6.404685020E0
1.519670607E1,-6.023995399E0,1.065452337E0,6.500456333E0
1.520870533E1,-6.277788639E0,9.888355136E-1,6.675238132E0
1.522070450E1,-6.421444893E0,8.547561169E-1,6.859597206E0
1.523070463E1,-6.457359314E0,7.709565163E-1,7.225921154E0
1.524270449E1,-6.536370277E0,7.613793612E-1,7.577879906E0
1.525470375E1,-6.541158676E0,6.225114465E-1,8.006455421E0
1.526670335E1,-6.498061657E0,5.554717779E-1,8.432636261E0
1.527670348E1,-6.488484859E0,5.291347504E-1,8.485309601E0
1.528870268E1,-6.610592842E0,4.764606953E-1,8.037580490E0
1.530070138E1,-6.720729351E0,4.285751879E-1,7.599428177E0
1.531270118E1,-6.869174480E0,3.950553536E-1,7.230710030E0
1.532469978E1,-6.909877300E0,4.477293789E-1,6.897905827E0
1.533669801E1,-6.864386082E0,4.453351200E-1,6.629746914E0
1.534869647E1,-6.761432171E0,5.530774593E-1,6.696786404E0
1.536069487E1,-6.682421207E0,5.099805593E-1,7.034379482E0
1.537269384E1,-6.648900986E0,5.506832004E-1,7.415069103E0
1.538469230E1,-6.759037971E0,5.435003638E-1,7.371972084E0
1.539669083E1,-6.883540154E0,5.339232683E-1,7.039167881E0
1.540868923E1,-7.101418972E0,5.770202279E-1,6.593832970E0
1.542068776E1,-7.204372883E0,6.440598965E-1,6.522004604E0
1.543268496E1,-7.118178844E0,7.470137477E-1,6.802134514E0
1.544468343E1,-6.905088425E0,8.332076073E-1,7.185218811E0
1.545668182E1,-6.739883423E0,8.499675393E-1,7.273807049E0
1.546868029E1,-6.670449734E0,8.643332124E-1,7.290566921E0
1.548067875E1,-6.589044094E0,9.433442950E-1,7.369577885E0
1.549067879E1,-6.466936111E0,1.017566800E0,7.369577885E0
1.550267718E1,-6.416656494E0,1.089395046E0,7.407886028E0
1.551467565E1,-6.538764477E0,1.082212210E0,7.173247337E0
1.552667411E1,-6.706363678E0,1.101366401E0,6.890722752E0
1.553867258E1,-6.802134514E0,1.087000728E0,6.730306625E0
1.555066958E1,-6.833260536E0,1.060663700E0,6.711152077E0
1.556266804E1,-6.900300026E0,9.768640995E-1,6.802134514E0
1.557466657E1,-6.871568680E0,8.451790214E-1,7.012830734E0
1.558666504E1,-6.826077461E0,6.751855016E-1,7.319298267E0
1.559866307E1,-6.699181080E0,6.177229285E-1,7.431828976E0
1.561066147E1,-6.591438770E0,4.381522834E-1,7.340846539E0
1.562265993E1,-6.581861496E0,3.519583941E-1,7.091842175E0
1.563465840E1,-6.711152077E0,3.280156553E-1,6.639324188E0
1.564665716E1,-7.055927753E0,4.309694767E-1,6.045543671E0
1.565865593E1,-6.984099388E0,5.171633363E-1,5.906675816E0
1.567065529E1,-6.818894863E0,5.243461728E-1,6.079063892E0
1.568265395E1,-6.706363678E0,4.573064744E-1,6.507638931E0
1.569465262E1,-6.706363678E0,4.716721475E-1,6.890722752E0
1.570665098E1,-6.905088425E0,5.195576549E-1,6.941002846E0
1.571864971E1,-7.180429935E0,4.980091453E-1,6.828471661E0
1.573064808E1,-7.498868465E0,4.740664065E-1,6.711152077E0
1.574264661E1,-7.656890869E0,4.716721475E-1,6.744672298E0
1.575464547E1,-7.597033978E0,5.004034638E-1,6.814105988E0
1.576664387E1,-7.486897469E0,5.674431324E-1,6.905088425E0
1.577864234E1,-7.350423813E0,5.147690773E-1,6.909877300E0
1.579064027E1,-7.125361919E0,5.171633363E-1,7.096630573E0
1.580263873E1,-7.005648136E0,5.195576549E-1,7.259441376E0
1.581463673E1,-6.936213970E0,4.860377908E-1,7.242681503E0
1.582663526E1,-6.938608170E0,5.818088055E-1,7.290566921E0
1.583863373E1,-6.976916790E0,6.895511150E-1,7.223526955E0
1.585063219E1,-7.077476501E0,6.799740195E-1,7.149304390E0
1.586263059E1,-7.264229774E0,6.919454336E-1,7.120573044E0
1.587462906E1,-7.422251701E0,7.637736797E-1,7.230710030E0
1.588662752E1,-7.398309231E0,8.882759809E-1,7.321692467E0
1.589862605E1,-7.304932594E0,9.481328130E-1,7.431828976E0
1.591062545E1,-7.015225410E0,1.103760719E0,7.352818012E0
1.592262392E1,-6.797346115E0,1.120520592E0,7.280989647E0
1.593462238E1,-6.756643295E0,1.154040456E0,7.283383846E0
1.594662085E1,-6.806923389E0,1.175588965E0,7.010436535E0
1.595861921E1,-6.799740314E0,1.144463301E0,6.864386082E0
1.597061778E1,-6.730306625E0,1.108549237E0,6.952973843E0
1.598261624E1,-6.651295185E0,1.055875182E0,7.228315830E0
1.599461554E1,-6.598621368E0,9.840469360E-1,7.522811413E0
1.600661400E1,-6.457359314E0,8.499675393E-1,7.671256542E0
1.601861250E1,-6.404685020E0,8.020820618E-1,7.630553722E0
1.603061177E1,-6.352011204E0,7.230709791E-1,7.472531796E0
1.604261023E1,-6.289760113E0,7.110996246E-1,7.364789486E0
1.605460816E1,-6.265817165E0,7.015225291E-1,7.331269264E0
1.606660682E1,-6.280182838E0,7.110996246E-1,7.204372883E0
1.607860529E1,-6.268211365E0,7.494080067E-1,7.127756119E0
1.609060302E1,-6.299336910E0,7.350423932E-1,7.036773682E0
1.610260168E1,-6.371165276E0,6.895511150E-1,6.952973843E0
1.611460064E1,-6.354405403E0,6.680026650E-1,7.060716629E0
1.612659904E1,-6.402290821E0,6.727912426E-1,7.170853138E0
1.613859847E1,-6.488484859E0,6.680026650E-1,7.151699066E0
1.615059604E1,-6.601015568E0,6.033572555E-1,7.122967720E0
1.616259457E1,-6.703969479E0,5.770202279E-1,7.173247337E0
1.617459244E1,-6.699181080E0,5.602602959E-1,7.228315830E0
1.618659090E1,-6.608198643E0,6.105400920E-1,7.269018173E0
1.619858860E1,-6.545947552E0,6.081457734E-1,7.221132755E0
1.621058823E1,-6.452570438E0,6.464542150E-1,7.127756119E0
1.622258663E1,-6.387925148E0,6.273000240E-1,7.005648136E0
1.623458509E1,-6.335251331E0,6.225114465E-1,7.051139355E0
1.624658362E1,-6.440599442E0,6.344828010E-1,6.964945316E0
1.625858196E1,-6.512427330E0,6.153286099E-1,7.003253937E0
1.627058019E1,-6.584255695E0,6.081457734E-1,7.144515991E0
1.628257878E1,-6.763826370E0,5.578660369E-1,7.180429935E0
1.629457758E1,-6.962551117E0,5.363175869E-1,7.000859737E0
1.630657658E1,-7.204372883E0,4.668835998E-1,6.826077461E0
1.631857604E1,-7.242681503E0,4.812492430E-1,6.893116951E0
1.633057438E1,-7.180429935E0,4.477293789E-1,7.221132755E0
1.634257351E1,-7.031985283E0,4.261809289E-1,7.580274105E0
1.635457267E1,-6.979310989E0,4.261809289E-1,7.599428177E0
1.636657141E1,-6.826077461E0,5.985686779E-1,7.436617374E0
1.637856980E1,-6.826077461E0,6.440598965E-1,7.099024773E0
1.639056914E1,-7.024802208E0,6.680026650E-1,6.699181080E0
1.640256760E1,-7.199584484E0,6.871568561E-1,6.514821529E0
1.641456590E1,-7.398309231E0,6.416656375E-1,6.589044094E0
1.642656436E1,-7.460560322E0,5.195576549E-1,6.907482624E0
1.643856276E1,-7.388731956E0,5.219519138E-1,7.158881664E0
1.645056096E1,-7.175641537E0,5.339232683E-1,7.316903591E0
1.646255942E1,-6.976916790E0,5.315290093E-1,7.292961121E0
1.647455729E1,-6.838048935E0,5.458946824E-1,7.055927753E0
1.648655569E1,-6.663266659E0,5.626545548E-1,6.682421207E0
1.649855392E1,-6.601015568E0,5.937801600E-1,6.601015568E0
1.651055332E1,-6.452570438E0,6.895511150E-1,6.759037971E0
1.652255178E1,-6.428627968E0,7.374366522E-1,6.859597206E0
1.653455145E1,-6.641718388E0,7.110996246E-1,6.845231533E0
1.654654991E1,-6.984099388E0,6.703969240E-1,6.672843933E0
1.655854911E1,-7.113390446E0,6.871568561E-1,6.668055534E0
1.657054681E1,-7.283383846E0,6.727912426E-1,6.644112587E0
1.658254527E1,-7.319298267E0,6.488484740E-1,6.751854897E0
1.659454337E1,-7.199584484E0,6.273000240E-1,6.984099388E0
1.660654184E1,-7.065505028E0,5.889915824E-1,7.316903591E0
1.661854034E1,-6.974522591E0,5.961744189E-1,7.439012051E0
1.663053850E1,-6.914665699E0,5.506832004E-1,7.273807049E0
1.664253690E1,-6.936213970E0,5.770202279E-1,7.039167881E0
1.665453506E1,-6.969734192E0,6.225114465E-1,6.852414608E0
1.666653360E1,-7.015225410E0,7.326480746E-1,6.785374641E0
1.667853293E1,-7.017619610E0,8.595446348E-1,6.703969479E0
1.669053199E1,-1.609910393E1,-8.042368889E0,1.252205729E0
1.670253065E1,-1.092028713E1,1.125309169E-1,5.933012962E0
1.671452885E1,-5.739076614E0,6.062304020E0,9.773429871E0
1.672652751E1,-1.005834866E1,-7.039167881E-1,5.849213123E0
1.673852484E1,-6.318490982E0,2.365543604E0,6.924242973E0
1.675052237E1,-7.723930359E0,9.768640995E-1,5.712739468E0
1.676252084E1,-7.482108593E0,9.265843630E-1,6.270605564E0
1.677451930E1,-7.908289909E0,1.139674783E0,6.524398804E0
1.678651777E1,-7.767027378E0,1.465296149E0,6.579467297E0
1.679851523E1,-8.554743767E0,8.834874034E-1,5.638517380E0
1.681051477E1,-8.142929077E0,8.403904438E-1,5.798933506E0
1.682251330E1,-7.680833817E0,6.225114465E-1,4.848406315E0
1.683451200E1,-6.871568680E0,7.733507752E-1,5.760625362E0
1.684651040E1,-7.065505028E0,3.711125851E-1,6.249057293E0
1.685850966E1,-7.146910191E0,-4.309694469E-2,6.919454098E0
1.687050703E1,-7.053533554E0,-1.364736706E-1,7.951386452E0
1.688250549E1,-7.606611252E0,3.711125851E-1,7.965752125E0
1.689450419E1,-6.847625732E0,1.707117915E0,9.933846474E0
1.690650265E1,-9.215563774E0,-3.998438835E0,3.454938650E0
1.691850122E1,-5.389512539E0,2.195549965E0,6.577073097E0
1.693050062E1,-5.372752666E0,2.475680113E0,1.135843945E1
1.694249908E1,-6.237085819E0,-9.720755816E-1,8.382355690E0
1.695449781E1,-6.220325947E0,1.149251908E-1,6.699181080E0
1.696649628E1,-6.715940952E0,6.105400920E-1,6.320885658E0
1.697849484E1,-6.759037971E0,5.267404318E-1,6.083852291E0
1.699049304E1,-6.330462456E0,5.123748183E-1,6.462147713E0
1.700249144E1,-6.122160912E0,4.381522834E-1,7.051139355E0
1.701448957E1,-6.055120945E0,4.381522834E-1,7.142121792E0
1.702648804E1,-6.143709183E0,4.812492430E-1,6.773403645E0
1.703848667E1,-6.201171875E0,4.764606953E-1,6.476513386E0
1.705048450E1,-6.287365437E0,5.458946824E-1,6.296942711E0
1.706248296E1,-6.308914185E0,6.009629965E-1,5.830059052E0
1.707448150E1,-6.328068256E0,7.087053657E-1,5.051919937E0
1.708648003E1,-6.261028767E0,7.015225291E-1,4.771789551E0
1.709847833E1,-6.122160912E0,6.680026650E-1,5.049525738E0
1.711047786E1,-6.103006363E0,6.249057055E-1,5.640911579E0
1.712247652E1,-6.138920784E0,5.387118459E-1,6.083852291E0
1.713447518E1,-6.191594601E0,4.716721475E-1,6.502850533E0
1.714647384E1,-6.409473896E0,5.004034638E-1,6.744672298E0
1.715847211E1,-6.816500187E0,3.782954216E-1,6.634535313E0
1.717047111E1,-7.235498428E0,4.142095447E-1,6.210748672E0
1.718246957E1,-7.616188049E0,2.178790122E-1,6.055120945E0
1.719446804E1,-7.836461544E0,1.556278616E-1,6.179623127E0
1.720646643E1,-7.800547123E0,3.304099143E-1,6.557918549E0
1.721846523E1,-7.515628815E0,4.477293789E-1,6.833260536E0
1.723046236E1,-7.235498428E0,4.980091453E-1,7.216344357E0
1.724246090E1,-7.223526955E0,4.956148863E-1,7.151699066E0
1.725445936E1,-7.247469902E0,5.291347504E-1,6.794951916E0
1.726645783E1,-7.484503269E0,5.435003638E-1,6.352011204E0
1.727845629E1,-7.635342598E0,5.602602959E-1,6.284971237E0
1.729045542E1,-7.826884270E0,6.488484740E-1,6.514821529E0
1.730245389E1,-8.051946640E0,6.081457734E-1,6.751854897E0
1.731445229E1,-8.135746002E0,5.889915824E-1,7.168458939E0
1.732645088E1,-8.188420296E0,6.296942830E-1,7.491685867E0
1.733844981E1,-8.205180168E0,5.674431324E-1,7.556331158E0
1.735044861E1,-8.102226257E0,5.458946824E-1,7.503657341E0
1.736244821E1,-7.925049782E0,5.530774593E-1,7.450983047E0
1.737444804E1,-7.671256542E0,5.794144869E-1,7.462954521E0
1.738644787E1,-7.419857502E0,5.291347504E-1,7.120573044E0
1.739844760E1,-7.333663940E0,6.105400920E-1,6.775797844E0
1.741044700E1,-7.245075703E0,7.446194887E-1,6.591438770E0
1.742244626E1,-7.036773682E0,7.182824612E-1,6.730306625E0
1.743444536E1,-6.830865860E0,6.751855016E-1,6.931425571E0
1.744644432E1,-6.799740314E0,4.836435020E-1,7.036773682E0
1.745844266E1,-6.816500187E0,4.118152559E-1,7.149304390E0
1.747044199E1,-6.787769318E0,4.453351200E-1,7.228315830E0
1.748244045E1,-6.732700825E0,4.812492430E-1,7.271412373E0
1.749443898E1,-6.775797844E0,4.118152559E-1,7.276201248E0
1.750643752E1,-6.823683262E0,3.208328187E-1,7.280989647E0
1.751843638E1,-6.821289062E0,3.112557232E-1,7.403097630E0
1.753043485E1,-6.747066498E0,2.992843390E-1,7.417463303E0
1.754243331E1,-6.715940952E0,3.399870098E-1,7.166064739E0
1.755443134E1,-6.658478260E0,4.405465722E-1,6.996070862E0
1.756642974E1,-6.591438770E0,4.573064744E-1,7.000859737E0
1.757842820E1,-6.603409767E0,4.118152559E-1,7.082264900E0
1.759042634E1,-6.589044094E0,3.423812985E-1,7.194795609E0
1.760242480E1,-6.512427330E0,3.040728867E-1,7.288172722E0
1.761442367E1,-6.387925148E0,2.777358890E-1,7.259441376E0
1.762642206E1,-6.311308384E0,3.016786277E-1,7.134938717E0
1.763842053E1,-6.375953674E0,2.681587934E-1,7.041562080E0
1.765041933E1,-6.483695984E0,2.705530524E-1,7.058321953E0
1.766241786E1,-6.651295185E0,2.178790122E-1,6.957762718E0
1.767241792E1,-6.665660858E0,2.442160249E-1,6.893116951E0
1.768441639E1,-6.756643295E0,2.418217510E-1,6.902694225E0
1.769641442E1,-6.804529190E0,1.340793967E-1,7.134938717E0
1.770841289E1,-6.907482624E0,9.337671846E-2,7.551542759E0
1.772041152E1,-6.974522591E0,5.985686928E-2,7.750267506E0
1.773240962E1,-7.055927753E0,-2.394274808E-3,7.709564686E0
1.774440815E1,-7.003253937E0,1.197137404E-2,7.611399651E0
1.775640711E1,-6.816500187E0,8.619388938E-2,7.558725357E0
1.776840601E1,-6.739883423E0,1.699935049E-1,7.304932594E0
1.778040348E1,-6.749460697E0,1.292908341E-1,6.799740314E0
1.779240094E1,-6.749460697E0,2.154847383E-1,6.356799603E0
1.780439944E1,-6.804529190E0,2.777358890E-1,6.222720146E0
1.781639804E1,-6.878751755E0,2.729473412E-1,6.404685020E0
1.782839583E1,-6.957762718E0,1.412622184E-1,6.823683262E0
1.784039540E1,-7.144515991E0,7.901106775E-2,7.022408009E0
1.785239406E1,-7.374366283E0,-4.788549617E-3,6.964945316E0
1.786439282E1,-7.520417213E0,1.915419847E-2,6.895511627E0
1.787639122E1,-7.520417213E0,-2.394274808E-3,6.759037971E0
1.788839005E1,-7.434223175E0,-1.436564885E-2,6.586649895E0
1.790038868E1,-7.350423813E0,2.394274808E-3,6.438204765E0
1.791238722E1,-7.235498428E0,-2.394274808E-3,6.476513386E0
1.792438548E1,-7.139727592E0,1.125309169E-1,6.555524349E0
1.793638395E1,-7.113390446E0,1.819648892E-1,6.519610405E0
1.794838241E1,-7.235498428E0,1.580221355E-1,6.433416367E0
1.796037978E1,-7.314509392E0,1.508393139E-1,6.452570438E0
1.797237817E1,-7.393520832E0,1.436564922E-1,6.402290821E0
1.798437664E1,-7.431828976E0,1.245022863E-1,6.270605564E0
1.799637517E1,-7.403097630E0,1.699935049E-1,6.313702583E0
1.800837370E1,-7.304932594E0,2.322446555E-1,6.524398804E0
1.802037274E1,-7.273807049E0,2.537931204E-1,6.658478260E0
1.803237113E1,-7.276201248E0,3.759011328E-1,6.567495823E0
1.804436960E1,-7.321692467E0,3.998439014E-1,6.328068256E0
1.805636806E1,-7.288172722E0,4.956148863E-1,6.098217964E0
1.806836653E1,-7.269018173E0,4.597007632E-1,6.222720146E0
1.808036546E1,-7.292961121E0,4.429408312E-1,6.277788639E0
1.809236399E1,-7.338452339E0,3.950553536E-1,6.488484859E0
1.810436246E1,-7.355212212E0,4.118152559E-1,6.658478260E0
1.811636092E1,-7.254652500E0,4.094209969E-1,6.888328552E0
1.812835932E1,-7.211555958E0,2.992843390E-1,7.089447498E0
1.814035672E1,-7.137333393E0,3.232271075E-1,7.115784645E0
1.815235518E1,-7.168458939E0,3.687183261E-1,7.031985283E0
1.816235541E1,-7.142121792E0,4.189980924E-1,6.914665699E0
1.817435334E1,-7.261835575E0,4.213923812E-1,6.794951916E0
1.818635181E1,-7.441406250E0,3.064671755E-1,6.684815407E0
1.819835108E1,-7.429434776E0,2.729473412E-1,6.811711788E0
1.821034964E1,-7.333663940E0,2.753416002E-1,6.991282463E0
1.822234680E1,-7.077476501E0,3.184385598E-1,7.031985283E0
1.823434593E1,-7.051139355E0,3.519583941E-1,6.737489223E0
1.824634466E1,-7.180429935E0,3.471698463E-1,6.263422966E0
1.825834256E1,-7.235498428E0,3.280156553E-1,6.150891781E0
1.827034112E1,-7.259441376E0,3.375927508E-1,6.237085819E0
1.828233952E1,-7.216344357E0,2.968900800E-1,6.505244732E0
1.829433779E1,-7.139727592E0,3.088614643E-1,6.778192043E0
1.830633625E1,-7.182824612E0,3.160442710E-1,6.723123550E0
1.831833472E1,-7.197190285E0,3.399870098E-1,6.596227169E0
1.833033311E1,-7.324086666E0,3.950553536E-1,6.347222328E0
1.834233165E1,-7.486897469E0,4.285751879E-1,5.863578796E0
1.835433031E1,-7.661679268E0,4.381522834E-1,5.638517380E0
1.836632834E1,-7.623371124E0,4.860377908E-1,5.980898380E0
1.837832767E1,-7.575485706E0,4.285751879E-1,6.174834728E0
1.839032614E1,-7.630553722E0,3.854782581E-1,6.514821529E0
1.840232460E1,-7.676044941E0,3.735068738E-1,6.668055534E0
1.841432314E1,-7.778998852E0,3.016786277E-1,6.572284222E0
1.842632223E1,-7.877163887E0,3.112557232E-1,6.148497581E0
1.843832106E1,-7.891529560E0,3.064671755E-1,5.949772835E0
1.845032020E1,-7.903501034E0,3.232271075E-1,5.810904980E0
1.846231946E1,-7.843644142E0,3.782954216E-1,5.966532707E0
1.847431872E1,-7.685622215E0,4.501236677E-1,6.275394440E0
1.848631772E1,-7.553936958E0,5.363175869E-1,6.562707424E0
1.849831569E1,-7.515628815E0,5.746259689E-1,6.605803967E0
1.851031435E1,-7.472531796E0,6.033572555E-1,6.529187202E0
1.852231282E1,-7.532388687E0,6.536370516E-1,6.507638931E0
1.853431122E1,-7.558725357E0,6.009629965E-1,6.478907585E0
1.854630968E1,-7.654496670E0,6.560313106E-1,6.543552876E0
1.855830885E1,-7.819701672E0,6.201171875E-1,6.426233768E0
1.857030688E1,-7.975329399E0,5.458946824E-1,6.284971237E0
1.858230534E1,-7.934626579E0,5.674431324E-1,6.421444893E0
1.859430381E1,-7.872375488E0,5.506832004E-1,6.591438770E0
1.860630227E1,-7.740690231E0,5.650488734E-1,6.763826370E0
1.861830067E1,-7.685622215E0,6.105400920E-1,6.720729351E0
1.863029914E1,-7.668862343E0,5.913859010E-1,6.533976078E0
1.864229753E1,-7.654496670E0,5.650488734E-1,6.428627968E0
1.865429556E1,-7.601822376E0,5.889915824E-1,6.471724987E0
1.866629410E1,-7.575485706E0,6.296942830E-1,6.371165276E0
1.867829233E1,-7.592245579E0,6.296942830E-1,6.265817165E0
1.869029116E1,-7.707170486E0,6.081457734E-1,6.208354473E0
1.870228963E1,-7.656890869E0,6.751855016E-1,6.256239891E0
1.871428852E1,-7.541965485E0,7.925049663E-1,6.426233768E0
1.872628699E1,-7.429434776E0,8.092648983E-1,6.478907585E0
1.873828599E1,-7.357606411E0,8.140534163E-1,6.402290821E0
1.875028445E1,-7.266623974E0,7.565908432E-1,6.349617004E0
1.876228298E1,-7.190007210E0,7.254652381E-1,6.363982677E0
1.877428145E1,-7.163670063E0,6.703969240E-1,6.380742550E0
1.878627991E1,-7.173247337E0,6.512427330E-1,6.447782040E0
1.879827831E1,-7.237892628E0,6.249057055E-1,6.373559475E0
1.881027678E1,-7.338452339E0,5.530774593E-1,6.344828129E0
1.882227524E1,-7.333663940E0,5.387118459E-1,6.421444893E0
1.883427377E1,-7.328875065E0,4.668835998E-1,6.601015568E0
1.884627237E1,-7.276201248E0,3.974496126E-1,6.799740314E0
1.885827010E1,-7.300143719E0,3.615354896E-1,6.830865860E0
1.887026836E1,-7.383943558E0,3.615354896E-1,6.696786404E0
1.888226702E1,-7.419857502E0,3.663240373E-1,6.541158676E0
1.889426562E1,-7.443800449E0,3.447755575E-1,6.543552876E0
1.890626409E1,-7.405491829E0,3.878725171E-1,6.732700825E0
1.891626422E1,-7.388731956E0,4.142095447E-1,6.833260536E0
1.892826275E1,-7.316903591E0,3.854782581E-1,6.835654736E0
1.894026155E1,-7.213950157E0,4.309694767E-1,6.680026531E0
1.895225961E1,-7.211555958E0,4.668835998E-1,6.421444893E0
1.896425808E1,-7.223526955E0,4.644893110E-1,6.189200401E0
1.897625614E1,-7.278595448E0,4.118152559E-1,6.114977837E0
1.898825454E1,-7.326480865E0,3.591412306E-1,6.294548512E0
1.900025301E1,-7.345634937E0,3.711125851E-1,6.462147713E0
1.901225194E1,-7.355212212E0,3.878725171E-1,6.536370277E0
1.902425040E1,-7.371972084E0,4.237866402E-1,6.636929989E0
1.903624794E1,-7.424646378E0,4.764606953E-1,6.612987041E0
1.904824633E1,-7.529994488E0,4.644893110E-1,6.536370277E0
1.906024480E1,-7.510839939E0,4.644893110E-1,6.514821529E0
1.907224326E1,-7.491685867E0,4.692778587E-1,6.478907585E0
1.908424180E1,-7.412674904E0,4.860377908E-1,6.428627968E0
1.909624113E1,-7.441406250E0,4.716721475E-1,6.328068256E0
1.910823956E1,-7.482108593E0,4.525179267E-1,6.275394440E0
1.912023802E1,-7.453377247E0,5.147690773E-1,6.299336910E0
1.913223649E1,-7.429434776E0,5.243461728E-1,6.371165276E0
1.914423489E1,-7.419857502E0,4.189980924E-1,6.502850533E0
1.915623332E1,-7.422251701E0,3.567469418E-1,6.598621368E0
1.916823188E1,-7.338452339E0,3.447755575E-1,6.682421207E0
1.918023105E1,-7.331269264E0,3.280156553E-1,6.699181080E0
1.919222951E1,-7.314509392E0,2.968900800E-1,6.771008968E0
1.920422791E1,-7.345634937E0,2.561874092E-1,6.773403645E0
1.921622708E1,-7.436617374E0,2.035133541E-1,6.663266659E0
1.922822554E1,-7.439012051E0,2.346389294E-1,6.632141113E0
1.924022297E1,-7.412674904E0,2.944957912E-1,6.596227169E0
1.925222157E1,-7.352818012E0,3.064671755E-1,6.565101624E0
1.926422030E1,-7.276201248E0,3.184385598E-1,6.565101624E0
1.927621826E1,-7.288172722E0,2.849186957E-1,6.601015568E0
1.928821692E1,-7.371972084E0,1.891477108E-1,6.589044094E0
1.930021592E1,-7.446194649E0,1.795706153E-1,6.653689861E0
1.931221439E1,-7.446194649E0,1.987248063E-1,6.792557716E0
1.932421285E1,-7.417463303E0,1.939362586E-1,6.907482624E0
1.933621138E1,-7.333663940E0,1.963305324E-1,6.972128391E0
1.934820985E1,-7.245075703E0,2.035133541E-1,6.861991405E0
1.936020831E1,-7.225921154E0,2.513988614E-1,6.646506786E0
1.937220671E1,-7.166064739E0,2.633702159E-1,6.495667458E0
1.938420644E1,-7.005648136E0,3.328042030E-1,6.488484859E0
1.939620451E1,-6.826077461E0,3.184385598E-1,6.601015568E0
1.940820291E1,-6.785374641E0,2.705530524E-1,6.763826370E0
1.942020137E1,-6.830865860E0,2.418217510E-1,6.873962879E0
1.943219997E1,-6.924242973E0,1.795706153E-1,6.852414608E0
1.944419717E1,-6.972128391E0,1.412622184E-1,6.840443134E0
1.945619613E1,-6.964945316E0,1.580221355E-1,6.905088425E0
1.946819473E1,-6.988888264E0,1.628106833E-1,6.895511627E0
1.948019369E1,-7.008042336E0,2.202732861E-1,6.957762718E0
1.949219302E1,-6.979310989E0,3.040728867E-1,7.010436535E0
1.950419269E1,-6.931425571E0,4.620950520E-1,6.948185444E0
1.951619238E1,-6.924242973E0,5.722316504E-1,6.699181080E0
1.952819225E1,-6.790163517E0,6.871568561E-1,6.457359314E0
1.954019188E1,-6.720729351E0,7.206767201E-1,6.476513386E0
1.955219128E1,-6.682421207E0,6.847625971E-1,6.672843933E0
1.956419068E1,-6.763826370E0,6.225114465E-1,6.809317589E0
1.957618911E1,-6.976916790E0,5.482889414E-1,6.861991405E0
1.958818831E1,-7.182824612E0,5.147690773E-1,6.912271500E0
1.960018740E1,-7.283383846E0,4.764606953E-1,7.043956280E0
1.961218620E1,-7.403097630E0,4.046324492E-1,7.182824612E0
1.962418467E1,-7.477320194E0,4.022381604E-1,7.211555958E0
1.963618400E1,-7.434223175E0,4.261809289E-1,7.173247337E0
1.964818247E1,-7.237892628E0,4.285751879E-1,7.257047176E0
1.966018083E1,-7.075081825E0,4.429408312E-1,7.348029613E0
1.967217926E1,-6.909877300E0,4.429408312E-1,7.309720993E0
1.968417780E1,-6.799740314E0,4.285751879E-1,7.137333393E0
1.969617593E1,-6.768614769E0,4.142095447E-1,7.075081825E0
1.970817439E1,-6.785374641E0,3.830839694E-1,6.948185444E0
1.972017279E1,-6.823683262E0,4.525179267E-1,6.893116951E0
1.973217129E1,-6.967339516E0,4.405465722E-1,6.615381241E0
1.974416975E1,-7.113390446E0,4.189980924E-1,6.387925148E0
1.975616768E1,-7.099024773E0,3.806896806E-1,6.253845692E0
1.976816638E1,-6.962551117E0,2.873129845E-1,6.440599442E0
1.978016538E1,-6.866780281E0,3.040728867E-1,6.756643295E0
1.979216385E1,-6.814105988E0,3.567469418E-1,6.952973843E0
1.980416231E1,-6.859597206E0,3.112557232E-1,6.938608170E0
1.981616164E1,-6.993676662E0,2.944957912E-1,6.835654736E0
1.982815981E1,-7.146910191E0,2.657645047E-1,6.730306625E0
1.984015781E1,-7.194795609E0,2.944957912E-1,6.672843933E0
1.985215634E1,-7.139727592E0,3.519583941E-1,6.775797844E0
1.986415437E1,-7.175641537E0,3.878725171E-1,6.845231533E0
1.987615277E1,-7.213950157E0,4.237866402E-1,6.864386082E0
1.988815123E1,-7.292961121E0,4.668835998E-1,6.720729351E0
1.990014976E1,-7.273807049E0,4.764606953E-1,6.538764477E0
1.991214843E1,-7.266623974E0,4.118152559E-1,6.426233768E0
1.992414746E1,-7.254652500E0,3.280156553E-1,6.469330311E0
1.993614525E1,-7.230710030E0,2.705530524E-1,6.493273258E0
1.994814392E1,-7.204372883E0,3.016786277E-1,6.524398804E0
1.996014251E1,-7.190007210E0,3.232271075E-1,6.627352715E0
1.997214091E1,-7.273807049E0,3.447755575E-1,6.660872459E0
1.998413938E1,-7.261835575E0,3.878725171E-1,6.696786404E0
1.999613878E1,-7.290566921E0,3.926610649E-1,6.665660858E0
2.000813731E1,-7.345634937E0,4.237866402E-1,6.651295185E0
2.002013577E1,-7.369577885E0,4.453351200E-1,6.646506786E0
2.003213384E1,-7.501263142E0,4.644893110E-1,6.593832970E0
2.004413230E1,-7.609005451E0,5.722316504E-1,6.617775440E0
2.005612987E1,-7.640130997E0,5.554717779E-1,6.687209606E0
2.006812833E1,-7.539571285E0,4.812492430E-1,6.919454098E0
2.008012673E1,-7.386337757E0,4.213923812E-1,7.075081825E0
2.009212560E1,-7.213950157E0,2.777358890E-1,7.190007210E0
2.010412413E1,-6.988888264E0,2.442160249E-1,7.364789486E0
2.011612256E1,-6.888328552E0,2.537931204E-1,7.479714394E0
2.012812096E1,-7.008042336E0,2.154847383E-1,7.371972084E0
2.014011942E1,-7.094236374E0,1.915419847E-1,7.307326794E0
2.015211789E1,-7.077476501E0,1.843591630E-1,7.259441376E0
2.016411635E1,-6.974522591E0,1.604164094E-1,7.297749519E0
2.017611575E1,-6.850020409E0,2.202732861E-1,7.269018173E0
2.018811422E1,-6.718335152E0,2.705530524E-1,7.127756119E0
2.020011268E1,-6.663266659E0,3.998439014E-1,7.034379482E0
2.021211114E1,-6.651295185E0,5.027977228E-1,6.969734192E0
2.022410961E1,-6.612987041E0,5.291347504E-1,6.885934353E0
2.023610801E1,-6.610592842E0,4.620950520E-1,6.761432171E0
2.024810647E1,-6.603409767E0,2.992843390E-1,6.656084061E0
2.026010500E1,-6.577073097E0,2.083019018E-1,6.562707424E0
2.027210347E1,-6.591438770E0,1.891477108E-1,6.775797844E0
2.028410187E1,-6.620169640E0,1.005595401E-1,7.118178844E0
2.029609940E1,-6.751854897E0,5.506832153E-2,7.350423813E0
2.030809796E1,-7.017619610E0,9.577099234E-2,7.292961121E0
2.032009663E1,-7.158881664E0,1.388679445E-1,6.897905827E0
2.033209529E1,-7.230710030E0,1.364736706E-1,6.557918549E0
2.034409395E1,-7.209161282E0,2.681587934E-1,6.466936111E0
2.035409402E1,-7.156487465E0,2.992843390E-1,6.452570438E0
2.036609261E1,-7.175641537E0,2.825244367E-1,6.361588001E0
2.037809101E1,-7.223526955E0,2.657645047E-1,6.385530949E0
2.039008948E1,-7.257047176E0,3.136500120E-1,6.462147713E0
2.040208794E1,-7.312115192E0,2.681587934E-1,6.538764477E0
2.041408654E1,-7.388731956E0,2.250618339E-1,6.727912426E0
2.042608500E1,-7.513234138E0,2.011190802E-1,6.878751755E0
2.043808354E1,-7.611399651E0,1.364736706E-1,6.895511627E0
2.045008200E1,-7.683228016E0,1.340793967E-1,6.888328552E0
2.046208047E1,-7.692804813E0,1.316851079E-1,6.883540154E0
2.047407770E1,-7.580274105E0,1.723877788E-1,6.869174480E0
2.048607610E1,-7.367183685E0,2.250618339E-1,6.713546753E0
2.049807450E1,-7.374366283E0,2.226675600E-1,6.672843933E0
2.051007303E1,-7.491685867E0,2.274561077E-1,6.548341751E0
2.052207156E1,-7.601822376E0,2.154847383E-1,6.682421207E0
2.053407089E1,-7.585062504E0,2.083019018E-1,6.864386082E0
2.054606936E1,-7.577879906E0,1.915419847E-1,6.907482624E0
2.055806792E1,-7.458166122E0,1.675992310E-1,6.909877300E0
2.057006682E1,-7.374366283E0,1.963305324E-1,6.775797844E0
2.058206601E1,-7.257047176E0,2.561874092E-1,6.711152077E0
2.059406558E1,-7.130150318E0,3.088614643E-1,6.672843933E0
2.060606541E1,-7.027196407E0,3.543526828E-1,6.565101624E0
2.061806524E1,-6.900300026E0,2.537931204E-1,6.634535313E0
2.063006487E1,-6.806923389E0,2.729473412E-1,6.878751755E0
2.064206450E1,-6.914665699E0,2.250618339E-1,6.972128391E0
2.065406326E1,-7.053533554E0,1.891477108E-1,6.914665699E0
2.066606243E1,-7.173247337E0,1.891477108E-1,6.897905827E0
2.067806149E1,-7.127756119E0,2.897072434E-1,6.883540154E0
2.069006039E1,-6.998465061E0,2.849186957E-1,6.835654736E0
2.070205882E1,-6.876357079E0,3.136500120E-1,6.847625732E0
2.071405742E1,-6.771008968E0,3.447755575E-1,7.003253937E0
2.072605588E1,-6.775797844E0,3.878725171E-1,7.099024773E0
2.073805428E1,-6.854808807E0,3.854782581E-1,7.096630573E0
2.075005265E1,-7.058321953E0,3.974496126E-1,6.933819771E0
2.076205118E1,-7.254652500E0,3.926610649E-1,6.639324188E0
2.077404975E1,-7.276201248E0,4.764606953E-1,6.505244732E0
2.078604821E1,-7.113390446E0,5.865973234E-1,6.653689861E0
2.079804661E1,-7.048745155E0,6.249057055E-1,6.725517750E0
2.081004454E1,-7.039167881E0,6.273000240E-1,6.687209606E0
2.082204300E1,-7.101418972E0,6.392713785E-1,6.620169640E0
2.083404130E1,-7.082264900E0,6.009629965E-1,6.682421207E0
2.084603970E1,-7.091842175E0,5.530774593E-1,6.773403645E0
2.085803823E1,-7.156487465E0,4.932205975E-1,6.842837334E0
2.087003683E1,-7.216344357E0,4.166038036E-1,6.952973843E0
2.088203530E1,-7.259441376E0,4.118152559E-1,7.096630573E0
2.089403406E1,-7.278595448E0,3.375927508E-1,7.120573044E0
2.090603253E1,-7.173247337E0,3.112557232E-1,7.010436535E0
2.091803052E1,-7.041562080E0,3.208328187E-1,6.852414608E0
2.093002972E1,-6.809317589E0,4.166038036E-1,6.639324188E0
2.094202819E1,-6.627352715E0,4.309694767E-1,6.490879059E0
2.095402592E1,-6.481301785E0,4.932205975E-1,6.404685020E0
2.096602438E1,-6.423839092E0,6.081457734E-1,6.450176239E0
2.097802332E1,-6.488484859E0,5.722316504E-1,6.553130150E0
2.099002151E1,-6.668055534E0,5.363175869E-1,6.703969479E0
2.100201978E1,-6.976916790E0,4.381522834E-1,6.893116951E0
2.101401831E1,-7.163670063E0,4.046324492E-1,7.067899227E0
2.102601691E1,-7.211555958E0,4.429408312E-1,7.197190285E0
2.103801557E1,-7.190007210E0,4.764606953E-1,7.216344357E0
2.105001417E1,-7.134938717E0,4.620950520E-1,7.201978683E0
2.106201296E1,-7.005648136E0,4.692778587E-1,7.211555958E0
2.107401210E1,-6.900300026E0,5.291347504E-1,7.233104229E0
2.108601069E1,-6.821289062E0,5.865973234E-1,7.336058140E0
2.109800916E1,-6.854808807E0,6.225114465E-1,7.336058140E0
2.111000762E1,-6.917059898E0,6.943396926E-1,7.242681503E0
2.112200609E1,-7.012830734E0,7.613793612E-1,7.031985283E0
2.113400498E1,-7.101418972E0,8.068706393E-1,6.924242973E0
2.114600345E1,-7.151699066E0,8.739103079E-1,6.900300026E0
2.115800148E1,-7.161275864E0,8.427847624E-1,6.962551117E0
2.116999995E1,-7.060716629E0,8.571503758E-1,7.149304390E0
2.118199848E1,-6.852414608E0,7.853221297E-1,7.252258301E0
2.119399604E1,-6.617775440E0,7.589851022E-1,7.276201248E0
2.120599444E1,-6.419050694E0,7.326480746E-1,7.257047176E0
2.121799327E1,-6.340039730E0,7.110996246E-1,7.257047176E0
2.122999174E1,-6.383136749E0,7.206767201E-1,7.302538395E0
2.124199020E1,-6.658478260E0,5.578660369E-1,7.230710030E0
2.125398870E1,-6.917059898E0,4.668835998E-1,7.103813171E0
2.126598717E1,-7.015225410E0,5.219519138E-1,7.099024773E0
2.127798546E1,-6.941002846E0,5.363175869E-1,7.204372883E0
2.128998440E1,-6.826077461E0,5.147690773E-1,7.257047176E0
2.130198286E1,-6.749460697E0,5.363175869E-1,7.199584484E0
2.131398213E1,-6.735095024E0,5.506832004E-1,7.046350956E0
2.132598059E1,-6.778192043E0,5.698373914E-1,6.854808807E0
2.133797862E1,-6.842837334E0,5.746259689E-1,6.799740314E0
2.134997669E1,-7.020013809E0,5.889915824E-1,6.816500187E0
2.136197509E1,-7.170853138E0,5.243461728E-1,6.787769318E0
2.137397262E1,-7.245075703E0,5.315290093E-1,6.895511627E0
2.138597108E1,-7.118178844E0,5.794144869E-1,7.134938717E0
2.139797012E1,-6.907482624E0,6.488484740E-1,7.237892628E0
2.140996808E1,-6.639324188E0,7.637736797E-1,7.228315830E0
2.142196654E1,-6.545947552E0,8.332076073E-1,6.960156918E0
2.143196661E1,-6.579467297E0,9.553156495E-1,6.653689861E0
2.144396534E1,-6.675238132E0,1.031932473E0,6.414262295E0
2.145596404E1,-6.866780281E0,1.003201127E0,6.253845692E0
2.146796270E1,-6.950579643E0,9.265843630E-1,6.335251331E0
2.147996143E1,-6.941002846E0,9.146129489E-1,6.696786404E0
2.149195976E1,-6.840443134E0,7.948992252E-1,7.269018173E0
2.150395816E1,-6.744672298E0,9.170072675E-1,7.618582249E0
2.151595662E1,-6.890722752E0,9.648927450E-1,7.415069103E0
2.152795516E1,-6.943397045E0,7.661679387E-1,7.206767082E0
2.153995465E1,-6.852414608E0,6.943396926E-1,7.096630573E0
2.155195122E1,-6.730306625E0,7.757450342E-1,7.060716629E0
2.156394962E1,-6.651295185E0,8.116591573E-1,6.991282463E0
2.157594818E1,-6.610592842E0,8.810931444E-1,6.972128391E0
2.158794665E1,-6.799740314E0,8.978530765E-1,7.084659100E0
2.159994451E1,-6.991282463E0,7.781392932E-1,7.094236374E0
2.161194451E1,-7.137333393E0,7.589851022E-1,7.137333393E0
2.162394297E1,-7.079870701E0,8.116591573E-1,7.149304390E0
2.163594120E1,-6.893116951E0,8.379961848E-1,7.197190285E0
2.164793970E1,-6.502850533E0,8.715160489E-1,7.192401409E0
2.165993830E1,-6.356799603E0,9.433442950E-1,7.213950157E0
2.167193730E1,-6.239480019E0,9.194015265E-1,7.010436535E0
2.168393643E1,-6.332856655E0,1.110943556E0,6.938608170E0
2.169593589E1,-6.572284222E0,9.265843630E-1,7.175641537E0
2.170793512E1,-6.605803967E0,4.740664065E-1,7.441406250E0
2.171993412E1,-6.445387840E0,4.549122155E-1,7.661679268E0
2.173193222E1,-6.294548512E0,5.913859010E-1,7.747873306E0
2.174393088E1,-6.328068256E0,7.661679387E-1,7.625765324E0
2.175592922E1,-6.395108223E0,8.116591573E-1,7.264229774E0
2.176792762E1,-6.498061657E0,7.087053657E-1,7.113390446E0
2.177992615E1,-6.505244732E0,7.326480746E-1,7.127756119E0
2.179192541E1,-6.502850533E0,7.877163887E-1,7.355212212E0
2.180392388E1,-6.335251331E0,7.446194887E-1,7.671256542E0
2.181592241E1,-6.083852291E0,7.565908432E-1,7.858009815E0
2.182792087E1,-6.083852291E0,7.685621977E-1,7.937020779E0
2.183991934E1,-6.265817165E0,6.608198285E-1,7.716747761E0
2.185191704E1,-6.483695984E0,4.237866402E-1,7.450983047E0
2.186391550E1,-6.431022167E0,4.884320498E-1,7.367183685E0
2.187591390E1,-6.227508545E0,6.799740195E-1,7.324086666E0
2.188791236E1,-6.079063892E0,9.457385540E-1,7.395915031E0
2.189991083E1,-5.786962032E0,1.041509509E0,7.439012051E0
2.191190933E1,-5.585843086E0,1.043903828E0,7.343240738E0
2.192390773E1,-5.516408920E0,1.022355318E0,7.161275864E0
2.193590626E1,-5.473312378E0,1.082212210E0,7.058321953E0
2.194790479E1,-5.403878212E0,1.118126392E0,6.988888264E0
2.195990315E1,-5.583448887E0,1.005595446E0,7.192401409E0
2.197190289E1,-5.456552505E0,7.182824612E-1,7.601822376E0
2.198390135E1,-5.035160065E0,5.961744189E-1,8.035185814E0
2.199589918E1,-4.697566986E0,5.794144869E-1,8.468549728E0
2.200789765E1,-4.336031914E0,5.363175869E-1,8.743891716E0
2.201989621E1,-3.981678963E0,5.411061049E-1,8.636149406E0
2.203189428E1,-4.039141655E0,4.501236677E-1,8.518829346E0
2.204389274E1,-4.213923454E0,2.011190802E-1,8.236305237E0
2.205589191E1,-4.264203548E0,-6.464541703E-2,8.150111198E0
2.206789054E1,-3.924216509E0,-2.753416002E-1,8.605023384E0
2.207988913E1,-3.615355015E0,-4.381522834E-1,9.354432106E0
2.209188796E1,-2.992843628E0,-1.891477108E-1,1.008229160E1
2.210388669E1,-2.384697676E0,1.364736706E-1,1.098732662E1
2.211588529E1,-1.929785490E0,6.703969836E-2,1.140153694E1
2.212788372E1,-1.326428294E0,-6.464541703E-2,1.148054790E1
2.213988218E1,-1.012778282E0,-3.830839694E-1,1.071916866E1
2.215187995E1,-1.024749637E0,-6.081457734E-1,1.030974770E1
2.216387842E1,-1.194743156E0,-6.488484740E-1,9.905115128E0
2.217587595E1,-1.599375606E0,-7.829278708E-1,9.696812630E0
2.218787441E1,-1.668809533E0,-5.913859010E-1,1.038636398E1
2.219987338E1,-1.079817891E0,-3.040728867E-1,1.052283764E1
2.221187228E1,-3.351984620E-1,-5.985686928E-2,9.047964096E0
2.222387074E1,-4.788549617E-3,-5.985686928E-2,8.674457550E0
2.223387127E1,9.098244458E-2,7.901106775E-2,9.270631790E0
2.224586974E1,1.316851079E-1,5.075862408E-1,1.059706020E1
2.225786777E1,-5.506832153E-2,6.799740195E-1,1.110225201E1
2.226986547E1,-2.202732861E-1,6.177229285E-1,1.138477707E1
2.228186466E1,-5.650488734E-1,2.753416002E-1,1.123154354E1
2.229386176E1,-1.819648892E-1,5.219519138E-1,1.084606457E1
2.230586023E1,1.771763414E-1,8.092648983E-1,1.018763924E1
2.231785983E1,2.394274771E-1,7.829278708E-1,1.000088596E1
2.232985899E1,4.908263385E-1,8.691217303E-1,9.725543976E0
2.234185672E1,6.057515144E-1,8.308133483E-1,9.098244667E0
2.235385569E1,4.884320498E-1,7.996878028E-1,8.753468513E0
2.236585415E1,4.716721475E-1,1.039115310E0,8.365595818E0
2.237785098E1,3.854782581E-1,1.223474383E0,8.303344727E0
2.238984878E1,2.250618339E-1,1.307274103E0,8.432636261E0
2.240184731E1,-1.628106833E-1,1.221080184E0,8.281796455E0
2.241384535E1,-2.059076279E-1,1.379102230E0,8.621783257E0
2.242584338E1,-8.379961550E-2,1.144463301E0,9.658504486E0
2.243784228E1,1.364736706E-1,1.024749637E0,1.043424988E1
2.244984064E1,5.075862408E-1,1.010383964E0,1.124351406E1
2.246183911E1,5.554717779E-1,8.332076073E-1,1.160983849E1
2.247383800E1,4.716721475E-1,6.919454336E-1,1.146857643E1
2.248583703E1,3.136500120E-1,7.494080067E-1,1.089873886E1
2.249783570E1,2.968900800E-1,8.379961848E-1,1.046298122E1
2.250983529E1,3.830839694E-1,9.720755816E-1,1.015651417E1
2.252183396E1,4.142095447E-1,9.720755816E-1,9.902720451E0
2.253383255E1,3.854782581E-1,9.385557175E-1,9.835680962E0
2.254583102E1,4.237866402E-1,1.120520592E0,1.003919411E1
2.255782948E1,5.315290093E-1,1.245022893E0,1.053720379E1
2.256982795E1,6.656084061E-1,1.304879785E0,1.148533630E1
2.258182635E1,9.481328130E-1,1.328822494E0,1.250769138E1
2.259382481E1,1.137280583E0,1.316851139E0,1.357553864E1
2.260582334E1,1.395862222E0,1.671203852E0,1.431297493E1
2.261782188E1,1.149251938E0,1.668809533E0,1.452606487E1
2.262981941E1,4.836435020E-1,1.529941559E0,1.443987179E1
2.264181781E1,-3.280156553E-1,1.412622094E0,1.410946178E1
2.265381680E1,-1.719089270E0,1.776551962E0,1.420283794E1
2.266581634E1,-2.822849989E0,1.443747759E0,1.346300697E1
2.267781480E1,-3.023969173E0,1.568249941E0,1.258909702E1
2.268981413E1,-2.502017260E0,1.915419817E0,8.341653824E0
2.270181296E1,-2.083019018E0,1.867534399E0,6.007235527E0
2.271381139E1,-2.296109438E0,1.659232497E0,3.093403101E0
2.272580965E1,5.099805593E-1,4.415042877E0,-1.436564922E-1
2.273780925E1,4.094210148E0,7.343240738E0,-5.746259540E-2
2.274980848E1,6.644112587E0,1.001525116E1,2.990449190E0
2.276180815E1,2.767781734E0,6.569890022E0,6.014418125E0
2.277180834E1,-2.202732861E-1,4.070267200E0,8.075888634E0
2.278380794E1,-3.639297783E-1,5.097411156E0,8.648120880E0
2.279580710E1,1.340793967E-1,6.550735950E0,8.209968567E0
2.280780624E1,-2.083019018E-1,6.816500187E0,7.527599812E0
2.281980493E1,-1.556278616E-1,6.320885658E0,7.393520832E0
2.283180330E1,-7.039167881E-1,6.598621368E0,8.236305237E0
2.284380176E1,-9.194015265E-1,7.328875065E0,8.885153770E0
2.285580100E1,-6.464542150E-1,6.823683262E0,8.978530884E0
2.286779899E1,3.639297783E-1,6.313702583E0,7.587456703E0
2.287979836E1,1.434170604E0,6.179623127E0,5.537957668E0
2.289179676E1,1.515576005E0,6.244268894E0,4.158855438E0
2.290379522E1,4.022381604E-1,6.395108223E0,3.878725290E0
2.291579309E1,-5.315290093E-1,6.775797844E0,3.962524891E0
2.292779208E1,-1.113337755E0,6.957762718E0,4.288146019E0
2.293979048E1,-1.422199249E0,6.938608170E0,4.556304932E0
2.295178922E1,-1.386285067E0,6.921848297E0,4.963331699E0
2.296378768E1,-1.216291547E0,6.873962879E0,5.549929142E0
2.297578614E1,-1.017566800E0,6.974522591E0,6.275394440E0
2.298778454E1,-5.363175869E-1,7.115784645E0,6.660872459E0
2.299978207E1,-4.070267081E-2,7.166064739E0,6.562707424E0
2.301178034E1,1.149251908E-1,7.087053299E0,6.519610405E0
2.302377887E1,3.567469418E-1,7.103813171E0,6.402290821E0
2.303577710E1,4.333637357E-1,7.151699066E0,6.325674057E0
2.304777550E1,2.418217510E-1,7.149304390E0,5.985687256E0
2.305977397E1,2.561874092E-1,7.261835575E0,5.667248249E0
2.307177243E1,2.729473412E-1,7.379155159E0,5.269798756E0
2.308377090E1,-3.830839694E-2,7.431828976E0,5.413455486E0
2.309576909E1,-7.901106775E-2,7.429434776E0,6.074275017E0
2.310776763E1,-9.337671846E-2,7.319298267E0,6.859597206E0
2.311976666E1,1.987248063E-1,7.307326794E0,7.314509392E0
2.313176556E1,6.943396926E-1,7.223526955E0,7.697593689E0
2.314376395E1,9.529213905E-1,7.122967720E0,8.114197731E0
2.315576285E1,1.156434774E0,7.130150318E0,8.032792091E0
2.316776132E1,1.170800328E0,7.180429935E0,7.652102470E0
2.317975932E1,9.194015265E-1,7.233104229E0,7.441406250E0
2.319175754E1,7.877163887E-1,7.276201248E0,7.292961121E0
2.320375578E1,9.170072675E-1,7.383943558E0,6.960156918E0
2.321575444E1,9.026415944E-1,7.400703430E0,6.624958515E0
2.322775307E1,7.996878028E-1,7.544359684E0,6.629746914E0
2.323975263E1,8.332076073E-1,7.561120033E0,6.653689861E0
2.325175103E1,8.810931444E-1,7.391126156E0,6.883540154E0
2.326374993E1,9.720755816E-1,7.285778046E0,7.151699066E0
2.327574803E1,1.182771802E0,7.211555958E0,7.352818012E0
2.328774652E1,1.391073704E0,7.139727592E0,7.419857502E0
2.329974486E1,1.553884387E0,7.106207848E0,7.403097630E0
2.331174362E1,1.726272106E0,7.094236374E0,7.163670063E0
2.332367742E1,1.781340480E0,7.110996246E0,6.778192043E0
2.333567588E1,1.592192769E0,7.187613010E0,6.442993641E0
2.334767434E1,1.134886265E0,7.285778046E0,6.079063892E0
2.335967208E1,1.067846537E0,7.388731956E0,5.772596359E0
2.337167031E1,1.125309110E0,7.453377247E0,5.571477413E0
2.338366877E1,1.216291547E0,7.434223175E0,5.684008598E0
2.339566767E1,1.213897347E0,7.276201248E0,6.088640690E0
2.340766607E1,1.261782765E0,7.235498428E0,6.371165276E0
2.341966500E1,1.352765322E0,7.213950157E0,6.426233768E0
2.343166347E1,1.297696948E0,7.158881664E0,6.378347874E0
2.344366200E1,1.352765322E0,7.185218811E0,6.299336910E0
2.345566040E1,1.508393168E0,7.101418972E0,6.186806202E0
2.346765886E1,1.331216812E0,6.998465061E0,6.292154312E0
2.347965766E1,1.108549237E0,7.010436535E0,6.385530949E0
2.349165609E1,6.177229285E-1,6.993676662E0,6.866780281E0
2.350365496E1,3.519583941E-1,7.118178844E0,7.175641537E0
2.351565342E1,5.339232683E-1,7.094236374E0,7.055927753E0
2.352765195E1,9.960182905E-1,7.154093266E0,6.696786404E0
2.353965049E1,1.249811411E0,7.110996246E0,6.519610405E0
2.355164942E1,1.326428294E0,7.041562080E0,6.577073097E0
2.356364735E1,1.338399649E0,7.142121792E0,6.737489223E0
2.357564581E1,1.292908430E0,7.170853138E0,6.732700825E0
2.358764434E1,1.144463301E0,7.127756119E0,6.620169640E0
2.359964341E1,8.260248303E-1,7.125361919E0,6.629746914E0
2.361164157E1,5.578660369E-1,7.178035736E0,6.694392204E0
2.362364030E1,3.567469418E-1,7.122967720E0,6.790163517E0
2.363563896E1,2.873129845E-1,7.182824612E0,6.948185444E0
2.364763756E1,3.304099143E-1,7.192401409E0,7.031985283E0
2.365963462E1,3.711125851E-1,7.170853138E0,7.060716629E0
2.367163309E1,4.477293789E-1,7.288172722E0,7.106207848E0
2.368363155E1,3.735068738E-1,7.316903591E0,7.137333393E0
2.369563009E1,3.112557232E-1,7.307326794E0,7.082264900E0
2.370762855E1,2.202732861E-1,7.316903591E0,6.883540154E0
2.371962695E1,2.035133541E-1,7.295355320E0,6.696786404E0
2.373162541E1,2.681587934E-1,7.221132755E0,6.677632332E0
2.374362388E1,4.333637357E-1,7.149304390E0,6.536370277E0
2.375562234E1,4.453351200E-1,7.041562080E0,6.296942711E0
2.376762074E1,2.753416002E-1,6.969734192E0,6.122160912E0
2.377962021E1,2.442160249E-1,7.048745155E0,6.026389599E0
2.379161881E1,3.759011328E-1,7.096630573E0,5.863578796E0
2.380361750E1,4.884320498E-1,7.118178844E0,5.849213123E0
2.381561630E1,4.333637357E-1,7.211555958E0,6.016812801E0
2.382761550E1,4.644893110E-1,7.357606411E0,6.143709183E0
2.383961476E1,5.554717779E-1,7.441406250E0,6.091034889E0
2.385161396E1,6.033572555E-1,7.527599812E0,5.973715782E0
2.386361299E1,4.812492430E-1,7.623371124E0,5.992869854E0
2.387561186E1,4.333637357E-1,7.683228016E0,6.055120945E0
2.388761039E1,5.722316504E-1,7.623371124E0,6.119766235E0
2.389960792E1,8.068706393E-1,7.606611252E0,6.390319347E0
2.391160638E1,1.115732074E0,7.532388687E0,6.771008968E0
2.392360478E1,1.340793848E0,7.374366283E0,7.156487465E0
2.393560325E1,1.395862222E0,7.355212212E0,7.501263142E0
2.394760178E1,1.501210332E0,7.336058140E0,7.515628815E0
2.395960058E1,1.436564922E0,7.264229774E0,7.338452339E0
2.397159868E1,1.077423692E0,7.218738556E0,7.067899227E0
2.398359714E1,8.092648983E-1,7.254652500E0,6.725517750E0
2.399559517E1,7.613793612E-1,7.280989647E0,6.311308384E0
2.400759364E1,8.140534163E-1,7.276201248E0,6.105400562E0
2.401959230E1,7.326480746E-1,7.266623974E0,6.227508545E0
2.403159063E1,6.727912426E-1,7.223526955E0,6.538764477E0
2.404358916E1,6.847625971E-1,7.120573044E0,6.713546753E0
2.405558766E1,8.403904438E-1,7.017619610E0,6.747066498E0
2.406758613E1,1.077423692E0,6.876357079E0,6.696786404E0
2.407958399E1,1.233051538E0,6.780586243E0,6.778192043E0
2.409158239E1,1.221080184E0,6.720729351E0,6.972128391E0
2.410358086E1,1.173194647E0,6.703969479E0,7.249864101E0
2.411558036E1,1.175588965E0,6.684815407E0,7.340846539E0
2.412757875E1,1.101366401E0,6.682421207E0,7.204372883E0
2.413957772E1,1.015172482E0,6.744672298E0,7.079870701E0
2.415157668E1,8.715160489E-1,6.811711788E0,7.003253937E0
2.416357515E1,5.650488734E-1,6.787769318E0,6.917059898E0
2.417557311E1,3.160442710E-1,6.790163517E0,6.938608170E0
2.418757158E1,7.901106775E-2,6.792557716E0,7.003253937E0
2.419957014E1,5.985686928E-2,6.782980442E0,7.134938717E0
2.421156844E1,2.346389294E-1,6.775797844E0,7.201978683E0
2.422356710E1,4.980091453E-1,6.727912426E0,7.326480865E0
2.423556557E1,7.613793612E-1,6.687209606E0,7.400703430E0
2.424756423E1,8.236305118E-1,6.624958515E0,7.450983047E0
2.425956256E1,7.278595567E-1,6.624958515E0,7.501263142E0
2.427156146E1,5.411061049E-1,6.646506786E0,7.529994488E0
2.428355986E1,3.423812985E-1,6.605803967E0,7.405491829E0
2.429555839E1,3.256213665E-1,6.615381241E0,7.290566921E0
2.430755685E1,3.735068738E-1,6.615381241E0,7.149304390E0
2.431955605E1,4.620950520E-1,6.610592842E0,7.142121792E0
2.433155445E1,5.339232683E-1,6.639324188E0,7.197190285E0
2.434355291E1,5.961744189E-1,6.672843933E0,7.292961121E0
2.435555138E1,5.842030644E-1,6.672843933E0,7.419857502E0
2.436754991E1,5.099805593E-1,6.689603806E0,7.575485706E0
2.437954791E1,4.285751879E-1,6.696786404E0,7.613793850E0
2.439154631E1,3.328042030E-1,6.656084061E0,7.541965485E0
2.440354477E1,3.208328187E-1,6.663266659E0,7.362394810E0
2.441554324E1,3.567469418E-1,6.610592842E0,7.170853138E0
2.442754170E1,2.561874092E-1,6.574678421E0,7.055927753E0
2.443953963E1,7.901106775E-2,6.601015568E0,6.996070862E0
2.445153783E1,2.154847234E-2,6.711152077E0,6.890722752E0
2.446353630E1,9.098244458E-2,6.668055534E0,6.929031372E0
2.447553476E1,2.011190802E-1,6.634535313E0,7.072687626E0
2.448753316E1,3.878725171E-1,6.691998005E0,7.269018173E0
2.449953289E1,5.889915824E-1,6.703969479E0,7.417463303E0
2.451153166E1,7.063110471E-1,6.687209606E0,7.551542759E0
2.452353019E1,6.320885420E-1,6.634535313E0,7.767027378E0
2.453552865E1,4.237866402E-1,6.617775440E0,7.956175327E0
2.454752712E1,2.992843390E-1,6.553130150E0,7.846038342E0
2.455952508E1,1.652049571E-1,6.524398804E0,7.573091030E0
2.457152358E1,1.915419847E-2,6.529187202E0,7.379155159E0
2.458352205E1,4.549122229E-2,6.545947552E0,7.154093266E0
2.459552054E1,9.098244458E-2,6.524398804E0,7.008042336E0
2.460751901E1,1.867534369E-1,6.522004604E0,6.890722752E0
2.461951697E1,2.202732861E-1,6.466936111E0,6.895511627E0
2.463151564E1,2.944957912E-1,6.457359314E0,7.067899227E0
2.464351423E1,2.298503816E-1,6.421444893E0,7.321692467E0
2.465551280E1,1.484450400E-1,6.450176239E0,7.496474266E0
2.466751142E1,5.267404765E-2,6.481301785E0,7.558725357E0
2.467951082E1,5.506832153E-2,6.486090660E0,7.620976925E0
2.469150929E1,1.747820675E-1,6.553130150E0,7.592245579E0
2.470350775E1,3.519583941E-1,6.608198643E0,7.668862343E0
2.471550628E1,3.878725171E-1,6.651295185E0,7.671256542E0
2.472750475E1,3.471698463E-1,6.739883423E0,7.666468143E0
2.473950291E1,2.346389294E-1,6.873962879E0,7.644919395E0
2.475150131E1,1.723877788E-1,6.957762718E0,7.575485706E0
2.476349978E1,5.746259540E-2,6.996070862E0,7.496474266E0
2.477549824E1,-6.943397224E-2,7.099024773E0,7.376760483E0
2.478749681E1,-4.309694469E-2,7.108602047E0,7.266623974E0
2.479949597E1,9.816526622E-2,7.099024773E0,7.194795609E0
2.481149444E1,3.328042030E-1,7.108602047E0,7.273807049E0
2.482349290E1,5.722316504E-1,7.099024773E0,7.300143719E0
2.483549140E1,7.087053657E-1,7.070293427E0,7.247469902E0
2.484748996E1,6.512427330E-1,6.996070862E0,7.110996246E0
2.485948813E1,4.405465722E-1,7.003253937E0,7.178035736E0
