"Time (s)","Gyroscope x (rad/s)","Gyroscope y (rad/s)","Gyroscope z (rad/s)"
2.599152140E-1,2.133568935E-2,1.246714871E-2,3.205209970E-3
2.719113750E-1,1.339444239E-2,7.580226753E-3,3.191587701E-2
2.839098050E-1,-1.266323728E-3,5.136766005E-3,5.696135387E-2
2.959069860E-1,-2.142487653E-2,5.747631192E-3,6.673520058E-2
3.079054630E-1,-3.913996741E-2,1.246714871E-2,6.795692444E-2
3.199036950E-1,-5.502246320E-2,1.735407114E-2,5.940481275E-2
3.319021600E-1,-5.807679147E-2,1.552147511E-2,5.329615995E-2
3.439006250E-1,-4.647035152E-2,5.747631192E-3,5.085270107E-2
3.558987230E-1,-2.020314522E-2,6.358496379E-3,5.024183169E-2
3.678971880E-1,3.620598232E-3,3.304170212E-3,5.207442865E-2
3.798965530E-1,1.950309612E-2,-5.247943569E-3,6.001567841E-2
3.918949840E-1,1.400530711E-2,6.358496379E-3,7.345471531E-2
4.038934490E-1,7.896655239E-3,1.735407114E-2,7.773076743E-2
4.158923810E-1,3.009733045E-3,1.857580245E-2,6.612432748E-2
4.278904130E-1,6.674924400E-3,1.918666624E-2,3.924625739E-2
4.398888110E-1,1.278357673E-2,2.101926319E-2,9.924727492E-3
4.518872430E-1,2.011395991E-2,2.163012698E-2,-9.622960351E-3
4.638857080E-1,2.377915196E-2,1.857580245E-2,-1.206642110E-2
4.758841390E-1,1.278357673E-2,8.801957592E-3,3.816075157E-3
4.878830370E-1,6.064059213E-3,8.191092871E-3,2.641808800E-2
4.998809010E-1,9.729251266E-3,-9.718865622E-4,3.985712305E-2
5.118794330E-1,1.828136481E-2,-1.582751865E-3,3.802452981E-2
5.238774650E-1,2.377915196E-2,3.915035166E-3,2.519636042E-2
5.358759300E-1,2.805520780E-2,-2.804482123E-3,1.664424501E-2
5.478743280E-1,2.805520780E-2,-8.302269503E-3,1.542251464E-2
5.598724260E-1,1.889222860E-2,-5.247943569E-3,1.969857141E-2
5.718708910E-1,9.118385613E-3,-3.610213753E-4,3.130501136E-2
5.838698560E-1,3.620598232E-3,1.063455269E-2,4.230058566E-2
5.958687190E-1,3.009733045E-3,2.498438698E-4,5.024183169E-2
6.078673820E-1,-4.459316187E-5,-1.013486460E-2,6.001567841E-2
6.178676130E-1,-5.542380270E-3,7.580226753E-3,6.429173052E-2
6.298658430E-1,-1.470535900E-2,2.773877978E-2,6.490260363E-2
6.418648060E-1,-2.631179802E-2,3.018224053E-2,5.390702561E-2
6.538627040E-1,-5.013554543E-2,2.040839754E-2,3.374847025E-2
6.658612360E-1,-7.334841788E-2,6.969361566E-3,9.924727492E-3
6.778585010E-1,-8.739832044E-2,8.607091149E-4,-9.012094699E-3
6.898573320E-1,-8.067880571E-2,8.607091149E-4,-1.328815147E-2
7.018554300E-1,-5.929852277E-2,5.747631192E-3,7.617489900E-4
7.138544950E-1,-3.180958703E-2,1.246714871E-2,1.847684011E-2
7.258525270E-1,-6.554583670E-4,1.471574418E-3,2.519636042E-2
7.378518250E-1,2.133568935E-2,-4.637078382E-3,1.603338122E-2
7.498502900E-1,2.744434401E-2,-7.080539130E-3,-4.599815293E-4
7.618488220E-1,2.500088140E-2,-1.990870945E-2,-9.012094699E-3
7.738470200E-1,1.767049916E-2,-2.662822790E-2,-1.512074750E-2
7.858459180E-1,1.522703841E-2,-3.518034145E-2,-8.401229978E-3
7.978443160E-1,1.339444239E-2,-4.189985618E-2,-5.346903112E-3
8.098423810E-1,1.217271108E-2,-3.945639729E-2,-5.957768764E-3
8.218404130E-1,1.217271108E-2,-2.601736225E-2,-7.790364325E-3
8.338386780E-1,4.231463652E-3,-2.113043889E-2,-1.512074750E-2
8.458370760E-1,-1.409449428E-2,-1.380005665E-2,-1.328815147E-2
8.578346410E-1,-3.180958703E-2,-4.637078382E-3,-9.012094699E-3
8.698335060E-1,-5.257900059E-2,-1.563265175E-2,4.426940344E-3
8.818324040E-1,-6.662890315E-2,-2.907168679E-2,1.542251464E-2
8.938310690E-1,-5.380073562E-2,-2.418476716E-2,1.786597632E-2
9.058295340E-1,-2.203574218E-2,-7.080539130E-3,7.617489900E-4
9.178288320E-1,1.339444239E-2,-4.026212730E-3,-2.733805217E-2
9.298272970E-1,4.149424285E-2,2.498438698E-4,-5.421612039E-2
9.418253290E-1,5.859846994E-2,-2.113043889E-2,-6.704429537E-2
9.538237270E-1,6.287452579E-2,-5.350629985E-2,-5.604871735E-2
9.658221920E-1,5.187895149E-2,-5.961494893E-2,-2.550545707E-2
9.778207900E-1,3.782905266E-2,-3.762380034E-2,9.924727492E-3
9.898188890E-1,2.683347650E-2,-1.624351740E-2,2.214203216E-2
1.001817919E0,1.828136481E-2,-1.502178796E-2,9.924727492E-3
1.013816483E0,1.177137368E-3,-1.929784380E-2,-1.634247787E-2
1.025815046E0,-1.409449428E-2,-2.540649660E-2,-4.016622156E-2
1.037813709E0,-2.142487653E-2,-1.929784380E-2,-4.260968417E-2
1.049812373E0,-2.203574218E-2,-2.804482123E-3,-2.794891782E-2
1.061810371E0,-1.348362863E-2,1.124541834E-2,-9.622960351E-3
1.073808970E0,-6.153245457E-3,4.525900353E-3,7.481266279E-3
1.085807602E0,-1.877188915E-3,-6.469673477E-3,1.786597632E-2
1.097806134E0,-4.320649896E-3,-7.080539130E-3,2.336376347E-2
1.109804899E0,-7.985841483E-3,-3.610213753E-4,2.519636042E-2
1.121803830E0,-3.709784709E-3,1.471574418E-3,2.702895366E-2
1.133802328E0,6.064059213E-3,-5.247943569E-3,2.702895366E-2
1.145800793E0,1.461617276E-2,-5.858808290E-3,2.397462912E-2
1.157798524E0,1.828136481E-2,-1.196746062E-2,2.030943707E-2
1.169797623E0,2.011395991E-2,-1.318919193E-2,1.908770576E-2
1.181796088E0,1.583790220E-2,-1.624351740E-2,1.786597632E-2
1.193794619E0,5.453194026E-3,-1.563265175E-2,1.664424501E-2
1.205793017E0,-1.042930223E-2,-7.691404317E-3,1.481164899E-2
1.217791181E0,-2.447920293E-2,-4.026212730E-3,1.664424501E-2
1.229789079E0,-3.180958703E-2,2.693304792E-3,1.847684011E-2
1.241787511E0,-2.631179802E-2,3.915035166E-3,1.847684011E-2
1.253786075E0,-1.226189826E-2,-2.804482123E-3,1.358991954E-2
1.265784908E0,4.231463652E-3,-9.718865622E-4,9.924727492E-3
1.275785072E0,1.705963351E-2,-4.026212730E-3,-3.514307784E-3
1.287784335E0,2.866607346E-2,8.607091149E-4,-1.817507297E-2
1.299783531E0,2.561174706E-2,1.979753189E-2,-3.039237857E-2
1.311782329E0,1.217271108E-2,1.429974474E-2,-3.894449398E-2
1.323781261E0,-6.764111109E-3,-3.415347543E-3,-4.260968417E-2
1.335780327E0,-2.081401087E-2,-1.563265175E-2,-3.283583745E-2
1.347778792E0,-2.875526063E-2,-1.685438305E-2,-1.573161222E-2
1.359777323E0,-2.386833727E-2,-5.858808290E-3,7.481266279E-3
1.371777054E0,-1.042930223E-2,2.693304792E-3,2.702895366E-2
1.383775519E0,9.118385613E-3,-3.610213753E-4,3.191587701E-2
1.395772284E0,1.522703841E-2,-9.718865622E-4,2.275289781E-2
1.407770682E0,1.217271108E-2,1.368887909E-2,8.092131466E-3
1.419769214E0,1.034011599E-2,1.307801437E-2,-1.267728582E-2
1.431766912E0,1.095098071E-2,-7.691404317E-3,-2.245113067E-2
1.443765377E0,6.674924400E-3,-8.302269503E-3,-1.939680427E-2
1.455763841E0,-4.459316187E-5,-1.582751865E-3,-7.790364325E-3
1.467762306E0,-6.153245457E-3,-5.858808290E-3,1.053559314E-2
1.479760771E0,-1.104016788E-2,2.693304792E-3,2.947241627E-2
1.491759403E0,-1.042930223E-2,-2.193617169E-3,4.107885435E-2
1.503758801E0,-6.764111109E-3,-3.415347543E-3,4.168972000E-2
1.515758833E0,1.788002555E-3,4.525900353E-3,2.580722421E-2
1.527757298E0,2.398867859E-3,1.471574418E-3,9.313862771E-3
1.539755763E0,-7.985841483E-3,-7.691404317E-3,-6.568633951E-3
1.551753694E0,-1.653795503E-2,-1.807611249E-2,-1.206642110E-2
1.563751026E0,-2.325747348E-2,-1.196746062E-2,-5.957768764E-3
1.575748358E0,-1.898141578E-2,9.412822314E-3,1.175732352E-2
1.587746890E0,-1.287276391E-2,6.969361566E-3,3.435933590E-2
1.599745355E0,-1.877188915E-3,3.915035166E-3,3.924625739E-2
1.611743986E0,9.118385613E-3,-8.302269503E-3,3.130501136E-2
1.623742750E0,7.896655239E-3,-1.013486460E-2,5.648671184E-3
1.635742280E0,8.507520892E-3,-3.610213753E-4,-1.939680427E-2
1.647740943E0,7.285790052E-3,-3.610213753E-4,-2.794891782E-2
1.659739573E0,3.620598232E-3,-9.718865622E-4,-1.817507297E-2
1.671738603E0,-4.320649896E-3,-7.691404317E-3,-2.903442597E-3
1.683737168E0,-1.042930223E-2,-1.441092230E-2,6.259536371E-3
1.695735633E0,-1.287276391E-2,-8.302269503E-3,-4.599815293E-4
1.707734098E0,-8.596706204E-3,-1.582751865E-3,-1.023382600E-2
1.719732529E0,-3.098919289E-3,8.607091149E-4,-2.367286198E-2
1.731730628E0,9.729251266E-3,2.693304792E-3,-3.222497553E-2
1.743729093E0,2.561174706E-2,2.498438698E-4,-3.161410987E-2
1.755726825E0,2.988780476E-2,-1.257832628E-2,-1.267728582E-2
1.767725223E0,2.377915196E-2,-2.662822790E-2,7.617489900E-4
1.779723688E0,9.729251266E-3,-1.990870945E-2,1.358991954E-2
1.791722153E0,-9.207571857E-3,-4.026212730E-3,1.420078427E-2
1.803720618E0,-2.325747348E-2,3.304170212E-3,1.420078427E-2
1.815719816E0,-2.386833727E-2,8.801957592E-3,8.702997118E-3
1.827718281E0,-2.447920293E-2,-4.026212730E-3,3.205209970E-3
1.839716813E0,-1.531622373E-2,-1.582751865E-3,-4.599815293E-4
1.851715278E0,-5.542380270E-3,4.525900353E-3,-1.681711990E-3
1.863713743E0,-6.554583670E-4,1.857580245E-2,1.983479597E-3
1.875712141E0,4.842328839E-3,2.101926319E-2,4.426940344E-3
1.887710606E0,7.285790052E-3,1.124541834E-2,4.426940344E-3
1.899708704E0,-3.098919289E-3,-8.913134225E-3,4.426940344E-3
1.911707236E0,-9.207571857E-3,-7.080539130E-3,3.205209970E-3
1.923705634E0,-4.320649896E-3,-5.858808290E-3,4.426940344E-3
1.935703233E0,7.285790052E-3,-1.380005665E-2,1.114645787E-2
1.947701698E0,2.622261271E-2,-1.746524870E-2,8.702997118E-3
1.959700196E0,4.271597415E-2,-1.074573025E-2,2.594344551E-3
1.971698594E0,4.515943676E-2,-1.257832628E-2,-4.599815293E-4
1.983696592E0,3.355299309E-2,-8.302269503E-3,-1.070846803E-3
1.995695956E0,1.950309612E-2,-1.074573025E-2,2.594344551E-3
2.007694488E0,-6.153245457E-3,-2.051957510E-2,5.648671184E-3
2.019693286E0,-1.959228143E-2,-1.380005665E-2,8.092131466E-3
2.031691882E0,-2.081401087E-2,-3.610213753E-4,1.420078427E-2
2.043691012E0,-6.153245457E-3,-1.563265175E-2,2.214203216E-2
2.055688942E0,4.231463652E-3,-3.579120710E-2,2.580722421E-2
2.067687605E0,1.095098071E-2,-2.051957510E-2,2.214203216E-2
2.079687235E0,1.339444239E-2,-5.247943569E-3,4.426940344E-3
2.091685767E0,1.583790220E-2,9.412822314E-3,-1.939680427E-2
2.103684232E0,1.950309612E-2,2.468445338E-2,-3.772276267E-2
2.115683064E0,1.217271108E-2,2.040839754E-2,-4.260968417E-2
2.127681462E0,1.788002555E-3,-9.718865622E-4,-3.100324422E-2
2.139678427E0,-1.653795503E-2,-2.357389964E-2,-6.568633951E-3
2.151676892E0,-3.669650480E-2,-1.990870945E-2,1.542251464E-2
2.163675424E0,-4.830294847E-2,2.693304792E-3,2.214203216E-2
2.175674089E0,-3.669650480E-2,1.918666624E-2,1.175732352E-2
2.187672554E0,-1.653795503E-2,2.651705034E-2,-8.401229978E-3
2.199671485E0,1.177137368E-3,2.529531904E-2,-3.466843441E-2
2.211669883E0,1.400530711E-2,2.468445338E-2,-5.421612039E-2
2.223668348E0,8.507520892E-3,2.896051109E-2,-5.421612039E-2
2.235666946E0,-9.207571857E-3,1.796493493E-2,-4.322054982E-2
2.247665411E0,-4.097256437E-2,-1.685438305E-2,-1.206642110E-2
2.259663710E0,-5.685506016E-2,-1.380005665E-2,3.497020155E-2
2.271661808E0,-4.585948586E-2,-1.582751865E-3,7.223298401E-2
2.283660206E0,-1.104016788E-2,-9.523999877E-3,8.322855085E-2
2.295657636E0,3.599645570E-2,-1.582751865E-3,6.429173052E-2
2.307656599E0,7.692442834E-2,3.304170212E-3,2.580722421E-2
2.319656163E0,9.463951737E-2,-5.858808290E-3,-1.512074750E-2
2.331656261E0,8.730913699E-2,-1.441092230E-2,-4.260968417E-2
2.343656091E0,5.493327603E-2,-2.479563095E-2,-4.871833324E-2
2.353656290E0,2.377915196E-2,-2.418476716E-2,-3.589016572E-2
2.365656020E0,-1.592708938E-2,-1.929784380E-2,-2.292577177E-3
2.377655618E0,-3.791823983E-2,-1.746524870E-2,2.763981931E-2
2.389654848E0,-4.463775456E-2,-5.247943569E-3,4.107885435E-2
2.401653179E0,-3.791823983E-2,2.082439605E-3,4.107885435E-2
2.411653277E0,-2.081401087E-2,3.915035166E-3,3.069414571E-2
2.423651543E0,7.285790052E-3,-4.026212730E-3,1.603338122E-2
2.435650075E0,3.233126551E-2,2.498438698E-4,6.870401558E-3
2.447648540E0,4.271597415E-2,2.407358959E-2,1.983479597E-3
2.459647838E0,3.294213116E-2,2.590618283E-2,-5.957768764E-3
2.471645703E0,1.339444239E-2,1.246714871E-2,-1.145555638E-2
2.483644701E0,-3.098919289E-3,-6.469673477E-3,-1.267728582E-2
2.495643533E0,-1.837055013E-2,-3.090428375E-2,-3.514307784E-3
2.507642065E0,-2.142487653E-2,-2.846082300E-2,1.114645787E-2
2.519640530E0,-1.042930223E-2,-4.026212730E-3,8.092131466E-3
2.531639461E0,8.507520892E-3,1.124541834E-2,-1.084469073E-2
2.543637926E0,2.255742066E-2,1.918666624E-2,-3.894449398E-2
2.555636024E0,2.377915196E-2,2.957137488E-2,-6.337910146E-2
2.567634489E0,1.889222860E-2,3.629089519E-2,-7.254208624E-2
2.579632887E0,7.896655239E-3,2.224099264E-2,-6.826601923E-2
2.591631419E0,-1.287276391E-2,-1.929784380E-2,-3.711189702E-2
2.603629751E0,-3.058785573E-2,-2.723909169E-2,1.603338122E-2
2.615628216E0,-3.852910176E-2,-3.415347543E-3,6.368087232E-2
2.627626614E0,-2.386833727E-2,5.136766005E-3,8.139596134E-2
2.639625212E0,-2.488054102E-3,4.525900353E-3,6.490260363E-2
2.651622744E0,2.744434401E-2,8.607091149E-4,2.092030086E-2
2.663621409E0,4.393770546E-2,-5.247943569E-3,-2.794891782E-2
2.675620407E0,4.332683980E-2,5.136766005E-3,-5.849217996E-2
2.687618872E0,2.622261271E-2,3.915035166E-3,-6.215737015E-2
2.699617203E0,1.583790220E-2,-1.563265175E-2,-4.138795286E-2
2.711616601E0,9.118385613E-3,-3.151514754E-2,-5.346903112E-3
2.723615066E0,7.896655239E-3,-2.051957510E-2,3.130501136E-2
2.735612564E0,6.674924400E-3,5.747631192E-3,5.329615995E-2
2.747611161E0,3.620598232E-3,1.674320549E-2,5.024183169E-2
2.759609891E0,-1.266323728E-3,1.429974474E-2,2.947241627E-2
2.771608554E0,-1.104016788E-2,1.368887909E-2,-4.599815293E-4
2.783607150E0,-9.207571857E-3,1.185628306E-2,-2.489459142E-2
2.795606647E0,-1.266323728E-3,1.246714871E-2,-3.283583745E-2
2.807605178E0,8.507520892E-3,3.304170212E-3,-2.245113067E-2
2.817605210E0,6.064059213E-3,-1.868698001E-2,-2.903442597E-3
2.829603608E0,3.009733045E-3,-3.334774449E-2,3.008328006E-2
2.841602940E0,-5.542380270E-3,-1.685438305E-2,4.596577957E-2
2.853601539E0,-1.775968634E-2,-3.610213753E-4,4.902010411E-2
2.865600004E0,-2.081401087E-2,1.307801437E-2,2.580722421E-2
2.877597669E0,-1.348362863E-2,1.857580245E-2,-9.622960351E-3
2.889596134E0,7.896655239E-3,8.801957592E-3,-4.871833324E-2
2.901593866E0,2.866607346E-2,3.304170212E-3,-6.398996711E-2
2.913591764E0,4.760289937E-2,-1.135659590E-2,-5.482698977E-2
2.925590229E0,5.248981714E-2,-1.807611249E-2,-1.939680427E-2
2.937587694E0,3.660732135E-2,-2.193617169E-3,2.702895366E-2
2.949586159E0,1.095098071E-2,-1.582751865E-3,5.573961884E-2
2.961583724E0,-7.374976296E-3,-1.380005665E-2,5.207442865E-2
2.973582222E0,-1.837055013E-2,-1.563265175E-2,2.214203216E-2
2.985580620E0,-1.959228143E-2,-1.135659590E-2,-1.328815147E-2
2.997579252E0,-1.348362863E-2,8.607091149E-4,-3.527930006E-2
3.009577784E0,-9.818436578E-3,1.063455269E-2,-2.184026502E-2
3.021576382E0,-4.320649896E-3,5.136766005E-3,1.983479597E-3
3.033574780E0,-4.459316187E-5,-8.302269503E-3,3.130501136E-2
3.045573245E0,1.177137368E-3,-1.502178796E-2,4.413318262E-2
3.057572376E0,3.620598232E-3,-8.913134225E-3,4.474404454E-2
3.069570841E0,7.285790052E-3,1.368887909E-2,3.069414571E-2
3.081569539E0,7.285790052E-3,2.285185829E-2,1.297905389E-2
3.093568004E0,8.507520892E-3,2.082439605E-3,7.617489900E-4
3.105566536E0,5.662720650E-4,-1.624351740E-2,-9.012094699E-3
3.117564601E0,-6.153245457E-3,-1.380005665E-2,-1.681711990E-3
3.128179351E0,-9.207571857E-3,8.607091149E-4,7.481266279E-3
3.140177349E0,-7.374976296E-3,1.552147511E-2,1.786597632E-2
3.152175747E0,-1.877188915E-3,-3.610213753E-4,2.580722421E-2
3.164173977E0,2.398867859E-3,-1.135659590E-2,3.008328006E-2
3.176171740E0,2.398867859E-3,-1.013486460E-2,2.275289781E-2
3.188170403E0,4.842328839E-3,-5.247943569E-3,9.313862771E-3
3.200169066E0,1.788002555E-3,-9.718865622E-4,-9.622960351E-3
3.212167930E0,3.620598232E-3,-2.804482123E-3,-2.733805217E-2
3.224166828E0,4.231463652E-3,-9.523999877E-3,-2.917064913E-2
3.234166926E0,1.788002555E-3,-2.174130455E-2,-2.184026502E-2
3.246165391E0,-1.266323728E-3,-2.418476716E-2,-9.012094699E-3
3.258164056E0,3.620598232E-3,-1.318919193E-2,-2.903442597E-3
3.270162521E0,1.095098071E-2,3.304170212E-3,-5.957768764E-3
3.282160786E0,1.156184636E-2,1.002368703E-2,-9.012094699E-3
3.294158717E0,4.231463652E-3,1.429974474E-2,-5.346903112E-3
3.306157182E0,-4.459316187E-5,-7.691404317E-3,2.594344551E-3
3.318156414E0,-1.266323728E-3,-2.418476716E-2,8.702997118E-3
3.330154812E0,-1.287276391E-2,-1.868698001E-2,9.924727492E-3
3.342153344E0,-1.470535900E-2,-9.718865622E-4,2.594344551E-3
3.354151876E0,-1.042930223E-2,1.002368703E-2,-1.206642110E-2
3.366150341E0,-4.320649896E-3,4.525900353E-3,-1.939680427E-2
3.378147839E0,-4.459316187E-5,-6.469673477E-3,-1.573161222E-2
3.390146469E0,4.231463652E-3,-1.318919193E-2,1.508837158E-4
3.402145234E0,6.064059213E-3,-7.080539130E-3,8.092131466E-3
3.414144166E0,1.034011599E-2,-3.415347543E-3,9.313862771E-3
3.426143429E0,1.095098071E-2,-4.026212730E-3,8.092131466E-3
3.436143760E0,5.453194026E-3,3.304170212E-3,6.870401558E-3
3.448142891E0,1.177137368E-3,1.002368703E-2,8.092131466E-3
3.460141922E0,-6.764111109E-3,-1.196746062E-2,1.175732352E-2
3.472140722E0,-9.207571857E-3,-1.318919193E-2,1.358991954E-2
3.484139187E0,-8.596706204E-3,2.082439605E-3,9.924727492E-3
3.496137652E0,-6.554583670E-4,1.613233984E-2,-1.070846803E-3
3.508136184E0,5.453194026E-3,1.307801437E-2,-1.084469073E-2
3.520134616E0,6.064059213E-3,5.136766005E-3,-6.568633951E-3
3.532133014E0,-5.542380270E-3,3.915035166E-3,5.648671184E-3
3.544131479E0,-1.653795503E-2,-7.080539130E-3,1.297905389E-2
3.556129344E0,-2.570093423E-2,-1.441092230E-2,1.420078427E-2
3.568127809E0,-2.081401087E-2,-7.691404317E-3,6.259536371E-3
3.580126540E0,-7.985841483E-3,-4.637078382E-3,4.426940344E-3
3.592124639E0,6.064059213E-3,3.915035166E-3,3.816075157E-3
3.604123171E0,2.011395991E-2,1.491061039E-2,1.372614293E-3
3.616122203E0,2.561174706E-2,-5.247943569E-3,-3.514307784E-3
3.628121234E0,2.927693911E-2,-4.026212730E-3,-7.179499138E-3
3.640119799E0,1.644876786E-2,-3.610213753E-4,-1.389901713E-2
3.652118597E0,4.842328839E-3,-9.523999877E-3,-2.000766993E-2
3.664117062E0,-4.931515083E-3,-7.080539130E-3,-2.367286198E-2
3.676115760E0,-7.985841483E-3,8.607091149E-4,-2.306199633E-2
3.688113592E0,-5.542380270E-3,7.580226753E-3,-5.957768764E-3
3.700111357E0,-3.098919289E-3,3.304170212E-3,1.175732352E-2
3.712109922E0,-6.554583670E-4,8.191092871E-3,2.458549291E-2
3.724108387E0,-6.554583670E-4,1.246714871E-2,2.458549291E-2
3.736107351E0,-3.098919289E-3,-1.582751865E-3,1.175732352E-2
3.748105816E0,-1.266323728E-3,-5.858808290E-3,-9.012094699E-3
3.760104515E0,2.398867859E-3,-7.080539130E-3,-2.367286198E-2
3.772102613E0,-6.554583670E-4,-3.610213753E-4,-2.855978161E-2
3.784101209E0,-3.098919289E-3,1.063455269E-2,-2.794891782E-2
3.796099106E0,1.177137368E-3,5.747631192E-3,-1.023382600E-2
3.808097769E0,2.398867859E-3,-4.637078382E-3,1.603338122E-2
3.820096532E0,8.507520892E-3,-1.196746062E-2,3.497020155E-2
3.832096062E0,1.705963351E-2,-1.074573025E-2,3.985712305E-2
3.844094527E0,1.828136481E-2,2.498438698E-4,2.886154875E-2
3.856092126E0,1.583790220E-2,2.498438698E-4,5.037805531E-3
3.868090591E0,1.217271108E-2,2.498438698E-4,-1.145555638E-2
3.880089389E0,1.177137368E-3,6.358496379E-3,-2.428372577E-2
3.892087053E0,-1.531622373E-2,-1.257832628E-2,-2.428372577E-2
3.904085518E0,-2.509006858E-2,-9.523999877E-3,-1.939680427E-2
3.916083983E0,-2.692266554E-2,6.969361566E-3,-3.514307784E-3
3.928082515E0,-2.020314522E-2,1.185628306E-2,6.259536371E-3
3.940080313E0,-6.764111109E-3,1.368887909E-2,1.481164899E-2
3.952078778E0,7.896655239E-3,4.525900353E-3,2.092030086E-2
3.964077243E0,1.644876786E-2,-2.804482123E-3,1.969857141E-2
3.976076641E0,1.767049916E-2,2.498438698E-4,5.648671184E-3
3.988075039E0,1.095098071E-2,-3.415347543E-3,-9.622960351E-3
4.000073771E0,1.788002555E-3,-7.691404317E-3,-1.634247787E-2
4.012072536E0,-4.459316187E-5,-4.026212730E-3,-1.512074750E-2
4.024071068E0,5.662720650E-4,-2.193617169E-3,-1.206642110E-2
4.036069533E0,1.217271108E-2,-3.610213753E-4,-1.939680427E-2
4.048067931E0,1.644876786E-2,-2.804482123E-3,-2.306199633E-2
4.060066396E0,2.072482556E-2,8.607091149E-4,-2.489459142E-2
4.072064428E0,1.828136481E-2,2.082439605E-3,-1.512074750E-2
4.084062893E0,3.009733045E-3,-5.247943569E-3,-1.070846803E-3
4.096061458E0,-1.714882068E-2,1.002368703E-2,1.664424501E-2
4.108059990E0,-3.547477722E-2,1.368887909E-2,2.580722421E-2
4.120058455E0,-3.791823983E-2,2.693304792E-3,2.641808800E-2
4.132057353E0,-2.875526063E-2,8.607091149E-4,1.908770576E-2
4.144055751E0,-1.409449428E-2,2.082439605E-3,1.508837158E-4
4.156053116E0,6.064059213E-3,1.246714871E-2,-1.878593862E-2
4.168051581E0,1.828136481E-2,1.796493493E-2,-2.672718652E-2
4.180050146E0,2.133568935E-2,-2.804482123E-3,-1.756420918E-2
4.192048809E0,7.285790052E-3,-1.624351740E-2,4.426940344E-3
4.204047405E0,-4.931515083E-3,-2.174130455E-2,2.214203216E-2
4.216046569E0,-6.764111109E-3,-1.868698001E-2,2.763981931E-2
4.228045232E0,-6.153245457E-3,-1.013486460E-2,2.092030086E-2
4.240043862E0,3.009733045E-3,1.471574418E-3,9.924727492E-3
4.252042260E0,9.118385613E-3,2.693304792E-3,2.594344551E-3
4.264040792E0,1.339444239E-2,5.136766005E-3,-4.125173204E-3
4.276038823E0,1.339444239E-2,1.471574418E-3,-1.023382600E-2
4.288037288E0,-4.459316187E-5,8.607091149E-4,-1.634247787E-2
4.300035686E0,-1.775968634E-2,8.607091149E-4,-1.267728582E-2
4.312034151E0,-2.936612442E-2,-1.257832628E-2,-2.903442597E-3
4.324032616E0,-2.875526063E-2,-2.235217020E-2,9.313862771E-3
4.336032914E0,-1.837055013E-2,-1.257832628E-2,1.664424501E-2
4.348031379E0,-4.459316187E-5,2.693304792E-3,1.114645787E-2
4.360030011E0,1.767049916E-2,1.124541834E-2,3.205209970E-3
4.372028476E0,2.744434401E-2,1.491061039E-2,-9.622960351E-3
4.384026941E0,2.194655687E-2,8.607091149E-4,-1.878593862E-2
4.396024506E0,7.285790052E-3,-2.113043889E-2,-2.367286198E-2
4.408022904E0,-2.488054102E-3,-1.929784380E-2,-1.756420918E-2
4.420021202E0,-7.374976296E-3,1.471574418E-3,3.205209970E-3
4.432019800E0,-1.409449428E-2,8.801957592E-3,2.702895366E-2
4.444018563E0,-1.714882068E-2,1.063455269E-2,3.741366044E-2
4.456016826E0,-2.264660597E-2,8.607091149E-4,2.580722421E-2
4.468016424E0,-2.936612442E-2,-2.804482123E-3,-4.599815293E-4
4.480015855E0,-2.631179802E-2,3.915035166E-3,-2.855978161E-2
4.492015685E0,-2.142487653E-2,3.915035166E-3,-3.894449398E-2
4.504015448E0,-2.488054102E-3,-1.380005665E-2,-2.978151292E-2
4.514015680E0,1.644876786E-2,-2.235217020E-2,-1.145555638E-2
4.526015144E0,3.110953607E-2,-9.523999877E-3,6.870401558E-3
4.538014675E0,3.843991831E-2,5.747631192E-3,1.603338122E-2
4.550013673E0,3.599645570E-2,2.498438698E-4,1.236818917E-2
4.562012539E0,2.377915196E-2,-6.469673477E-3,5.037805531E-3
4.574011505E0,3.620598232E-3,-1.318919193E-2,-1.070846803E-3
4.586009970E0,-1.409449428E-2,-1.013486460E-2,-8.401229978E-3
4.598008702E0,-2.631179802E-2,-7.080539130E-3,-1.070846803E-3
4.610007167E0,-2.203574218E-2,6.358496379E-3,7.617489900E-4
4.622005399E0,-1.531622373E-2,1.124541834E-2,3.816075157E-3
4.634002897E0,-1.266323728E-3,2.163012698E-2,1.508837158E-4
4.646001362E0,7.896655239E-3,1.735407114E-2,-4.125173204E-3
4.657999493E0,7.285790052E-3,4.525900353E-3,-7.790364325E-3
4.669997958E0,-4.320649896E-3,-7.080539130E-3,-6.568633951E-3
4.681996490E0,-1.775968634E-2,-1.013486460E-2,-7.790364325E-3
4.693995988E0,-2.875526063E-2,1.471574418E-3,-4.125173204E-3
4.705994386E0,-3.364218026E-2,4.525900353E-3,-3.514307784E-3
4.717993151E0,-1.898141578E-2,2.082439605E-3,4.426940344E-3
4.729991616E0,1.339444239E-2,-4.026212730E-3,8.092131466E-3
4.741990314E0,4.149424285E-2,-9.523999877E-3,5.037805531E-3
4.753987879E0,5.493327603E-2,5.747631192E-3,-7.179499138E-3
4.765986344E0,5.859846994E-2,1.918666624E-2,-2.306199633E-2
4.777984376E0,4.393770546E-2,1.063455269E-2,-3.283583745E-2
4.789982841E0,1.522703841E-2,-3.415347543E-3,-3.222497553E-2
4.801980906E0,-1.042930223E-2,1.471574418E-3,-1.389901713E-2
4.813979204E0,-3.303131461E-2,-9.718865622E-4,1.603338122E-2
4.825977669E0,-4.585948586E-2,4.525900353E-3,3.985712305E-2
4.837976334E0,-5.318986997E-2,1.552147511E-2,4.779837281E-2
4.849974866E0,-4.952467605E-2,4.117781296E-2,3.374847025E-2
4.861973664E0,-4.219429567E-2,3.445829824E-2,9.924727492E-3
4.873973062E0,-2.386833727E-2,9.412822314E-3,-2.184026502E-2
4.885971527E0,1.788002555E-3,-1.074573025E-2,-4.077708721E-2
4.897970525E0,2.744434401E-2,-1.196746062E-2,-4.688574001E-2
4.909969121E0,5.004635453E-2,-5.247943569E-3,-2.978151292E-2
4.921967784E0,6.287452579E-2,2.498438698E-4,-7.790364325E-3
4.933966881E0,5.798760429E-2,-5.858808290E-3,1.786597632E-2
4.945965611E0,3.599645570E-2,-1.318919193E-2,3.497020155E-2
4.957963508E0,9.118385613E-3,-1.318919193E-2,2.947241627E-2
4.969961906E0,-2.020314522E-2,-7.691404317E-3,6.259536371E-3
4.981960738E0,-2.875526063E-2,-1.013486460E-2,-1.328815147E-2
4.993957903E0,-2.264660597E-2,-1.257832628E-2,-2.611632086E-2
5.005956368E0,-6.153245457E-3,-4.026212730E-3,-3.039237857E-2
5.017954999E0,1.034011599E-2,1.185628306E-2,-2.489459142E-2
5.029953531E0,2.011395991E-2,1.857580245E-2,-1.267728582E-2
5.041951629E0,1.767049916E-2,2.224099264E-2,1.983479597E-3
5.053950094E0,6.064059213E-3,2.773877978E-2,1.481164899E-2
5.065948725E0,-1.653795503E-2,2.346272208E-2,1.358991954E-2
5.077947190E0,-3.669650480E-2,1.796493493E-2,1.175732352E-2
5.089945655E0,-4.097256437E-2,5.136766005E-3,6.259536371E-3
5.101944187E0,-3.547477722E-2,-9.523999877E-3,6.870401558E-3
5.113943585E0,-1.837055013E-2,-1.013486460E-2,6.870401558E-3
5.125942583E0,-6.764111109E-3,5.747631192E-3,6.870401558E-3
5.137941048E0,-1.266323728E-3,2.498438698E-4,3.816075157E-3
5.149939513E0,-4.931515083E-3,4.178868234E-2,-1.681711990E-3
5.161937978E0,-1.287276391E-2,2.082439605E-3,-7.179499138E-3
5.173935476E0,-1.531622373E-2,-5.533889309E-2,-1.145555638E-2
5.185934042E0,-9.207571857E-3,-3.701293468E-2,-1.206642110E-2
5.197932574E0,9.118385613E-3,-1.563265175E-2,-1.084469073E-2
5.209931039E0,3.721818700E-2,-1.502178796E-2,-8.401229978E-3
5.221929437E0,5.432241410E-2,-1.074573025E-2,-5.346903112E-3
5.233928335E0,5.065722391E-2,-1.257832628E-2,1.508837158E-4
5.245925933E0,3.049866855E-2,-1.135659590E-2,5.037805531E-3
5.257924398E0,4.231463652E-3,8.607091149E-4,4.426940344E-3
5.269922863E0,-3.119872138E-2,1.185628306E-2,7.617489900E-4
5.281921328E0,-5.257900059E-2,1.857580245E-2,-1.681711990E-3
5.293920260E0,-5.624419451E-2,1.796493493E-2,-1.681711990E-3
5.305918791E0,-4.280516133E-2,8.801957592E-3,3.816075157E-3
5.317917454E0,-2.997699007E-2,5.136766005E-3,9.313862771E-3
5.329916050E0,-1.226189826E-2,1.124541834E-2,9.313862771E-3
5.341914713E0,1.177137368E-3,1.063455269E-2,3.816075157E-3
5.353912577E0,1.400530711E-2,-4.637078382E-3,-7.179499138E-3
5.365911174E0,1.644876786E-2,-8.302269503E-3,-1.084469073E-2
5.377909572E0,1.522703841E-2,-8.913134225E-3,-1.145555638E-2
5.389908037E0,2.398867859E-3,-2.804482123E-3,-4.125173204E-3
5.401906502E0,-3.098919289E-3,8.801957592E-3,-6.568633951E-3
5.411906534E0,-6.153245457E-3,1.002368703E-2,-1.070846803E-3
5.423904932E0,-6.153245457E-3,-1.013486460E-2,-5.346903112E-3
5.435903464E0,-6.764111109E-3,-1.929784380E-2,-1.084469073E-2
5.447901996E0,-4.931515083E-3,-1.563265175E-2,-1.267728582E-2
5.459900461E0,7.896655239E-3,8.607091149E-4,-1.084469073E-2
5.471898426E0,1.950309612E-2,9.412822314E-3,1.508837158E-4
5.483896891E0,2.439001575E-2,5.136766005E-3,1.969857141E-2
5.495895356E0,1.034011599E-2,-1.582751865E-3,3.497020155E-2
5.507893821E0,-1.042930223E-2,8.607091149E-4,3.130501136E-2
5.519892286E0,-2.753352933E-2,7.580226753E-3,9.924727492E-3
5.531892050E0,-3.180958703E-2,1.735407114E-2,-1.267728582E-2
5.543890849E0,-2.997699007E-2,1.002368703E-2,-2.428372577E-2
5.555889847E0,-2.631179802E-2,-4.026212730E-3,-1.573161222E-2
5.567889110E0,-1.714882068E-2,-9.523999877E-3,8.702997118E-3
5.579888306E0,-6.764111109E-3,-1.013486460E-2,2.702895366E-2
5.591886271E0,6.064059213E-3,6.969361566E-3,2.947241627E-2
5.603885269E0,8.507520892E-3,1.429974474E-2,1.053559314E-2
5.615884002E0,4.231463652E-3,1.796493493E-2,-1.389901713E-2
5.627882400E0,-1.877188915E-3,1.307801437E-2,-2.367286198E-2
5.639880865E0,-5.542380270E-3,-8.913134225E-3,-2.550545707E-2
5.651878697E0,-8.596706204E-3,-1.868698001E-2,-1.450988185E-2
5.663877162E0,-1.226189826E-2,-1.318919193E-2,-4.599815293E-4
5.675875427E0,-7.374976296E-3,-1.257832628E-2,5.648671184E-3
5.687873892E0,4.842328839E-3,-5.247943569E-3,1.372614293E-3
5.699872390E0,1.522703841E-2,2.082439605E-3,3.205209970E-3
5.711871655E0,2.377915196E-2,-3.415347543E-3,5.037805531E-3
5.723870120E0,2.927693911E-2,-1.624351740E-2,9.924727492E-3
5.735868551E0,2.683347650E-2,-8.302269503E-3,1.114645787E-2
5.747867016E0,9.118385613E-3,5.136766005E-3,5.648671184E-3
5.759865514E0,-6.153245457E-3,5.136766005E-3,-3.514307784E-3
5.771863879E0,-2.509006858E-2,-2.804482123E-3,-9.012094699E-3
5.783862277E0,-3.486391157E-2,-1.135659590E-2,-7.179499138E-3
5.795860909E0,-3.119872138E-2,2.498438698E-4,1.508837158E-4
5.807859374E0,-1.714882068E-2,5.136766005E-3,8.702997118E-3
5.819857839E0,5.662720650E-4,6.358496379E-3,1.114645787E-2
5.831856237E0,1.095098071E-2,1.674320549E-2,6.870401558E-3
5.843854702E0,7.896655239E-3,1.735407114E-2,1.372614293E-3
5.855853200E0,3.620598232E-3,3.915035166E-3,-1.070846803E-3
5.867851732E0,3.009733045E-3,-4.637078382E-3,-7.790364325E-3
5.879850197E0,7.896655239E-3,-1.807611249E-2,-1.573161222E-2
5.891847662E0,1.400530711E-2,-2.357389964E-2,-8.401229978E-3
5.903846127E0,2.072482556E-2,-1.807611249E-2,1.053559314E-2
5.915844592E0,3.110953607E-2,-3.415347543E-3,2.763981931E-2
5.927843057E0,3.782905266E-2,1.471574418E-3,2.947241627E-2
5.939841653E0,3.477472812E-2,6.358496379E-3,2.092030086E-2
5.951840617E0,2.683347650E-2,8.191092871E-3,8.702997118E-3
5.963838880E0,1.278357673E-2,7.580226753E-3,-5.346903112E-3
5.975837577E0,-9.818436578E-3,-4.637078382E-3,-1.450988185E-2
5.987836173E0,-2.875526063E-2,2.082439605E-3,-2.428372577E-2
5.999834971E0,-3.791823983E-2,3.915035166E-3,-2.550545707E-2
6.011834569E0,-4.036169872E-2,2.082439605E-3,-1.084469073E-2
6.023833501E0,-2.875526063E-2,8.801957592E-3,5.648671184E-3
6.035831966E0,-1.042930223E-2,8.801957592E-3,1.603338122E-2
6.047830364E0,9.729251266E-3,1.471574418E-3,1.664424501E-2
6.059828495E0,2.744434401E-2,5.747631192E-3,6.259536371E-3
6.071825593E0,3.721818700E-2,2.693304792E-3,-9.012094699E-3
6.083824058E0,3.782905266E-2,-2.193617169E-3,-1.939680427E-2
6.095822456E0,3.294213116E-2,2.498438698E-4,-2.245113067E-2
6.107820988E0,2.011395991E-2,-1.257832628E-2,-1.450988185E-2
6.119819520E0,3.620598232E-3,-2.723909169E-2,-7.179499138E-3
6.131818885E0,-1.165103260E-2,-2.174130455E-2,1.983479597E-3
6.143816383E0,-1.959228143E-2,8.607091149E-4,6.259536371E-3
6.155814848E0,-1.592708938E-2,1.674320549E-2,5.648671184E-3
6.167813313E0,-1.877188915E-3,1.124541834E-2,6.870401558E-3
6.179812045E0,8.507520892E-3,4.525900353E-3,3.205209970E-3
6.191810543E0,1.095098071E-2,-5.247943569E-3,-1.681711990E-3
6.203809841E0,1.788002555E-3,6.358496379E-3,-2.903442597E-3
6.215808606E0,-1.409449428E-2,1.063455269E-2,3.816075157E-3
6.227808271E0,-2.814439312E-2,-9.718865622E-4,1.236818917E-2
6.239806469E0,-2.447920293E-2,-1.135659590E-2,1.542251464E-2
6.251804200E0,-7.985841483E-3,-1.196746062E-2,6.870401558E-3
6.263801832E0,1.461617276E-2,-1.441092230E-2,-2.292577177E-3
6.275800530E0,3.599645570E-2,8.607091149E-4,-1.450988185E-2
6.287797795E0,4.332683980E-2,7.580226753E-3,-1.817507297E-2
6.299796160E0,2.927693911E-2,2.693304792E-3,-1.389901713E-2
6.311795192E0,7.896655239E-3,-1.135659590E-2,-4.736038391E-3
6.323794557E0,-1.470535900E-2,-1.318919193E-2,2.594344551E-3
6.335792588E0,-2.570093423E-2,-5.247943569E-3,3.816075157E-3
6.347791251E0,-2.447920293E-2,-9.718865622E-4,-4.736038391E-3
6.359789515E0,-1.531622373E-2,6.358496379E-3,-1.450988185E-2
6.371788512E0,-7.985841483E-3,1.857580245E-2,-2.733805217E-2
6.383787175E0,-1.042930223E-2,2.101926319E-2,-3.100324422E-2
6.395785705E0,-1.653795503E-2,1.735407114E-2,-2.122940123E-2
6.407784103E0,-2.814439312E-2,3.304170212E-3,-4.125173204E-3
6.419782368E0,-3.608564287E-2,-1.807611249E-2,1.481164899E-2
6.431779700E0,-3.364218026E-2,-1.929784380E-2,2.030943707E-2
6.443778232E0,-2.631179802E-2,3.304170212E-3,3.816075157E-3
6.455777230E0,-1.042930223E-2,1.918666624E-2,-1.817507297E-2
6.467775695E0,6.064059213E-3,1.429974474E-2,-3.405757248E-2
6.479774927E0,1.767049916E-2,6.969361566E-3,-3.833362460E-2
6.491774425E0,2.133568935E-2,-4.637078382E-3,-3.589016572E-2
6.503773390E0,1.644876786E-2,-1.013486460E-2,-3.344670311E-2
6.515770988E0,9.729251266E-3,-1.135659590E-2,-3.589016572E-2
6.527769520E0,1.461617276E-2,-2.540649660E-2,-3.589016572E-2
6.539767418E0,2.927693911E-2,-3.640206903E-2,-3.466843441E-2
6.551764650E0,4.454856738E-2,-2.357389964E-2,-3.100324422E-2
6.563762481E0,5.859846994E-2,-9.718865622E-4,-2.428372577E-2
6.575761445E0,6.226366013E-2,5.747631192E-3,-1.389901713E-2
6.587760308E0,4.882462695E-2,9.412822314E-3,5.648671184E-3
6.599760072E0,4.842328839E-3,1.063455269E-2,3.008328006E-2
6.611759870E0,-4.402688891E-2,1.613233984E-2,4.352231696E-2
6.623759734E0,-9.533956647E-2,3.506916389E-2,3.558106720E-2
6.633760265E0,-1.307697594E-1,4.545387253E-2,1.969857141E-2
6.645760028E0,-1.582586914E-1,5.339511856E-2,-1.145555638E-2
6.657759293E0,-1.661999375E-1,3.995608538E-2,-4.871833324E-2
6.669758657E0,-1.460413784E-1,2.407358959E-2,-8.109419048E-2
6.679758922E0,-1.118329316E-1,-2.193617169E-3,-9.942015260E-2
6.691757787E0,-5.318986997E-2,-3.212601319E-2,-1.134700552E-1
6.703756653E0,1.788002555E-3,-4.739764333E-2,-1.098048612E-1
6.715755618E0,7.203750312E-2,-6.633446366E-2,-8.781371266E-2
6.727754083E0,1.325131655E-1,-9.076908231E-2,-6.337910146E-2
6.739752315E0,1.538934410E-1,-1.164254174E-1,-4.871833324E-2
6.751750313E0,1.349566132E-1,-1.316970587E-1,-7.376381010E-2
6.763748778E0,1.013590395E-1,-1.481904089E-1,-1.427915841E-1
6.775746776E0,7.570269704E-2,-1.451360732E-1,-2.228149325E-1
6.787745308E0,5.187895149E-2,-1.213123426E-1,-2.930644155E-1
6.799743606E0,3.538559005E-2,-9.321253747E-2,-3.358250260E-1
6.811741971E0,3.721818700E-2,-8.466042578E-2,-3.529292345E-1
6.823740436E0,4.638116434E-2,-8.893648535E-2,-3.468205929E-1
6.835739334E0,5.493327603E-2,-8.099523187E-2,-3.315489590E-1
6.847737732E0,5.004635453E-2,-7.183225453E-2,-3.211642504E-1
6.859735597E0,3.110953607E-2,-4.800850898E-2,-3.364358544E-1
6.871734129E0,-7.985841483E-3,-2.907168679E-2,-3.865268230E-1
6.883732594E0,-5.196813866E-2,-4.128899425E-2,-4.561654627E-1
6.895731059E0,-8.923091739E-2,-6.022581458E-2,-5.245823264E-1
6.907729457E0,-1.045025513E-1,-8.160610497E-2,-5.734515786E-1
6.919728855E0,-9.961563349E-2,-8.771475405E-2,-6.009404659E-1
6.931727053E0,-6.601803750E-2,-9.076908231E-2,-6.204882264E-1
6.943725585E0,-9.207571857E-3,-1.011537835E-1,-6.369815469E-1
6.955723883E0,5.065722391E-2,-1.243666708E-1,-6.589727402E-1
6.967722348E0,9.219606221E-2,-1.402491629E-1,-6.858507395E-1
6.979720246E0,1.135763377E-1,-1.439143568E-1,-7.115071416E-1
6.991718978E0,1.361783594E-1,-1.274209917E-1,-7.377743721E-1
7.003717376E0,1.697759330E-1,-1.133710966E-1,-7.603763342E-1
7.015716408E0,1.917670965E-1,-1.243666708E-1,-7.664849758E-1
7.027714940E0,1.856584400E-1,-1.451360732E-1,-7.713719606E-1
7.039714405E0,1.453413367E-1,-1.426926255E-1,-7.848109603E-1
7.051712670E0,8.608741313E-2,-1.243666708E-1,-8.055803776E-1
7.063711266E0,1.095098071E-2,-1.359730959E-1,-8.257389665E-1
7.075709463E0,-5.624419451E-2,-1.353622377E-1,-8.477301002E-1
7.087708126E0,-9.106351435E-2,-1.152036861E-1,-8.617799878E-1
7.099706423E0,-8.190053701E-2,-1.029863805E-1,-8.654451966E-1
7.111705219E0,-4.341602698E-2,-1.054298431E-1,-8.477301002E-1
7.123703751E0,4.842328839E-3,-1.213123426E-1,-8.171868324E-1
7.135702216E0,3.843991831E-2,-1.390274316E-1,-7.915304303E-1
7.147700681E0,5.982020125E-2,-1.433034837E-1,-7.903087139E-1
7.159698146E0,6.165279821E-2,-1.237557977E-1,-8.226846457E-1
7.171696244E0,5.004635453E-2,-1.145928204E-1,-8.703321218E-1
7.183694709E0,3.599645570E-2,-1.213123426E-1,-9.167578816E-1
7.195693607E0,2.377915196E-2,-1.378057003E-1,-9.405816197E-1
7.207692072E0,2.194655687E-2,-1.469686776E-1,-9.454684854E-1
7.219691370E0,3.233126551E-2,-1.408600360E-1,-9.350838065E-1
7.231689769E0,5.126808956E-2,-1.298644543E-1,-9.283643365E-1
7.243688234E0,7.448096573E-2,-1.316970587E-1,-9.259208441E-1
7.255686332E0,8.914173394E-2,-1.347513795E-1,-9.289751649E-1
7.267684730E0,9.708297998E-2,-1.176471487E-1,-9.473010898E-1
7.279682862E0,9.891556948E-2,-1.139819548E-1,-9.686813951E-1
7.291682727E0,8.547654003E-2,-1.188688800E-1,-9.808986783E-1
7.303681192E0,7.387010008E-2,-1.316970587E-1,-9.888399839E-1
7.315679823E0,4.943549260E-2,-1.677380949E-1,-9.815095663E-1
7.327678288E0,1.644876786E-2,-1.707924157E-1,-9.692922235E-1
7.339676253E0,-9.818436578E-3,-1.359730959E-1,-9.576857686E-1
7.351673818E0,-2.142487653E-2,-1.200906038E-1,-9.491337538E-1
7.363672283E0,-1.592708938E-2,-1.384165585E-1,-9.350838065E-1
7.375670515E0,-1.409449428E-2,-1.597968489E-1,-9.198122025E-1
7.387668980E0,-2.081401087E-2,-1.744576097E-1,-9.155361056E-1
7.399668378E0,-2.875526063E-2,-1.762902141E-1,-9.301968813E-1
7.411666843E0,-3.119872138E-2,-1.744576097E-1,-9.564641118E-1
7.423665241E0,-2.325747348E-2,-1.921727210E-1,-9.772335291E-1
7.435663706E0,-5.542380270E-3,-2.221051008E-1,-9.778443575E-1
7.447662238E0,1.889222860E-2,-2.251594365E-1,-9.595184326E-1
7.459660469E0,4.271597415E-2,-1.964487582E-1,-9.393598437E-1
7.471659532E0,5.982020125E-2,-1.536882073E-1,-9.356946945E-1
7.483657995E0,6.653971970E-2,-1.610185802E-1,-9.534097910E-1
7.495656658E0,7.020491362E-2,-2.178290486E-1,-9.833421707E-1
7.507655321E0,8.120048791E-2,-2.557027042E-1,-1.005333304E0
7.519654218E0,1.117437407E-1,-2.502049208E-1,-1.016939759E0
7.531652216E0,1.490065306E-1,-2.178290486E-1,-1.016939759E0
7.543650948E0,1.636672914E-1,-1.946161687E-1,-9.992246628E-1
7.555649213E0,1.392326802E-1,-1.970596313E-1,-9.595184326E-1
7.567647678E0,7.203750312E-2,-2.001139522E-1,-8.990427852E-1
7.579646076E0,-8.596706204E-3,-1.964487582E-1,-8.575038910E-1
7.591644874E0,-7.579188794E-2,-1.830097288E-1,-8.599473834E-1
7.603643339E0,-1.203850508E-1,-1.591859907E-1,-9.020971060E-1
7.615642071E0,-1.460413784E-1,-1.408600360E-1,-9.619618654E-1
7.627640469E0,-1.582586914E-1,-1.243666708E-1,-1.015717983E0
7.639638934E0,-1.454305202E-1,-1.439143568E-1,-1.055424333E0
7.651636899E0,-1.112220660E-1,-1.799553931E-1,-1.088410974E0
7.663635397E0,-5.135727301E-2,-1.921727210E-1,-1.114678264E0
7.675633993E0,1.522703841E-2,-1.604077220E-1,-1.132393360E0
7.687632826E0,6.104193255E-2,-1.072624326E-1,-1.139112830E0
7.699631023E0,9.158518910E-2,5.136766005E-3,-1.129949808E0
7.711630520E0,1.502282619E-1,2.109983563E-1,-1.100017428E0
7.723629750E0,2.333059162E-1,3.038498759E-1,-1.070695877E0
7.735628748E0,3.353204429E-1,1.981701851E-1,-1.060311198E0
7.747627647E0,3.829679191E-1,-3.395861015E-2,-1.078637123E0
7.759626279E0,3.310443759E-1,-2.605896294E-1,-1.117121696E0
7.771624744E0,1.923779547E-1,-3.852061033E-1,-1.156827927E0
7.783623142E0,1.522703841E-2,-4.053646922E-1,-1.176986456E0
7.795621674E0,-1.344349533E-1,-3.216761351E-1,-1.158049583E0
7.807620139E0,-1.997975260E-1,-2.459288538E-1,-1.112234712E0
7.819619204E0,-1.680325270E-1,-2.612004578E-1,-1.065809011E0
7.831617602E0,-6.601803750E-2,-2.856351137E-1,-1.044428706E0
7.843616067E0,6.715057790E-2,-2.612004578E-1,-1.054813385E0
7.855614199E0,1.850475818E-1,-2.135529965E-1,-1.087800145E0
7.867612731E0,2.516318858E-1,-1.714032888E-1,-1.114067435E0
7.879610629E0,2.571296692E-1,-1.640729010E-1,-1.125673652E0
7.891609027E0,2.052061260E-1,-1.964487582E-1,-1.129338980E0
7.903607492E0,1.221284568E-1,-2.288246155E-1,-1.149497509E0
7.915606290E0,3.355299309E-2,-2.593678832E-1,-1.175764799E0
7.927604755E0,-3.425304964E-2,-2.844133675E-1,-1.178208113E0
7.939604320E0,-5.685506016E-2,-2.972415090E-1,-1.152551889E0
7.951602852E0,-2.875526063E-2,-2.954089344E-1,-1.115289092E0
7.963601384E0,4.943549260E-2,-2.929654717E-1,-1.090243578E0
7.975599849E0,1.514499784E-1,-2.764721215E-1,-1.089021802E0
7.987598247E0,2.424689084E-1,-2.636439502E-1,-1.107347727E0
7.999597079E0,2.937815785E-1,-2.789155841E-1,-1.133615017E0
8.011595544E0,2.986685038E-1,-3.009067178E-1,-1.154384375E0
8.023594009E0,2.662926614E-1,-3.259522021E-1,-1.151940942E0
8.035592474E0,2.162017077E-1,-3.790974617E-1,-1.134225845E0
8.047590939E0,1.654998958E-1,-3.900930583E-1,-1.109791279E0
8.059588537E0,1.245719120E-1,-3.662693202E-1,-1.101239085E0
8.071588135E0,1.013590395E-1,-3.387803733E-1,-1.116510749E0
8.083586600E0,8.792000264E-2,-3.002958596E-1,-1.149497509E0
8.095585630E0,8.486567438E-2,-2.709743381E-1,-1.173321247E0
8.107584293E0,9.158518910E-2,-2.746395171E-1,-1.185538530E0
8.119583790E0,1.086894199E-1,-2.795264423E-1,-1.178208113E0
8.131581953E0,1.276262403E-1,-2.721960545E-1,-1.166601658E0
8.143580549E0,1.367892176E-1,-2.532592416E-1,-1.153162718E0
8.155578581E0,1.239610538E-1,-2.276028842E-1,-1.134225845E0
8.167577046E0,8.242221922E-2,-2.153855860E-1,-1.113456368E0
8.179575011E0,2.316828445E-2,-2.135529965E-1,-1.108569622E0
8.191574209E0,-5.135727301E-2,-2.172181904E-1,-1.120176077E0
8.203572674E0,-1.246611029E-1,-2.098878026E-1,-1.137280107E0
8.215571573E0,-1.808606982E-1,-1.793445498E-1,-1.159271359E0
8.227570038E0,-2.095713615E-1,-1.512447298E-1,-1.175153852E0
8.239568803E0,-1.936888695E-1,-1.610185802E-1,-1.181873441E0
8.251565701E0,-1.454305202E-1,-2.166073173E-1,-1.171488643E0
8.263564166E0,-9.350697696E-2,-2.453179806E-1,-1.146443248E0
8.275561831E0,-3.791823983E-2,-2.331006825E-1,-1.122619390E0
8.287560363E0,8.507520892E-3,-2.068334818E-1,-1.118954182E0
8.299558461E0,3.049866855E-2,-1.781228036E-1,-1.126895547E0
8.311556659E0,2.927693911E-2,-1.830097288E-1,-1.149497509E0
8.323555124E0,1.217271108E-2,-2.428745329E-1,-1.172099471E0
8.335553589E0,-7.985841483E-3,-2.709743381E-1,-1.187982082E0
8.347551987E0,-6.153245457E-3,-2.758612335E-1,-1.196534157E0
8.359549519E0,3.416385874E-2,-2.838024795E-1,-1.188592911E0
8.371549084E0,9.097432345E-2,-2.776938379E-1,-1.162325740E0
8.383547549E0,1.477847844E-1,-2.563135624E-1,-1.118954182E0
8.395546447E0,1.722194105E-1,-2.276028842E-1,-1.076804519E0
8.407544845E0,1.575586349E-1,-1.952270418E-1,-1.047483087E0
8.419544410E0,1.068568304E-1,-1.738467515E-1,-1.035876632E0
8.431542242E0,2.622261271E-2,-1.616294384E-1,-1.032211423E0
8.443540774E0,-7.823534310E-2,-1.585751176E-1,-1.031600475E0
8.455538772E0,-1.747520566E-1,-1.494121403E-1,-1.018161535E0
8.467537304E0,-2.419472337E-1,-1.524664611E-1,-9.918943048E-1
8.479536769E0,-2.566080093E-1,-1.689598262E-1,-9.527989030E-1
8.491534834E0,-2.266755998E-1,-1.756793559E-1,-9.210339189E-1
8.503533430E0,-1.552043557E-1,-1.634620428E-1,-9.051514268E-1
8.515532060E0,-6.479631364E-2,-1.524664611E-1,-9.075948596E-1
8.527530723E0,1.705963351E-2,-1.371948421E-1,-9.234773517E-1
8.539528153E0,6.837231666E-2,-1.390274316E-1,-9.509662986E-1
8.551527216E0,8.303307742E-2,-1.689598262E-1,-9.760117531E-1
8.563525614E0,7.325924188E-2,-2.007248253E-1,-9.912833571E-1
8.575524812E0,6.165279821E-2,-2.080552131E-1,-9.906725287E-1
8.587523277E0,5.187895149E-2,-2.196616530E-1,-9.662379026E-1
8.599521009E0,5.187895149E-2,-2.361550033E-1,-9.350838065E-1
8.611518974E0,5.920933560E-2,-2.453179806E-1,-9.069840312E-1
8.623517506E0,7.448096573E-2,-2.587570250E-1,-8.880471587E-1
8.635515238E0,9.586124867E-2,-2.587570250E-1,-8.849928379E-1
8.647513703E0,1.154089347E-1,-2.489831746E-1,-8.996536136E-1
8.659512901E0,1.264045089E-1,-2.557027042E-1,-9.314186573E-1
8.671511766E0,1.276262403E-1,-2.789155841E-1,-9.595184326E-1
8.683510231E0,1.245719120E-1,-3.015175760E-1,-9.766226411E-1
8.695509196E0,1.276262403E-1,-3.125131428E-1,-9.863964915E-1
8.707508494E0,1.532825828E-1,-3.112914562E-1,-9.992246628E-1
8.719507391E0,1.917670965E-1,-3.064045012E-1,-1.013274550E0
8.731506488E0,2.113147825E-1,-2.941871881E-1,-1.020604968E0
8.743505885E0,1.966540217E-1,-2.734177709E-1,-1.022437572E0
8.755505250E0,1.581695080E-1,-2.715851963E-1,-1.023659229E0
8.767504213E0,1.129654795E-1,-2.868568003E-1,-1.034043908E0
8.779502909E0,8.975259960E-2,-3.210652769E-1,-1.055424333E0
8.791502507E0,8.975259960E-2,-3.436672986E-1,-1.071917653E0
8.803501907E0,1.312914342E-1,-3.302282393E-1,-1.081691384E0
8.815501607E0,1.978757530E-1,-3.283956647E-1,-1.086578369E0
8.827500870E0,2.717904449E-1,-3.235087395E-1,-1.086578369E0
8.837501102E0,3.084423542E-1,-3.112914562E-1,-1.070695877E0
8.849500133E0,3.047771752E-1,-2.941871881E-1,-1.053591728E0
8.861498933E0,2.577405274E-1,-2.911328673E-1,-1.039541721E0
8.873497465E0,1.740520000E-1,-2.862459421E-1,-1.032211423E0
8.885495997E0,7.020491362E-2,-2.691417336E-1,-1.034654737E0
8.897494462E0,-3.608564287E-2,-2.550918162E-1,-1.032211423E0
8.909492860E0,-1.209959090E-1,-2.428745329E-1,-1.031600475E0
8.921491325E0,-1.674216837E-1,-2.343223989E-1,-1.038320065E0
8.933489790E0,-1.716977209E-1,-2.202725112E-1,-1.057256818E0
8.945488255E0,-1.393218637E-1,-1.927835643E-1,-1.075582743E0
8.957485787E0,-8.067880571E-2,-1.549099237E-1,-1.084134936E0
8.969484252E0,-2.142487653E-2,-1.145928204E-1,-1.074361086E0
8.981483084E0,-3.098919289E-3,-7.855177671E-2,-1.041374445E0
8.993481549E0,-3.547477722E-2,-6.755619496E-2,-9.900617003E-1
9.005480014E0,-1.173307225E-1,-7.610831410E-2,-9.460794330E-1
9.017479345E0,-2.254538685E-1,-1.261992604E-1,-9.130926728E-1
9.029477810E0,-3.250249028E-1,-1.756793559E-1,-9.020971060E-1
9.041475975E0,-3.861114085E-1,-2.013356984E-1,-8.990427852E-1
9.053474106E0,-3.940526843E-1,-1.982813627E-1,-8.984318972E-1
9.065472504E0,-3.427399993E-1,-1.952270418E-1,-9.045405388E-1
9.077470936E0,-2.590514421E-1,-2.172181904E-1,-9.039297104E-1
9.089469401E0,-1.527609080E-1,-2.587570250E-1,-8.965992928E-1
9.101468199E0,-4.769208282E-2,-2.776938379E-1,-8.892689347E-1
9.113467364E0,6.348539144E-2,-2.612004578E-1,-8.801059723E-1
9.125465829E0,1.532825828E-1,-2.196616530E-1,-8.642234206E-1
9.137463460E0,1.990974694E-1,-1.726250201E-1,-8.379562497E-1
9.149462424E0,1.997083426E-1,-1.573533863E-1,-8.116890192E-1
9.161460754E0,1.673324853E-1,-1.885075271E-1,-8.000825644E-1
9.173459184E0,1.062459573E-1,-2.208833843E-1,-7.988608479E-1
9.185457847E0,4.088337719E-2,-2.135529965E-1,-8.019151688E-1
9.197457444E0,-1.226189826E-2,-2.001139522E-1,-8.006934524E-1
9.209455675E0,-4.280516133E-2,-1.952270418E-1,-7.860327363E-1
9.221453273E0,-4.463775456E-2,-1.970596313E-1,-7.756479383E-1
9.233451072E0,-3.303131461E-2,-2.129421234E-1,-7.689284682E-1
9.245449537E0,-1.653795503E-2,-2.184399068E-1,-7.701501846E-1
9.257446702E0,-1.287276391E-2,-2.233268470E-1,-7.658741474E-1
9.269445100E0,-3.913996741E-2,-2.227159739E-1,-7.420504093E-1
9.281444298E0,-6.968322396E-2,-2.318789512E-1,-7.121179700E-1
9.293443263E0,-9.656130522E-2,-2.489831746E-1,-6.846290231E-1
9.305441728E0,-1.112220660E-1,-2.636439502E-1,-6.675248146E-1
9.317440559E0,-1.258828342E-1,-2.361550033E-1,-6.650813818E-1
9.329438524E0,-1.222176403E-1,-1.897292435E-1,-6.913485527E-1
9.341436622E0,-1.002264917E-1,-1.616294384E-1,-7.444938421E-1
9.353435053E0,-7.151582092E-2,-1.561316550E-1,-8.220737576E-1
9.365433585E0,-4.647035152E-2,-1.677380949E-1,-8.886580467E-1
9.377433116E0,-4.097256437E-2,-1.970596313E-1,-9.277533889E-1
9.389432081E0,-4.097256437E-2,-2.324898094E-1,-9.405816197E-1
9.401430679E0,-3.058785573E-2,-2.526483536E-1,-9.460794330E-1
9.413428310E0,-4.320649896E-3,-2.355441451E-1,-9.515771270E-1
9.425426708E0,1.705963351E-2,-2.428745329E-1,-9.631835818E-1
9.437425173E0,2.072482556E-2,-2.581461370E-1,-9.705139995E-1
9.449423638E0,9.729251266E-3,-2.520374954E-1,-9.619618654E-1
9.461422337E0,6.674924400E-3,-2.453179806E-1,-9.515771270E-1
9.473421702E0,3.620598232E-3,-2.465397120E-1,-9.418033361E-1
9.485420100E0,-9.818436578E-3,-2.575352788E-1,-9.424141645E-1
9.497417732E0,-2.997699007E-2,-2.654765248E-1,-9.540206194E-1
9.509416197E0,-3.852910176E-2,-2.807481587E-1,-9.699031115E-1
9.521414795E0,-3.669650480E-2,-2.917437553E-1,-9.857856631E-1
9.533413193E0,-3.242045268E-2,-2.776938379E-1,-9.986137748E-1
9.545411725E0,-3.058785573E-2,-2.306572050E-1,-1.011441946E0
9.557410055E0,-2.631179802E-2,-1.915618479E-1,-1.026102781E0
9.569408718E0,-2.325747348E-2,-1.903401166E-1,-1.044428706E0
9.581407314E0,-3.486391157E-2,-2.202725112E-1,-1.055424333E0
9.593405977E0,-7.029409707E-2,-2.612004578E-1,-1.062143803E0
9.605404640E0,-1.075568795E-1,-2.654765248E-1,-1.067641616E0
9.617404038E0,-1.393218637E-1,-2.526483536E-1,-1.072528481E0
9.629402503E0,-1.655890793E-1,-2.563135624E-1,-1.078026295E0
9.641400968E0,-1.637564898E-1,-2.416527867E-1,-1.078026295E0
9.653399266E0,-1.356566846E-1,-2.172181904E-1,-1.079858899E0
9.665397731E0,-9.289611131E-2,-2.074443400E-1,-1.083523989E0
9.677396129E0,-4.219429567E-2,-1.836205870E-1,-1.089021802E0
9.689394527E0,6.674924400E-3,-1.817879975E-1,-1.089632750E0
9.701393325E0,1.767049916E-2,-2.050008923E-1,-1.090243578E0
9.713392024E0,-3.709784709E-3,-1.964487582E-1,-1.083523989E0
9.725390489E0,-4.647035152E-2,-1.652946323E-1,-1.078026295E0
9.737388587E0,-9.778303653E-2,-1.549099237E-1,-1.069474101E0
9.749387052E0,-1.435979307E-1,-1.494121403E-1,-1.062143803E0
9.761385184E0,-1.735303253E-1,-1.445252299E-1,-1.054202557E0
9.773383649E0,-1.894128323E-1,-1.463578194E-1,-1.049315572E0
9.785382114E0,-1.845258921E-1,-1.433034837E-1,-1.032211423E0
9.797381046E0,-1.570369601E-1,-1.274209917E-1,-1.010831118E0
9.809379643E0,-1.106112078E-1,-1.097059026E-1,-9.943376780E-1
9.821378506E0,-4.830294847E-2,-8.954735100E-2,-9.925051332E-1
9.833377769E0,2.255742066E-2,-8.771475405E-2,-9.937268496E-1
9.845377367E0,8.547654003E-2,-1.023755223E-1,-9.863964915E-1
9.857376197E0,1.386218071E-1,-1.072624326E-1,-9.613510370E-1
9.869376061E0,1.398435533E-1,-9.260167927E-2,-8.978210688E-1
9.881375358E0,1.013590395E-1,-1.109276265E-1,-8.471192122E-1
9.893374956E0,1.889222860E-2,-1.127602234E-1,-7.890870571E-1
9.905374219E0,-8.862005919E-2,-1.286427081E-1,-7.237244248E-1
9.915374484E0,-1.484848410E-1,-1.323079020E-1,-6.852399111E-1
9.927373515E0,-1.723085940E-1,-1.323079020E-1,-6.711900234E-1
9.939372848E0,-1.301588863E-1,-1.084841713E-1,-6.913485527E-1
9.951371380E0,-4.341602698E-2,-6.755619496E-2,-7.328873873E-1
9.963369912E0,4.760289937E-2,-2.907168679E-2,-7.811457515E-1
9.975368344E0,9.402865916E-2,-4.637078382E-3,-8.232954741E-1
9.987366742E0,5.615501106E-2,1.368887909E-2,-8.446757197E-1
9.999364707E0,-5.318986997E-2,-1.685438305E-2,-8.434540629E-1
1.001136350E1,-1.747520566E-1,-9.199080616E-2,-8.129107952E-1
1.002336197E1,-2.706578970E-1,-1.726250201E-1,-7.218918204E-1
1.003536090E1,-3.079206944E-1,-2.074443400E-1,-6.064382792E-1
1.004735937E1,-2.706578970E-1,-2.001139522E-1,-5.099216104E-1
1.005935873E1,-1.924671531E-1,-1.530773342E-1,-4.561654627E-1
1.007135656E1,-1.045025513E-1,-1.048189774E-1,-4.537219703E-1
1.008335503E1,-1.898141578E-2,-8.771475405E-2,-4.946499765E-1
1.009535299E1,5.187895149E-2,-7.366485149E-2,-5.465734601E-1
1.010735146E1,9.402865916E-2,-3.823466599E-2,-5.838363171E-1
1.011934949E1,1.141872108E-1,-2.846082300E-2,-6.015514135E-1
1.013134789E1,1.105220169E-1,-5.228456855E-2,-5.942209959E-1
1.014334629E1,9.341778606E-2,-9.443427622E-2,-5.532930493E-1
1.015534502E1,7.264836878E-2,-1.005429253E-1,-4.928173721E-1
1.016734348E1,6.898317486E-2,-1.011537835E-1,-4.280656576E-1
1.017934311E1,8.914173394E-2,-8.710388839E-2,-3.804181516E-1
1.019134234E1,1.129654795E-1,-6.816706061E-2,-3.364358544E-1
1.020334081E1,1.392326802E-1,-6.022581458E-2,-3.052817285E-1
1.021533954E1,1.459521949E-1,-6.144754589E-2,-2.704624236E-1
1.022733801E1,1.422870010E-1,-6.450186670E-2,-2.411408871E-1
1.023933514E1,1.215175912E-1,-7.794091105E-2,-2.118193507E-1
1.025133297E1,9.341778606E-2,-7.671917975E-2,-1.806652248E-1
1.026333143E1,4.210510850E-2,-3.762380034E-2,-1.531762928E-1
1.027532916E1,-2.020314522E-2,2.101926319E-2,-1.397372633E-1
1.028732713E1,-7.945707440E-2,3.751262277E-2,-1.427915841E-1
1.029932589E1,-1.234393716E-1,2.407358959E-2,-1.592849493E-1
1.031132496E1,-1.466522515E-1,3.812348843E-2,-1.745565832E-1
1.032332362E1,-1.509283185E-1,7.599712908E-2,-1.824978143E-1
1.033532255E1,-1.374892741E-1,9.798827767E-2,-1.782217771E-1
1.034732172E1,-1.191633120E-1,9.615568817E-2,-1.592849493E-1
1.035932018E1,-1.038916856E-1,7.844059914E-2,-1.189678386E-1
1.037131848E1,-8.984178305E-2,4.972992837E-2,-6.460083276E-2
1.038331701E1,-6.785063446E-2,2.651705034E-2,-1.267728582E-2
1.039531454E1,-3.425304964E-2,6.358496379E-3,3.497020155E-2
1.040731294E1,5.453194026E-3,-7.080539130E-3,7.650904357E-2
1.041931140E1,4.943549260E-2,-3.415347543E-3,1.119392216E-1
1.043130987E1,8.547654003E-2,-8.913134225E-3,1.449259520E-1
1.044330834E1,1.117437407E-1,-1.563265175E-2,1.626410335E-1
1.045530680E1,1.270153821E-1,-2.479563095E-2,1.736366153E-1
1.046730533E1,1.221284568E-1,-2.601736225E-2,1.760800779E-1
1.047930380E1,8.975259960E-2,-9.523999877E-3,1.907408386E-1
1.049130226E1,4.943549260E-2,2.346272208E-2,2.163971812E-1
1.050330066E1,7.285790052E-3,3.384743258E-2,2.414426506E-1
1.051529999E1,-2.203574218E-2,3.079310618E-2,2.561034262E-1
1.052729846E1,-4.891381413E-2,2.957137488E-2,2.609903514E-1
1.053929699E1,-7.273755968E-2,4.178868234E-2,2.616012096E-1
1.055129545E1,-8.251139522E-2,4.789733142E-2,2.591577470E-1
1.056329392E1,-7.457014918E-2,3.690176085E-2,2.585468888E-1
1.057529145E1,-5.929852277E-2,3.140396997E-2,2.670989931E-1
1.058728992E1,-4.891381413E-2,2.834964544E-2,2.793163061E-1
1.059928835E1,-4.830294847E-2,3.445829824E-2,2.976422608E-1
1.061128675E1,-5.318986997E-2,3.568002582E-2,3.171899319E-1
1.062328521E1,-4.952467605E-2,3.690176085E-2,3.397919536E-1
1.063528468E1,-3.486391157E-2,2.957137488E-2,3.685026169E-1
1.064728314E1,-2.488054102E-3,2.712791413E-2,4.014893472E-1
1.065928144E1,4.454856738E-2,3.079310618E-2,4.393630028E-1
1.067127990E1,8.425481617E-2,2.651705034E-2,4.637975991E-1
1.068327847E1,1.068568304E-1,3.629089519E-2,4.735714495E-1
1.069527686E1,1.031916365E-1,5.828204378E-2,4.717388749E-1
1.070727460E1,9.708297998E-2,8.271665126E-2,4.760149121E-1
1.071927339E1,8.425481617E-2,7.782972604E-2,4.986169040E-1
1.073127206E1,8.242221922E-2,5.767117813E-2,5.383231640E-1
1.074327062E1,8.058962226E-2,4.545387253E-2,5.829163194E-1
1.075526925E1,7.509183139E-2,4.301040992E-2,6.244551539E-1
1.076526932E1,6.104193255E-2,3.934521973E-2,6.543875933E-1
1.077726778E1,4.027251527E-2,2.957137488E-2,6.898177266E-1
1.078926631E1,1.095098071E-2,5.136766005E-3,7.276914120E-1
1.080126478E1,-1.409449428E-2,1.368887909E-2,7.557911873E-1
1.081326334E1,-2.570093423E-2,6.133636832E-2,7.783932090E-1
1.082526134E1,-2.325747348E-2,1.034860685E-1,7.906105518E-1
1.083725981E1,-2.142487653E-2,1.389162540E-1,7.912213802E-1
1.084925827E1,-1.531622373E-2,1.499118358E-1,7.777823210E-1
1.086125667E1,-7.985841483E-3,1.370836645E-1,7.783932090E-1
1.087325513E1,8.507520892E-3,1.169251055E-1,7.954974174E-1
1.088525367E1,3.233126551E-2,1.065403968E-1,8.388688564E-1
1.089725216E1,6.592885405E-2,9.249049425E-2,8.901815414E-1
1.090925076E1,9.036346525E-2,9.004703164E-2,9.341638088E-1
1.092124919E1,9.525038302E-2,1.059295386E-1,9.579876065E-1
1.093324902E1,8.547654003E-2,1.315858811E-1,9.677613974E-1
1.094524829E1,8.364394307E-2,1.535770297E-1,9.695940614E-1
1.095724738E1,8.425481617E-2,1.688486487E-1,9.573767185E-1
1.096924645E1,7.753529400E-2,1.816768199E-1,9.488245845E-1
1.098124581E1,6.104193255E-2,1.780116260E-1,9.439376593E-1
1.099324371E1,4.088337719E-2,1.480792463E-1,9.500463009E-1
1.100524218E1,2.439001575E-2,1.346402019E-1,9.659288526E-1
1.101724071E1,4.842328839E-3,1.358619183E-1,9.848656654E-1
1.102924014E1,-8.596706204E-3,1.383053958E-1,9.897525907E-1
1.104123861E1,-3.709784709E-3,1.407488585E-1,9.885308146E-1
1.105323620E1,1.156184636E-2,1.450248957E-1,9.848656654E-1
1.106523460E1,2.683347650E-2,1.499118358E-1,9.873091578E-1
1.107723393E1,3.477472812E-2,1.694595218E-1,9.891417027E-1
1.108923143E1,3.905078024E-2,1.847311556E-1,9.964721203E-1
1.110122990E1,4.271597415E-2,1.780116260E-1,1.000137210E0
1.111322830E1,4.332683980E-2,1.792333722E-1,1.007467628E0
1.112522676E1,4.271597415E-2,1.804550886E-1,1.011132836E0
1.113722443E1,2.988780476E-2,1.657943279E-1,1.009300351E0
1.114922289E1,2.072482556E-2,1.706812382E-1,1.017852306E0
1.116122136E1,2.988780476E-2,1.993919015E-1,1.036789179E0
1.117322069E1,5.798760429E-2,2.390981615E-1,1.051449895E0
1.118521915E1,7.875702530E-2,2.824695706E-1,1.042286992E0
1.119721762E1,5.859846994E-2,2.830804586E-1,1.021517634E0
1.120921615E1,-1.714882068E-2,2.232156545E-1,1.024571896E0
1.122121455E1,-9.045264870E-2,1.737355739E-1,1.060002089E0
1.123321308E1,-1.509283185E-1,1.541878879E-1,1.122310281E0
1.124521154E1,-1.503174454E-1,1.639617383E-1,1.172401190E0
1.125720998E1,-1.038916856E-1,1.462466419E-1,1.189505458E0
1.126920837E1,-4.158343002E-2,1.077621281E-1,1.191338181E0
1.128120684E1,-4.931515083E-3,7.049934566E-2,1.185229540E0
1.129320474E1,2.011395991E-2,6.316896528E-2,1.161405802E0
1.130520330E1,4.454856738E-2,1.144816428E-1,1.115590811E0
1.131720157E1,6.287452579E-2,1.651834548E-1,1.067332506E0
1.132920016E1,7.203750312E-2,1.541878879E-1,1.038010955E0
1.134119876E1,5.554414541E-2,1.193685681E-1,1.038010955E0
1.135319706E1,8.507520892E-3,1.028752029E-1,1.038621783E0
1.136519569E1,-3.852910176E-2,1.077621281E-1,1.036178350E0
1.137719458E1,-6.846150011E-2,1.016534716E-1,1.023350120E0
1.138919312E1,-8.128967136E-2,5.583858117E-2,1.006245971E0
1.140119165E1,-7.395929098E-2,5.400598422E-2,9.885308146E-1
1.141319104E1,-4.280516133E-2,9.004703164E-2,9.634853601E-1
1.142518944E1,4.842328839E-3,1.230337620E-1,9.359964728E-1
1.143718784E1,6.043106318E-2,1.486900896E-1,9.256117344E-1
1.144918714E1,1.123546138E-1,1.615182608E-1,9.298877716E-1
1.146118567E1,1.490065306E-1,1.645725965E-1,9.433268309E-1
1.147318424E1,1.801606566E-1,1.676269174E-1,9.561549425E-1
1.148518270E1,1.893236339E-1,1.731247157E-1,9.738700390E-1
1.149718153E1,1.703868061E-1,1.725138426E-1,9.854764938E-1
1.150917916E1,1.117437407E-1,1.798442304E-1,9.903634787E-1
1.152117763E1,5.676587299E-2,1.749573052E-1,9.909743071E-1
1.153317593E1,-4.459316187E-5,1.725138426E-1,9.995264411E-1
1.154517439E1,-3.242045268E-2,1.688486487E-1,1.013576388E0
1.155717256E1,-3.486391157E-2,1.700703949E-1,1.025182724E0
1.156917102E1,-1.104016788E-2,1.737355739E-1,1.023961067E0
1.158116942E1,1.339444239E-2,1.810659617E-1,1.016630650E0
1.159316842E1,3.721818700E-2,1.987810582E-1,1.013576388E0
1.160516688E1,5.310068280E-2,2.061114311E-1,1.020906687E0
1.161716535E1,5.676587299E-2,1.920615286E-1,1.033734918E0
1.162916381E1,3.905078024E-2,1.822876930E-1,1.041065335E0
1.164116228E1,3.620598232E-3,1.749573052E-1,1.041676164E0
1.165315928E1,-3.913996741E-2,1.774007678E-1,1.027015328E0
1.166515774E1,-6.479631364E-2,1.761790365E-1,9.934177995E-1
1.167715621E1,-7.029409707E-2,1.639617383E-1,9.653179646E-1
1.168915460E1,-4.097256437E-2,1.474683732E-1,9.555441141E-1
1.170115307E1,6.674924400E-3,1.199794337E-1,9.567658901E-1
1.171315273E1,6.043106318E-2,1.157033741E-1,9.665396810E-1
1.172515146E1,1.025807634E-1,1.462466419E-1,9.714266062E-1
1.173715006E1,1.105220169E-1,1.670160592E-1,9.757027030E-1
1.174914872E1,8.853086829E-2,1.633508652E-1,9.799787402E-1
1.176114779E1,6.226366013E-2,1.493009627E-1,9.726483822E-1
1.177314735E1,3.110953607E-2,1.413597167E-1,9.482137561E-1
1.178514575E1,6.064059213E-3,1.547987461E-1,9.158378839E-1
1.179714421E1,-1.714882068E-2,1.786224991E-1,8.969010711E-1
1.180914274E1,-3.791823983E-2,1.859528869E-1,9.072857499E-1
1.182114081E1,-4.524862394E-2,1.725138426E-1,9.390507936E-1
1.183313724E1,-4.036169872E-2,1.578530669E-1,9.677613974E-1
1.184513564E1,-1.592708938E-2,1.700703949E-1,9.787570238E-1
1.185713410E1,1.461617276E-2,1.847311556E-1,9.769244194E-1
1.186913214E1,5.615501106E-2,1.920615286E-1,9.763135314E-1
1.188113067E1,8.425481617E-2,2.268808484E-1,9.787570238E-1
1.189313000E1,1.031916365E-1,2.897999585E-1,9.793678522E-1
1.190512846E1,8.058962226E-2,3.050715923E-1,9.738700390E-1
1.191712693E1,6.064059213E-3,2.794152498E-1,9.757027030E-1
1.192912583E1,-1.106112078E-1,2.586458325E-1,9.824221730E-1
1.194112423E1,-2.034627199E-1,2.549806535E-1,9.934177995E-1
1.195312192E1,-2.614949048E-1,2.427633554E-1,1.011132836E0
1.196512095E1,-2.627166510E-1,2.268808484E-1,1.039232612E0
1.197712035E1,-2.083496451E-1,2.232156545E-1,1.074051976E0
1.198912002E1,-1.014482304E-1,1.951158643E-1,1.098486543E0
1.200111981E1,6.674924400E-3,1.645725965E-1,1.094821453E0
1.201112031E1,1.038024947E-1,1.419705749E-1,1.078938961E0
1.202312004E1,1.807715148E-1,1.419705749E-1,1.060002089E0
1.203511964E1,2.186451703E-1,1.529661566E-1,1.060002089E0
1.204711890E1,2.265864164E-1,1.572422236E-1,1.070386887E0
1.205911807E1,1.874910444E-1,1.554096192E-1,1.092377901E0
1.207111720E1,1.166306660E-1,1.700703949E-1,1.105816960E0
1.208311600E1,3.721818700E-2,1.871746033E-1,1.107038736E0
1.209511439E1,-3.669650480E-2,1.926723868E-1,1.098486543E0
1.210711286E1,-7.762448490E-2,1.871746033E-1,1.093599677E0
1.211911132E1,-7.701361179E-2,1.822876930E-1,1.097264886E0
1.213110999E1,-4.036169872E-2,1.914506704E-1,1.089323640E0
1.214310839E1,3.599645570E-2,1.914506704E-1,1.086269259E0
1.215510645E1,1.184632629E-1,1.957267225E-1,1.075884581E0
1.216710492E1,1.734411269E-1,1.969484538E-1,1.064889073E0
1.217910248E1,1.960431486E-1,1.920615286E-1,1.039232612E0
1.219110195E1,1.954322755E-1,1.969484538E-1,1.001358986E0
1.220310041E1,1.740520000E-1,2.012245059E-1,9.793678522E-1
1.221509908E1,1.312914342E-1,2.195504606E-1,9.781461358E-1
1.222709761E1,7.142664492E-2,2.439850718E-1,9.928069115E-1
1.223909697E1,1.583790220E-2,2.696414292E-1,1.008078575E0
1.225109337E1,-4.036169872E-2,2.671979666E-1,1.030069709E0
1.226309184E1,-7.518101484E-2,2.562023997E-1,1.056947708E0
1.227509053E1,-7.457014918E-2,2.439850718E-1,1.080771446E0
1.228708850E1,-3.913996741E-2,2.415416092E-1,1.099708319E0
1.229908690E1,1.461617276E-2,2.452068031E-1,1.100319266E0
1.231108593E1,7.020491362E-2,2.439850718E-1,1.093599677E0
1.232308439E1,1.001373082E-1,2.207722068E-1,1.080160618E0
1.233508289E1,1.038024947E-1,2.085548788E-1,1.075273633E0
1.234708179E1,8.914173394E-2,2.097766250E-1,1.074662805E0
1.235908015E1,5.371154845E-2,2.061114311E-1,1.092377901E0
1.237107812E1,1.034011599E-2,2.171070129E-1,1.128418922E0
1.238307665E1,-2.631179802E-2,2.244373858E-1,1.167514443E0
1.239507448E1,-4.524862394E-2,2.207722068E-1,1.190116286E0
1.240707295E1,-4.402688891E-2,2.109983563E-1,1.195614100E0
1.241907151E1,-4.341602698E-2,2.195504606E-1,1.192559838E0
1.243107098E1,-3.913996741E-2,2.421524823E-1,1.187672973E0
1.244306921E1,-3.913996741E-2,2.555915117E-1,1.170568705E0
1.245506834E1,-3.547477722E-2,2.488719970E-1,1.150410175E0
1.246706700E1,-2.386833727E-2,2.189396024E-1,1.137581944E0
1.247906573E1,-1.287276391E-2,1.896180660E-1,1.143079758E0
1.249106433E1,-3.098919289E-3,1.871746033E-1,1.158962250E0
1.250306253E1,1.339444239E-2,2.158852667E-1,1.166292548E0
1.251506092E1,3.660732135E-2,2.238265276E-1,1.171179533E0
1.252705902E1,6.531798840E-2,1.914506704E-1,1.179120898E0
1.253905749E1,9.525038302E-2,1.657943279E-1,1.197446823E0
1.255105615E1,1.166306660E-1,1.682377905E-1,1.215161920E0
1.256305525E1,1.337348968E-1,1.804550886E-1,1.223713994E0
1.257505388E1,1.355674863E-1,1.963375807E-1,1.224935651E0
1.258705272E1,1.331240237E-1,2.195504606E-1,1.231655240E0
1.259905078E1,1.319022924E-1,2.018353790E-1,1.242039919E0
1.261104898E1,1.288479716E-1,1.596856713E-1,1.262198448E0
1.262304744E1,1.190741286E-1,1.572422236E-1,1.290298343E0
1.263504598E1,1.044133604E-1,1.969484538E-1,1.325728536E0
1.264704451E1,8.364394307E-2,2.562023997E-1,1.351384759E0
1.265904291E1,5.065722391E-2,2.879673839E-1,1.360547781E0
1.267104137E1,1.522703841E-2,2.659762204E-1,1.358104348E0
1.268303984E1,-1.348362863E-2,2.354329675E-1,1.349552274E0
1.269503847E1,-3.242045268E-2,2.140526772E-1,1.341610909E0
1.270703643E1,-3.119872138E-2,2.134418190E-1,1.328171849E0
1.271903530E1,-6.153245457E-3,2.140526772E-1,1.306791663E0
1.273103490E1,2.255742066E-2,2.000027746E-1,1.290298343E0
1.274303336E1,4.393770546E-2,1.835094094E-1,1.279302716E0
1.275503166E1,6.165279821E-2,1.725138426E-1,1.282967925E0
1.276703049E1,7.814615965E-2,1.303641349E-1,1.289076567E0
1.277902896E1,7.570269704E-2,1.224228889E-1,1.309235096E0
1.279102635E1,7.325924188E-2,1.664052010E-1,1.319619894E0
1.280302489E1,8.547654003E-2,1.706812382E-1,1.351384759E0
1.281502328E1,9.402865916E-2,1.364727914E-1,1.387425900E0
1.282702175E1,9.036346525E-2,1.126490459E-1,1.406362653E0
1.283902031E1,7.325924188E-2,1.279206723E-1,1.417969108E0
1.285101804E1,5.004635453E-2,1.657943279E-1,1.424688578E0
1.286301664E1,-4.036169872E-2,2.348220944E-1,1.454620957E0
1.287501530E1,-8.556573093E-2,2.555915117E-1,1.486385942E0
1.288701403E1,-1.020590886E-1,2.085548788E-1,1.499825120E0
1.289901266E1,-1.002264917E-1,1.505226940E-1,1.499214292E0
1.291101189E1,-6.601803750E-2,1.499118358E-1,1.476612210E0
1.292301079E1,-1.409449428E-2,1.694595218E-1,1.457064509E0
1.293500926E1,4.149424285E-2,2.073331624E-1,1.459507942E0
1.294700772E1,8.486567438E-2,2.305460423E-1,1.466838360E0
1.295900615E1,1.031916365E-1,2.250482440E-1,1.455231905E0
1.297100472E1,9.647211432E-2,2.366546988E-1,1.395367026E0
1.298300275E1,6.165279821E-2,2.537589371E-1,1.327561021E0
1.299500122E1,4.515943676E-2,2.525371909E-1,1.286022186E0
1.300699878E1,6.287452579E-2,2.195504606E-1,1.271972299E0
1.301899764E1,1.154089347E-1,1.712921113E-1,1.292741656E0
1.303099628E1,1.618347019E-1,1.602965444E-1,1.312900305E0
1.304299451E1,2.174234241E-1,1.920615286E-1,1.300683022E0
1.305499317E1,2.705687284E-1,2.299351841E-1,1.261587620E0
1.306699294E1,2.980576456E-1,2.592567205E-1,1.221881390E0
1.307899170E1,2.852294743E-1,2.836913168E-1,1.203555465E0
1.309098983E1,2.626274824E-1,3.087367713E-1,1.199890256E0
1.310298933E1,2.326950729E-1,3.142345846E-1,1.199279428E0
1.311498846E1,1.997083426E-1,3.178997934E-1,1.202944636E0
1.312698726E1,1.624455601E-1,3.362257481E-1,1.213329196E0
1.313898579E1,1.306805760E-1,3.441669643E-1,1.230433464E0
1.315098452E1,1.038024947E-1,3.124019802E-1,1.251202822E0
1.316298299E1,7.142664492E-2,2.586458325E-1,1.268307090E0
1.317498138E1,4.454856738E-2,2.012245059E-1,1.261587620E0
1.318697985E1,2.439001575E-2,1.743464321E-1,1.233487844E0
1.319897832E1,1.705963351E-2,1.609074026E-1,1.171790361E0
1.321097755E1,3.477472812E-2,1.700703949E-1,1.105206013E0
1.322297601E1,6.348539144E-2,2.055005580E-1,1.060612917E0
1.323494169E1,9.402865916E-2,2.232156545E-1,1.031902194E0
1.324694016E1,1.270153821E-1,2.183287293E-1,1.019074082E0
1.325893829E1,1.581695080E-1,1.932832599E-1,1.009300351E0
1.327093592E1,1.758846045E-1,1.602965444E-1,9.909743071E-1
1.328293432E1,1.881019026E-1,1.303641349E-1,9.531006217E-1
1.329493302E1,1.887127757E-1,1.053186655E-1,8.975118995E-1
1.330693155E1,1.844367087E-1,1.089838594E-1,8.480318785E-1
1.331893042E1,1.764954627E-1,1.517444253E-1,8.144342899E-1
1.333092965E1,1.691650897E-1,1.822876930E-1,8.034386635E-1
1.334292768E1,1.716085374E-1,1.914506704E-1,8.009952307E-1
1.335492658E1,1.777171940E-1,2.164961398E-1,8.016060591E-1
1.336692504E1,1.746628731E-1,2.164961398E-1,7.924430966E-1
1.337892344E1,1.654998958E-1,2.116092294E-1,7.875562310E-1
1.339092237E1,1.416761428E-1,2.171070129E-1,8.113799691E-1
1.340292134E1,1.062459573E-1,2.122200727E-1,8.742990494E-1
1.341491980E1,6.287452579E-2,1.963375807E-1,9.628745317E-1
1.342691827E1,8.507520892E-3,1.810659617E-1,1.030069709E0
1.343891666E1,-4.769208282E-2,1.535770297E-1,1.041676164E0
1.345091373E1,-1.093894765E-1,1.334184706E-1,9.946395159E-1
1.346291226E1,-1.582586914E-1,1.456357688E-1,9.323312640E-1
1.347491099E1,-2.010192573E-1,1.859528869E-1,8.669686913E-1
1.348690959E1,-2.272864729E-1,2.317677736E-1,8.370362520E-1
1.349890825E1,-2.144583017E-1,2.971303463E-1,8.565840125E-1
1.351090785E1,-1.973540634E-1,2.690305412E-1,8.883489370E-1
1.352290644E1,-1.930780113E-1,2.146635503E-1,9.097292423E-1
1.353490484E1,-1.918562800E-1,2.201613337E-1,9.030097127E-1
1.354690331E1,-1.692542732E-1,2.079440355E-1,8.681903481E-1
1.355890150E1,-1.173307225E-1,2.158852667E-1,8.168777227E-1
1.357089987E1,-4.158343002E-2,2.299351841E-1,7.588455081E-1
1.358289833E1,7.692442834E-2,2.421524823E-1,6.959263682E-1
1.359489673E1,1.990974694E-1,2.519263327E-1,6.476680040E-1
1.360689520E1,2.956141829E-1,2.378764153E-1,6.427811384E-1
1.361889400E1,3.536463976E-1,1.865637451E-1,6.672157645E-1
1.363089169E1,3.701397479E-1,1.071512625E-1,6.922612190E-1
1.364288969E1,3.444834054E-1,6.805588305E-2,6.739352345E-1
1.365488822E1,2.626274824E-1,8.454924822E-2,6.776004434E-1
1.366688669E1,1.502282619E-1,1.034860685E-1,7.215827703E-1
1.367888515E1,5.798760429E-2,1.731247157E-1,7.649541497E-1
1.369088468E1,2.500088140E-2,3.490538895E-1,7.899996042E-1
1.370288355E1,4.821376130E-2,4.474031925E-1,7.264696360E-1
1.371488198E1,1.380109489E-1,4.858877361E-1,5.566490889E-1
1.372688051E1,2.607948482E-1,4.266337752E-1,4.002676010E-1
1.373887898E1,3.658636808E-1,2.879673839E-1,3.239094615E-1
1.375087668E1,4.129002988E-1,2.213830501E-1,3.196333945E-1
1.376287514E1,3.768592477E-1,2.678087950E-1,3.507875502E-1
1.377487364E1,2.339167893E-1,2.458176762E-1,3.935481012E-1
1.378687210E1,1.889222860E-2,2.720848620E-1,3.972132802E-1
1.379887050E1,-1.784172505E-1,4.571770430E-1,3.471223414E-1
1.381086860E1,-2.871512473E-1,4.651182890E-1,2.823706269E-1
1.382286713E1,-2.871512473E-1,4.516792595E-1,2.670989931E-1
1.383486560E1,-1.924671531E-1,4.278555214E-1,3.312398493E-1
1.384686400E1,-5.318986997E-2,3.380583227E-1,4.375303984E-1
1.385886246E1,7.509183139E-2,3.038498759E-1,5.468752980E-1
1.387086196E1,1.929888278E-1,3.655472696E-1,6.226225495E-1
1.388286062E1,2.675143778E-1,3.331714272E-1,6.830981970E-1
1.389485928E1,2.901163995E-1,3.124019802E-1,7.368543744E-1
1.390685795E1,2.589622736E-1,3.655472696E-1,7.551802993E-1
1.391885628E1,1.758846045E-1,3.710450530E-1,7.197501063E-1
1.393085454E1,1.361783594E-1,4.736704230E-1,6.440028548E-1
1.394285301E1,1.086894199E-1,4.333533049E-1,5.389339924E-1
1.395485140E1,7.509183139E-2,2.843021750E-1,4.192044437E-1
1.396684987E1,3.905078024E-2,8.943617344E-2,2.750402391E-1
1.397884873E1,-3.486391157E-2,-1.316970587E-1,1.113283634E-1
1.399084813E1,-1.399327368E-1,-2.239377052E-1,-3.222497553E-2
1.400284653E1,-2.285081893E-1,-8.588215709E-2,-1.146917790E-1
1.401484500E1,-2.150691599E-1,2.751391828E-1,-1.348503381E-1
1.402684346E1,-9.228524566E-2,6.068390608E-1,-8.414851874E-2
1.403884173E1,9.402865916E-2,7.668857574E-1,4.107885435E-2
1.405083862E1,2.626274824E-1,6.764776707E-1,2.200623751E-1
1.406283709E1,3.200488091E-1,4.657291472E-1,3.788873255E-1
1.407483529E1,2.516318858E-1,2.671979666E-1,4.393630028E-1
1.408683382E1,1.239610538E-1,1.016534716E-1,4.234805107E-1
1.409883268E1,-2.325747348E-2,-2.784995735E-2,3.159682155E-1
1.411083281E1,-1.552043557E-1,-7.427571714E-2,1.229347959E-1
1.412283234E1,-2.370603085E-1,3.873435408E-2,-7.926159352E-2
1.413283244E1,-2.773773968E-1,8.393838257E-2,-1.892173439E-1
1.414483227E1,-3.329661489E-1,2.897999585E-1,-3.963006735E-1
1.415483243E1,-4.172655642E-1,6.715907454E-1,-6.174339056E-1
1.416683200E1,-6.255705953E-1,6.831972003E-1,-7.646524310E-1
1.417883046E1,-8.540341854E-1,5.335352421E-1,-8.801059723E-1
1.419082987E1,-9.847593307E-1,1.474683732E-1,-8.660560250E-1
1.420282913E1,-9.713203311E-1,-4.731707275E-1,-5.697863698E-1
1.421482793E1,-8.381517529E-1,-8.183095455E-1,-1.641718596E-1
1.422682696E1,-6.945983768E-1,-8.115900755E-1,1.664424501E-2
1.423882639E1,-6.188510656E-1,-6.460455656E-1,-5.346903112E-3
1.425082485E1,-5.919730067E-1,-4.462926686E-1,-3.894449398E-2
1.426282332E1,-5.522667766E-1,-3.283956647E-1,-3.833362460E-2
1.427482178E1,-4.972889125E-1,-2.642548084E-1,5.818308145E-2
1.428682025E1,-4.404784143E-1,-1.182580143E-1,2.023472786E-1
1.429881895E1,-4.026047885E-1,8.882530034E-2,3.336833119E-1
1.431081741E1,-4.166547060E-1,2.439850718E-1,4.179826975E-1
1.432281594E1,-4.697999656E-1,3.728776574E-1,4.008784890E-1
1.433481444E1,-4.795738161E-1,4.852768481E-1,3.483440876E-1
1.434681284E1,-3.128075898E-1,4.321315587E-1,3.245203197E-1
1.435881037E1,-1.409449428E-2,5.530828834E-1,4.295891523E-1
1.437080910E1,2.314733267E-1,5.329242945E-1,6.146813631E-1
1.438280757E1,3.634202182E-1,5.976760387E-1,5.077798963E-1
1.439480623E1,4.043481946E-1,8.194201589E-1,2.970314026E-1
1.440680470E1,4.183981121E-1,8.762305975E-1,1.290434599E-1
1.441680476E1,3.738049269E-1,8.511851430E-1,8.383942395E-2
1.442880323E1,1.722194105E-1,9.525887370E-1,1.595867127E-1
1.444080093E1,-3.242045268E-2,1.105915904E0,3.300181329E-1
1.445279919E1,-1.784172505E-1,1.281234264E0,5.493187308E-1
1.446479766E1,-1.991866678E-1,1.620875359E0,6.983698606E-1
1.447679616E1,-6.113111973E-2,1.845673680E0,7.936648726E-1
1.448879462E1,1.984866112E-1,2.111400127E0,7.374652028E-1
1.450079375E1,4.361131787E-1,2.126060724E0,5.535947680E-1
1.451279222E1,6.041011214E-1,1.853004098E0,3.129138649E-1
1.452479075E1,5.570645332E-1,1.426620245E0,1.265999973E-1
1.453678815E1,3.359313011E-1,1.142567873E0,7.528730482E-2
1.454878674E1,5.982020125E-2,1.295284152E0,1.669171005E-1
1.456078517E1,-1.271045655E-1,1.722278953E0,3.275746405E-1
1.457278347E1,-2.254538685E-1,2.275722980E0,4.674628079E-1
1.458478206E1,-2.413363606E-1,2.894529343E0,4.283674359E-1
1.459678173E1,-1.326023489E-1,3.338628531E0,1.235456616E-1
1.460878020E1,6.837231666E-2,3.606798410E0,-4.134048820E-1
1.462077823E1,2.846186161E-1,3.543879032E0,-8.904906511E-1
1.463277712E1,4.862041175E-1,2.851768732E0,-1.103682637E0
1.464477559E1,4.532174170E-1,1.626373172E0,-8.287932873E-1
1.465677282E1,1.428978741E-1,6.996905804E-1,-3.639248013E-1
1.466877129E1,-2.889838517E-1,3.808188736E-1,-1.043070778E-1
1.468077018E1,-5.259995461E-1,4.999376237E-1,-1.012527496E-1
1.469276865E1,-5.883077979E-1,9.104390740E-1,-2.539690435E-1
1.470476612E1,-4.331480265E-1,1.611712456E0,-4.115723073E-1
1.471676548E1,-1.655890793E-1,2.388732910E0,-4.537219703E-1
1.472876401E1,7.081577182E-2,3.006928444E0,-3.981332779E-1
1.474076254E1,1.380109489E-1,3.203016281E0,-3.315489590E-1
1.475276094E1,1.459521949E-1,2.715545893E0,-2.716841400E-1
1.476476054E1,4.454856738E-2,1.540852070E0,-1.397372633E-1
1.477675911E1,-1.631456167E-1,4.186925292E-1,-5.346903112E-3
1.478875757E1,-3.781701624E-1,-2.831916213E-1,-5.727045238E-2
1.480075597E1,-4.526957273E-1,-5.134878755E-1,-2.441952229E-1
1.481275443E1,-3.580116332E-1,-5.257051587E-1,-5.398539901E-1
1.482475277E1,-2.046844512E-1,-1.341405064E-1,-5.716189742E-1
1.483675080E1,-1.393218637E-1,4.822225273E-1,-2.558016479E-1
1.484874926E1,-7.212669402E-2,1.231143355E0,2.218949795E-1
1.486074793E1,-1.877188915E-3,1.680740118E0,5.035038590E-1
1.487274639E1,2.316828445E-2,1.766872168E0,6.201790571E-1
1.488474486E1,6.674924400E-3,1.312388420E0,5.505404472E-1
1.489674372E1,-3.486391157E-2,5.317026377E-1,3.501766622E-1
1.490874212E1,-9.533956647E-2,-1.310861856E-1,1.236818917E-2
1.492073989E1,-1.429870576E-1,-5.073791742E-1,-2.851231992E-1
1.493273845E1,-1.179415807E-1,-7.969292998E-1,-6.113252640E-1
1.494473711E1,-5.196813866E-2,-8.653461933E-1,-7.573220134E-1
1.495673474E1,1.644876786E-2,-5.751852393E-1,-6.632487774E-1
1.496873340E1,8.120048791E-2,7.049934566E-2,-3.602596223E-1
1.498073257E1,1.288479716E-1,5.970652103E-1,-5.665958300E-2
1.499273120E1,1.826041043E-1,8.157549500E-1,1.858539134E-1
1.500472966E1,2.400254458E-1,5.805718303E-1,2.335014045E-1
1.501672926E1,3.059988916E-1,1.163142398E-1,1.284325868E-1
1.502872773E1,3.640311062E-1,-4.145276546E-1,-1.195787042E-1
1.504072619E1,3.988504112E-1,-7.419514060E-1,-3.773638308E-1
1.505272466E1,3.890765607E-1,-8.720657229E-1,-6.259860396E-1
1.506472306E1,3.127184212E-1,-7.889880538E-1,-7.066201568E-1
1.507672039E1,2.443014979E-1,-5.464745760E-1,-6.290403605E-1
1.508871885E1,2.400254458E-1,-2.257702947E-1,-4.231787324E-1
1.510071772E1,3.218813837E-1,-3.945639729E-2,-2.423626184E-1
1.511271612E1,4.727651179E-1,3.140396997E-2,-1.104157269E-1
1.512471458E1,5.937164426E-1,3.506916389E-2,-5.543785542E-2
1.513671398E1,6.468616724E-1,3.995608538E-2,-7.803986967E-2
1.514871251E1,6.413639188E-1,-5.228456855E-2,-1.556197554E-1
1.516071058E1,5.986033082E-1,-1.445252299E-1,-2.331996411E-1
1.517270904E1,5.277429819E-1,-1.909509748E-1,-3.266620040E-1
1.518470764E1,4.416109920E-1,-1.628511846E-1,-4.005767107E-1
1.519670607E1,3.615876436E-1,-1.158145517E-1,-4.463916123E-1
1.520870533E1,3.200488091E-1,-7.733003795E-2,-4.653284252E-1
1.522070450E1,2.748447657E-1,-4.861937836E-2,-4.604414999E-1
1.523070463E1,2.528536320E-1,-2.357389964E-2,-4.549437165E-1
1.524270449E1,2.748447657E-1,-4.006725922E-2,-4.555546045E-1
1.525470375E1,3.353204429E-1,-9.871032834E-2,-4.616632462E-1
1.526670335E1,4.361131787E-1,-1.078733057E-1,-4.702153504E-1
1.527670348E1,5.369059443E-1,-8.893648535E-2,-4.793783128E-1
1.528870268E1,6.493051648E-1,-8.771475405E-2,-5.001477599E-1
1.530070138E1,6.945092082E-1,-1.213123426E-1,-5.141976476E-1
1.531270118E1,7.030612826E-1,-9.993205220E-2,-5.148085356E-1
1.532469978E1,6.755723953E-1,-3.884553164E-2,-4.940390885E-1
1.533669801E1,6.285357475E-1,-1.563265175E-2,-4.836543798E-1
1.534869647E1,5.711144209E-1,-5.839321762E-2,-5.080890059E-1
1.536069487E1,5.643948913E-1,-9.871032834E-2,-5.416865945E-1
1.537269384E1,6.047119498E-1,-1.347513795E-1,-5.771167874E-1
1.538469230E1,6.633550525E-1,-1.573533863E-1,-6.039948463E-1
1.539669083E1,6.853461862E-1,-1.298644543E-1,-6.058274508E-1
1.540868923E1,6.358661652E-1,-6.144754589E-2,-5.838363171E-1
1.542068776E1,5.723361373E-1,-8.221696317E-2,-5.581799150E-1
1.543268496E1,5.356842279E-1,-1.579642445E-1,-5.477952361E-1
1.544468343E1,5.411819816E-1,-2.001139522E-1,-5.545147657E-1
1.545668182E1,5.643948913E-1,-1.811771393E-1,-5.606234074E-1
1.546868029E1,5.918838382E-1,-1.170362830E-1,-5.581799150E-1
1.548067875E1,6.108206511E-1,-4.556504637E-2,-5.612342358E-1
1.549067879E1,6.407530308E-1,-2.357389964E-2,-5.728406906E-1
1.550267718E1,6.816810369E-1,-2.540649660E-2,-6.021622419E-1
1.551467565E1,7.177220583E-1,-3.395861015E-2,-6.375924349E-1
1.552667411E1,7.201655507E-1,-6.144754589E-2,-6.595835686E-1
1.553867258E1,7.055047750E-1,-1.207014769E-1,-6.766877770E-1
1.555066958E1,6.908439994E-1,-2.172181904E-1,-6.931811571E-1
1.556266804E1,6.657985449E-1,-2.636439502E-1,-6.999006867E-1
1.557466657E1,6.706854105E-1,-2.831916213E-1,-6.974571943E-1
1.558666504E1,7.048939466E-1,-2.569244504E-1,-6.846290231E-1
1.559866307E1,7.708673477E-1,-1.988922209E-1,-6.650813818E-1
1.561066147E1,8.466145992E-1,-1.121493578E-1,-6.565292478E-1
1.562265993E1,8.948729634E-1,-2.723909169E-2,-6.467554569E-1
1.563465840E1,9.015925527E-1,6.500155479E-2,-6.449227929E-1
1.564665716E1,8.496689200E-1,9.065789729E-2,-6.382033229E-1
1.565865593E1,7.818629146E-1,-2.601736225E-2,-6.559184194E-1
1.567065529E1,7.134459615E-1,-1.652946323E-1,-7.115071416E-1
1.568265395E1,6.853461862E-1,-2.428745329E-1,-7.725936174E-1
1.569465262E1,6.884005070E-1,-2.361550033E-1,-8.245171905E-1
1.570665098E1,7.116134167E-1,-2.074443400E-1,-8.526170254E-1
1.571864971E1,7.122243047E-1,-1.628511846E-1,-8.471192122E-1
1.573064808E1,6.829027534E-1,-9.565600008E-2,-7.933630943E-1
1.574264661E1,6.590789557E-1,-1.074573025E-2,-7.102854252E-1
1.575464547E1,6.383095980E-1,1.857580245E-2,-6.449227929E-1
1.576664387E1,6.279248595E-1,-1.013486460E-2,-6.131578088E-1
1.577864234E1,6.132640839E-1,-7.366485149E-2,-6.064382792E-1
1.579064027E1,6.095989347E-1,-1.707924157E-1,-6.290403605E-1
1.580263873E1,6.334226727E-1,-2.294354886E-1,-6.724117398E-1
1.581463673E1,6.645767689E-1,-2.789155841E-1,-7.035658360E-1
1.582663526E1,6.920657158E-1,-2.783047259E-1,-7.261679173E-1
1.583863373E1,7.091699839E-1,-2.489831746E-1,-7.322765589E-1
1.585063219E1,7.219980955E-1,-2.104986757E-1,-7.310547829E-1
1.586263059E1,7.097808123E-1,-1.640729010E-1,-7.078419328E-1
1.587462906E1,7.061156034E-1,-1.152036861E-1,-6.577509642E-1
1.588662752E1,7.189437747E-1,-1.029863805E-1,-6.058274508E-1
1.589862605E1,7.446001768E-1,-9.382340312E-2,-5.630668998E-1
1.591062545E1,7.623152733E-1,-1.017646492E-1,-5.569581985E-1
1.592262392E1,7.653695941E-1,-1.304753125E-1,-5.795602202E-1
1.593462238E1,7.635369897E-1,-1.494121403E-1,-6.058274508E-1
1.594662085E1,7.525413632E-1,-1.683489680E-1,-6.168230176E-1
1.595861921E1,7.018396258E-1,-1.976705045E-1,-6.113252640E-1
1.597061778E1,6.438073516E-1,-2.263811678E-1,-6.070491672E-1
1.598261624E1,6.212053895E-1,-2.410419285E-1,-6.027731299E-1
1.599461554E1,6.358661652E-1,-2.153855860E-1,-5.838363171E-1
1.600661400E1,6.651876569E-1,-1.604077220E-1,-5.606234074E-1
1.601861250E1,7.042829990E-1,-1.090950295E-1,-5.422974229E-1
1.603061177E1,7.366588712E-1,-9.504513443E-2,-5.465734601E-1
1.604261023E1,7.507088184E-1,-9.565600008E-2,-5.606234074E-1
1.605460816E1,7.525413632E-1,-7.610831410E-2,-5.758950114E-1
1.606660682E1,7.549848557E-1,-6.877793372E-2,-6.021622419E-1
1.607860529E1,7.494870424E-1,-1.103167683E-1,-6.314837933E-1
1.609060302E1,7.293285131E-1,-1.457469463E-1,-6.656922698E-1
1.610260168E1,7.006178498E-1,-1.488012671E-1,-6.858507395E-1
1.611460064E1,6.712962985E-1,-1.402491629E-1,-6.999006867E-1
1.612659904E1,6.725180745E-1,-1.542990506E-1,-7.225027084E-1
1.613859847E1,6.712962985E-1,-1.909509748E-1,-7.463263869E-1
1.615059604E1,6.682419777E-1,-2.025574148E-1,-7.573220134E-1
1.616259457E1,6.719071865E-1,-1.750684828E-1,-7.499916553E-1
1.617459244E1,6.755723953E-1,-1.323079020E-1,-7.298330665E-1
1.618659090E1,6.890113950E-1,-1.005429253E-1,-7.139505744E-1
1.619858860E1,7.079482675E-1,-9.932118654E-2,-7.139505744E-1
1.621058823E1,7.189437747E-1,-1.139819548E-1,-7.225027084E-1
1.622258663E1,7.091699839E-1,-1.072624326E-1,-7.389960289E-1
1.623458509E1,7.024504542E-1,-9.137994051E-2,-7.713719606E-1
1.624658362E1,6.963418126E-1,-1.249775290E-1,-8.177976608E-1
1.625858196E1,6.902331710E-1,-1.988922209E-1,-8.630017042E-1
1.627058019E1,6.920657158E-1,-2.355441451E-1,-8.996536136E-1
1.628257878E1,6.993961334E-1,-2.043900192E-1,-9.155361056E-1
1.629457758E1,6.957309246E-1,-1.567425281E-1,-9.020971060E-1
1.630657658E1,6.706854105E-1,-1.414708793E-1,-8.758298755E-1
1.631857604E1,6.468616724E-1,-1.384165585E-1,-8.391779661E-1
1.633057438E1,6.456399560E-1,-1.365839690E-1,-8.031368852E-1
1.634257351E1,6.975635290E-1,-9.626686573E-2,-7.768697143E-1
1.635457267E1,7.568174601E-1,-6.633446366E-2,-7.585437894E-1
1.636657141E1,8.172931075E-1,-6.022581458E-2,-7.609871626E-1
1.637856980E1,8.417277336E-1,-6.633446366E-2,-7.896978855E-1
1.639056914E1,8.111844659E-1,-9.687773138E-2,-8.257389665E-1
1.640256760E1,7.543739676E-1,-1.677380949E-1,-8.434540629E-1
1.641456590E1,6.926766038E-1,-2.037791461E-1,-8.385670781E-1
1.642656436E1,6.511377692E-1,-1.726250201E-1,-7.915304303E-1
1.643856276E1,6.523594856E-1,-1.353622377E-1,-7.298330665E-1
1.645056096E1,6.896222830E-1,-1.207014769E-1,-6.840181947E-1
1.646255942E1,7.372697592E-1,-1.011537835E-1,-6.553074718E-1
1.647455729E1,7.635369897E-1,-6.450186670E-2,-6.394250393E-1
1.648655569E1,7.592609525E-1,-3.701293468E-2,-6.424793601E-1
1.649855392E1,7.232198715E-1,-6.389100850E-2,-6.693574190E-1
1.651055332E1,7.061156034E-1,-1.402491629E-1,-7.243353128E-1
1.652255178E1,7.116134167E-1,-1.995030940E-1,-7.951956987E-1
1.653455145E1,7.079482675E-1,-1.793445498E-1,-8.330693245E-1
1.654654991E1,6.792375445E-1,-1.286427081E-1,-8.306258321E-1
1.655854911E1,6.480834484E-1,-7.916263491E-2,-8.037477732E-1
1.657054681E1,6.120423675E-1,-4.373245314E-2,-7.591546178E-1
1.658254527E1,5.772230625E-1,-3.395861015E-2,-7.096745372E-1
1.659454337E1,5.717253089E-1,-6.633446366E-2,-6.821855903E-1
1.660654184E1,6.053228974E-1,-1.109276265E-1,-6.718009114E-1
1.661854034E1,6.657985449E-1,-1.115384996E-1,-6.711900234E-1
1.663053850E1,7.152786255E-1,-9.076908231E-2,-6.748552322E-1
1.664253690E1,7.354371548E-1,-7.671917975E-2,-6.803530455E-1
1.665453506E1,7.336045504E-1,-5.472802743E-2,-6.834073663E-1
1.666653360E1,7.036721706E-1,-4.067812860E-2,-6.858507395E-1
1.667853293E1,6.761832237E-1,-6.694533676E-2,-6.950138211E-1
1.669053199E1,2.919490039E-1,3.026281297E-1,-4.476133287E-1
1.670253065E1,-8.558668494E-1,1.193269610E0,4.308108687E-1
1.671452885E1,-2.657709718E-1,1.158450365E0,-3.405757248E-2
1.672652751E1,-3.506812453E-1,1.521304369E0,3.191587701E-2
1.673852484E1,-4.435327649E-1,1.229921579E0,6.870401558E-3
1.675052237E1,-5.327191353E-1,1.002679706E0,-1.183569729E-1
1.676252084E1,-7.575175166E-1,9.916841388E-1,-4.627487436E-2
1.677451930E1,-7.355263829E-1,1.010010123E0,-6.215737015E-2
1.678651777E1,-7.941694260E-1,1.201210976E0,-1.206642110E-2
1.679851523E1,-7.086482644E-1,1.250691056E0,-3.283583745E-2
1.681051477E1,-6.267923713E-1,1.086368322E0,1.969857141E-2
1.682251330E1,-4.282611310E-1,6.007304192E-1,6.870401558E-3
1.683451200E1,-3.567898870E-1,9.249049425E-2,-1.512074750E-2
1.684651040E1,-2.492776215E-1,-2.190507799E-1,-8.537025005E-2
1.685850966E1,1.278357673E-2,-4.279667139E-1,-1.763891727E-1
1.687050703E1,5.350733399E-1,-7.706621289E-1,-2.912318408E-1
1.688250549E1,1.008493900E0,-8.971111774E-1,-3.339923918E-1
1.689450419E1,1.604698420E0,-1.201322198E0,-3.492640257E-1
1.690650265E1,2.549706936E0,-1.717503190E0,-4.091288447E-1
1.691850122E1,1.323089480E0,-1.875106454E0,-2.869557738E-1
1.693050062E1,1.457479835E0,-1.685127378E0,-5.862797499E-1
1.694249908E1,1.241844535E0,-9.019981027E-1,-7.567111850E-1
1.695449781E1,9.950548410E-1,-4.004777670E-1,-7.243353128E-1
1.696649628E1,9.131989479E-1,-3.387803733E-1,-7.426612377E-1
1.697849484E1,8.899860978E-1,-5.580809712E-1,-7.585437894E-1
1.699049304E1,8.490580916E-1,-7.242363095E-1,-8.013043404E-1
1.700249144E1,8.508906960E-1,-6.857518554E-1,-8.391779661E-1
1.701448957E1,8.991490602E-1,-5.531941056E-1,-8.434540629E-1
1.702648804E1,9.376335740E-1,-4.230797589E-1,-8.355127573E-1
1.703848667E1,9.467965364E-1,-3.180109560E-1,-8.122998476E-1
1.705048450E1,9.455748200E-1,-1.878966540E-1,-7.609871626E-1
1.706248296E1,9.083120227E-1,-3.090428375E-2,-7.286113501E-1
1.707448150E1,8.142387867E-1,-7.691404317E-3,-7.371634245E-1
1.708648003E1,6.810701489E-1,-7.671917975E-2,-7.768697143E-1
1.709847833E1,5.576753616E-1,-1.194797456E-1,-8.428431153E-1
1.711047786E1,4.959779978E-1,-8.893648535E-2,-9.124817848E-1
1.712247652E1,4.855932593E-1,-5.900408700E-2,-9.760117531E-1
1.713447518E1,5.173583031E-1,-9.748859704E-2,-1.042596102E0
1.714647384E1,5.851643085E-1,-9.809945524E-2,-1.102460980E0
1.715847211E1,6.193727255E-1,-5.289543048E-2,-1.120176077E0
1.717047111E1,5.931055546E-1,-1.318919193E-2,-1.089632750E0
1.718246957E1,5.369059443E-1,7.580226753E-3,-1.034043908E0
1.719446804E1,4.971997142E-1,1.857580245E-2,-9.479119778E-1
1.720646643E1,4.709325135E-1,6.255809963E-2,-8.416213989E-1
1.721846523E1,4.813172221E-1,7.966232300E-2,-7.768697143E-1
1.723046236E1,5.393494368E-1,9.126877040E-2,-7.695392966E-1
1.724246090E1,6.034902930E-1,1.193685681E-1,-7.799240351E-1
1.725445936E1,6.297574639E-1,1.181468368E-1,-7.945847511E-1
1.726645783E1,6.053228974E-1,7.049934566E-2,-8.257389665E-1
1.727845629E1,5.527884364E-1,1.246714871E-2,-8.526170254E-1
1.729045542E1,4.837606847E-1,-2.968255244E-2,-8.630017042E-1
1.730245389E1,4.361131787E-1,-5.717149004E-2,-8.489517570E-1
1.731445229E1,4.257284999E-1,-7.305398583E-2,-8.006934524E-1
1.732645088E1,4.556608796E-1,-4.434331879E-2,-7.396069169E-1
1.733844981E1,5.063626766E-1,-3.456947207E-2,-6.711900234E-1
1.735044861E1,5.588970780E-1,-5.594975874E-2,-6.125469208E-1
1.736244821E1,6.126532555E-1,-9.565600008E-2,-5.435191393E-1
1.737444804E1,6.523594856E-1,-7.305398583E-2,-4.946499765E-1
1.738644787E1,6.688528657E-1,8.607091149E-4,-4.604414999E-1
1.739844760E1,6.535812616E-1,2.896051109E-2,-4.476133287E-1
1.741044700E1,5.979924798E-1,-1.318919193E-2,-4.506676495E-1
1.742244626E1,5.527884364E-1,-9.687773138E-2,-4.726588130E-1
1.743444536E1,5.332407951E-1,-1.378057003E-1,-5.068672895E-1
1.744644432E1,5.326299071E-1,-1.579642445E-1,-5.386322737E-1
1.745844266E1,5.344625115E-1,-1.518556029E-1,-5.459626317E-1
1.747044199E1,5.485123992E-1,-1.268101335E-1,-5.477952361E-1
1.748244045E1,5.686709881E-1,-1.103167683E-1,-5.514604449E-1
1.749443898E1,5.839425921E-1,-7.855177671E-2,-5.514604449E-1
1.750643752E1,5.912729502E-1,-6.144754589E-2,-5.441300869E-1
1.751843638E1,6.077662706E-1,-6.389100850E-2,-5.325236320E-1
1.753043485E1,6.468616724E-1,-4.984110594E-2,-5.178628564E-1
1.754243331E1,6.657985449E-1,-4.678678140E-2,-5.209171772E-1
1.755443134E1,6.462508440E-1,-8.466042578E-2,-5.313018560E-1
1.756642974E1,6.248705387E-1,-1.109276265E-1,-5.471844077E-1
1.757842820E1,6.169292927E-1,-1.023755223E-1,-5.594016910E-1
1.759042634E1,6.163184047E-1,-8.160610497E-2,-5.569581985E-1
1.760242480E1,6.383095980E-1,-4.861937836E-2,-5.569581985E-1
1.761442367E1,6.590789557E-1,-2.968255244E-2,-5.777276754E-1
1.762642206E1,6.712962985E-1,-2.540649660E-2,-6.253751516E-1
1.763842053E1,6.651876569E-1,-4.312159121E-2,-6.711900234E-1
1.765041933E1,6.505269408E-1,-4.312159121E-2,-7.053985000E-1
1.766241786E1,6.260923147E-1,-3.395861015E-2,-7.200592756E-1
1.767241792E1,6.016576290E-1,-4.617591575E-2,-7.322765589E-1
1.768441639E1,5.723361373E-1,-1.023755223E-1,-7.493808270E-1
1.769641442E1,5.485123992E-1,-1.414708793E-1,-7.640415430E-1
1.770841289E1,5.625623465E-1,-1.176471487E-1,-7.432720661E-1
1.772041152E1,6.108206511E-1,-6.022581458E-2,-7.121179700E-1
1.773240962E1,6.761832237E-1,-6.469673477E-3,-6.644704938E-1
1.774440815E1,7.250524163E-1,-4.026212730E-3,-6.290403605E-1
1.775640711E1,7.781977654E-1,-6.469673477E-3,-6.168230176E-1
1.776840601E1,8.386734128E-1,1.429974474E-2,-6.223207712E-1
1.778040348E1,8.331755996E-1,3.629089519E-2,-6.327055097E-1
1.779240094E1,7.873607278E-1,4.239954799E-2,-6.540858150E-1
1.780439944E1,7.097808123E-1,1.491061039E-2,-6.889051199E-1
1.781639804E1,6.468616724E-1,-4.617591575E-2,-7.298330665E-1
1.782839583E1,6.199836135E-1,-6.755619496E-2,-7.585437894E-1
1.784039540E1,6.254814267E-1,-4.556504637E-2,-7.591546178E-1
1.785239406E1,6.603007317E-1,-3.823466599E-2,-7.426612377E-1
1.786439282E1,6.896222830E-1,-3.884553164E-2,-7.066201568E-1
1.787639122E1,7.006178498E-1,-8.302269503E-3,-6.589727402E-1
1.788839005E1,6.975635290E-1,1.491061039E-2,-6.186556220E-1
1.790038868E1,6.829027534E-1,1.857580245E-2,-6.003296375E-1
1.791238722E1,6.639659405E-1,1.124541834E-2,-5.936101079E-1
1.792438548E1,6.535812616E-1,1.674320549E-2,-6.046057343E-1
1.793638395E1,6.596899033E-1,-1.441092230E-2,-6.265968680E-1
1.794838241E1,6.554138064E-1,-3.884553164E-2,-6.455336809E-1
1.796037978E1,6.474726200E-1,-2.968255244E-2,-6.345381141E-1
1.797237817E1,6.431965232E-1,-1.257832628E-2,-6.180447340E-1
1.798437664E1,6.285357475E-1,-1.563265175E-2,-5.966644883E-1
1.799637517E1,6.102097631E-1,-3.884553164E-2,-5.868906379E-1
1.800837370E1,6.071554422E-1,-5.778235570E-2,-5.893341303E-1
1.802037274E1,6.260923147E-1,-4.800850898E-2,-5.929992795E-1
1.803237113E1,6.511377692E-1,-1.990870945E-2,-5.868906379E-1
1.804436960E1,6.389204860E-1,-3.415347543E-3,-5.771167874E-1
1.805636806E1,5.924946666E-1,-1.257832628E-2,-5.820037127E-1
1.806836653E1,5.338516235E-1,-1.990870945E-2,-5.942209959E-1
1.808036546E1,4.874258637E-1,-2.193617169E-3,-6.003296375E-1
1.809236399E1,4.562717676E-1,-9.718865622E-4,-5.887231827E-1
1.810436246E1,4.526065588E-1,-2.601736225E-2,-5.875014663E-1
1.811636092E1,4.666564763E-1,-5.656062439E-2,-5.783385038E-1
1.812835932E1,4.862041175E-1,-5.839321762E-2,-5.710081458E-1
1.814035672E1,5.143039823E-1,-5.411716551E-2,-5.661212206E-1
1.815235518E1,5.381276608E-1,-3.823466599E-2,-5.703972578E-1
1.816235541E1,5.491232872E-1,-5.594975874E-2,-5.746733546E-1
1.817435334E1,5.576753616E-1,-6.205841154E-2,-5.703972578E-1
1.818635181E1,5.375168324E-1,-3.090428375E-2,-5.380214453E-1
1.819835108E1,5.179691315E-1,-3.610213753E-4,-4.958716929E-1
1.821034964E1,5.350733399E-1,-9.523999877E-3,-4.628849924E-1
1.822234680E1,5.760013461E-1,-1.685438305E-2,-4.604414999E-1
1.823434593E1,6.065446138E-1,-1.868698001E-2,-4.799892008E-1
1.824634466E1,5.888295174E-1,-1.135659590E-2,-4.970934093E-1
1.825834256E1,5.411819816E-1,-1.502178796E-2,-4.983151555E-1
1.827034112E1,5.051409602E-1,-4.251072183E-2,-5.032020807E-1
1.828233952E1,4.996431768E-1,-8.038436621E-2,-5.111433268E-1
1.829433779E1,5.295755863E-1,-8.221696317E-2,-5.203063488E-1
1.830633625E1,5.686709881E-1,-6.205841154E-2,-5.270258188E-1
1.831833472E1,5.888295174E-1,-2.662822790E-2,-5.190845728E-1
1.833033311E1,5.741687417E-1,8.191092871E-3,-5.032020807E-1
1.834233165E1,5.259103775E-1,1.368887909E-2,-4.928173721E-1
1.835433031E1,4.220632911E-1,-3.415347543E-3,-4.659393132E-1
1.836632834E1,3.340986967E-1,-1.807611249E-2,-4.433372915E-1
1.837832767E1,2.968358994E-1,-4.067812860E-2,-4.360069036E-1
1.839032614E1,2.992793918E-1,-6.999965757E-2,-4.366177619E-1
1.840232460E1,3.353204429E-1,-7.122138888E-2,-4.274547696E-1
1.841432314E1,3.683071733E-1,-3.212601319E-2,-3.944680691E-1
1.842632223E1,3.707506061E-1,1.735407114E-2,-3.504857719E-1
1.843832106E1,3.353204429E-1,4.301040992E-2,-3.077251911E-1
1.845032020E1,2.626274824E-1,3.995608538E-2,-2.686298192E-1
1.846231946E1,2.033735365E-1,1.613233984E-2,-2.423626184E-1
1.847431872E1,1.777171940E-1,3.915035166E-3,-2.252583951E-1
1.848631772E1,1.740520000E-1,5.747631192E-3,-2.136519402E-1
1.849831569E1,1.844367087E-1,3.018224053E-2,-2.002129257E-1
1.851031435E1,1.844367087E-1,3.445829824E-2,-1.934933960E-1
1.852231282E1,1.722194105E-1,2.651705034E-2,-1.971585900E-1
1.853431122E1,1.618347019E-1,6.358496379E-3,-2.026563734E-1
1.854630968E1,1.471739411E-1,1.124541834E-2,-1.928825378E-1
1.855830885E1,1.282371134E-1,1.307801437E-2,-1.690587848E-1
1.857030688E1,9.891556948E-2,9.412822314E-3,-1.287416816E-1
1.858230534E1,6.165279821E-2,1.063455269E-2,-8.170506358E-2
1.859430381E1,5.982020125E-2,1.246714871E-2,-4.077708721E-2
1.860630227E1,7.509183139E-2,1.307801437E-2,-8.401229978E-3
1.861830067E1,9.769384563E-2,1.246714871E-2,1.114645787E-2
1.863029914E1,1.050242335E-1,1.124541834E-2,2.397462912E-2
1.864229753E1,8.058962226E-2,6.969361566E-3,4.046799242E-2
1.865429556E1,6.104193255E-2,1.552147511E-2,5.512875691E-2
1.866629410E1,5.187895149E-2,2.082439605E-3,5.940481275E-2
1.867829233E1,2.805520780E-2,-8.913134225E-3,6.978952140E-2
1.869029116E1,-5.542380270E-3,-1.685438305E-2,8.872634172E-2
1.870228963E1,-2.631179802E-2,-4.495418444E-2,1.088848934E-1
1.871428852E1,-3.242045268E-2,-4.984110594E-2,1.296543181E-1
1.872628699E1,-3.486391157E-2,-2.051957510E-2,1.522563398E-1
1.873828599E1,-4.036169872E-2,-1.013486460E-2,1.687496901E-1
1.875028445E1,-5.929852277E-2,-1.990870945E-2,1.711931527E-1
1.876228298E1,-8.800918609E-2,-2.051957510E-2,1.687496901E-1
1.877428145E1,-1.124438047E-1,-6.469673477E-3,1.669171005E-1
1.878627991E1,-1.277154386E-1,2.407358959E-2,1.656953543E-1
1.879827831E1,-1.350458115E-1,2.224099264E-2,1.498128623E-1
1.881027678E1,-1.533717662E-1,-1.685438305E-2,1.412607580E-1
1.882227524E1,-1.814715713E-1,-7.122138888E-2,1.327086538E-1
1.883427377E1,-1.961323321E-1,-1.017646492E-1,1.247673929E-1
1.884627237E1,-1.924671531E-1,-9.321253747E-2,1.265999973E-1
1.885827010E1,-1.784172505E-1,-4.984110594E-2,1.314869076E-1
1.887026836E1,-1.716977209E-1,-3.762380034E-2,1.388172954E-1
1.888226702E1,-1.851367652E-1,-3.518034145E-2,1.583649814E-1
1.889426562E1,-2.126256973E-1,-2.174130455E-2,1.791343987E-1
1.890626409E1,-2.272864729E-1,-1.624351740E-2,2.060124725E-1
1.891626422E1,-2.083496451E-1,-7.080539130E-3,2.188406438E-1
1.892826275E1,-1.747520566E-1,6.358496379E-3,2.328905463E-1
1.894026155E1,-1.607021540E-1,-8.302269503E-3,2.298362106E-1
1.895225961E1,-1.558152288E-1,-3.579120710E-2,2.200623751E-1
1.896425808E1,-1.857476383E-1,-8.099523187E-2,2.084559351E-1
1.897625614E1,-2.498884797E-1,-8.771475405E-2,2.054016143E-1
1.898825454E1,-3.097532690E-1,-3.456947207E-2,2.298362106E-1
1.900025301E1,-3.329661489E-1,3.915035166E-3,2.567142844E-1
1.901225194E1,-3.305227160E-1,1.796493493E-2,2.695424557E-1
1.902425040E1,-3.274683654E-1,1.368887909E-2,2.768728435E-1
1.903624794E1,-3.115858734E-1,5.136766005E-3,2.787054479E-1
1.904824633E1,-3.073098063E-1,9.412822314E-3,3.068052232E-1
1.906024480E1,-3.152510822E-1,2.957137488E-2,3.355158865E-1
1.907224326E1,-3.299118280E-1,3.995608538E-2,3.672808707E-1
1.908424180E1,-3.390747905E-1,4.362127557E-2,3.874394596E-1
1.909624113E1,-3.635093868E-1,7.172107697E-2,4.063762724E-1
1.910823956E1,-4.142112434E-1,9.615568817E-2,4.320326149E-1
1.912023802E1,-4.539174736E-1,7.844059914E-2,4.381412566E-1
1.913223649E1,-4.832390249E-1,3.018224053E-2,4.381412566E-1
1.914423489E1,-4.954563081E-1,-4.637078382E-3,4.356978238E-1
1.915623332E1,-4.997323751E-1,-5.858808290E-3,4.411955774E-1
1.916823188E1,-5.015649796E-1,-3.610213753E-4,4.558563530E-1
1.918023105E1,-5.113388300E-1,2.082439605E-3,4.644084871E-1
1.919222951E1,-5.101170540E-1,2.082439605E-3,4.747931957E-1
1.920422791E1,-5.046193004E-1,2.693304792E-3,4.851778746E-1
1.921622708E1,-5.076736212E-1,1.735407114E-2,5.114451051E-1
1.922822554E1,-5.235561132E-1,6.988848001E-2,5.529839396E-1
1.924022297E1,-5.327191353E-1,9.737741947E-2,5.835272074E-1
1.925222157E1,-5.418820977E-1,9.982087463E-2,6.012423038E-1
1.926422030E1,-5.614297390E-1,9.371222556E-2,6.024639606E-1
1.927621826E1,-5.767013431E-1,8.699270338E-2,6.000205874E-1
1.928821692E1,-5.919730067E-1,6.744502485E-2,6.006314158E-1
1.930021592E1,-6.017469168E-1,4.239954799E-2,6.085727215E-1
1.931221439E1,-6.066337824E-1,2.896051109E-2,6.262877584E-1
1.932421285E1,-5.980816483E-1,2.285185829E-2,6.446136832E-1
1.933621138E1,-5.712035894E-1,2.712791413E-2,6.629396677E-1
1.934820985E1,-5.547102690E-1,6.744502485E-2,6.910395026E-1
1.936020831E1,-5.589862466E-1,1.040969416E-1,7.069219947E-1
1.937220671E1,-5.913621187E-1,1.199794337E-1,7.234153152E-1
1.938420644E1,-6.274031997E-1,8.821444213E-2,7.179175615E-1
1.939620451E1,-6.457291842E-1,4.056695104E-2,6.904286146E-1
1.940820291E1,-6.597790718E-1,2.224099264E-2,6.543875933E-1
1.942020137E1,-6.500051618E-1,2.163012698E-2,6.385050416E-1
1.943219997E1,-6.377878785E-1,2.773877978E-2,6.378942132E-1
1.944419717E1,-6.359553337E-1,4.301040992E-2,6.476680040E-1
1.945619613E1,-6.353444457E-1,6.011464074E-2,6.598853469E-1
1.946819473E1,-6.274031997E-1,5.644944683E-2,6.672157645E-1
1.948019369E1,-6.212945580E-1,5.461685359E-2,6.733244061E-1
1.949219302E1,-6.115207076E-1,7.966232300E-2,6.849308610E-1
1.950419269E1,-5.895295143E-1,1.053186655E-1,6.947046518E-1
1.951619238E1,-5.883077979E-1,1.273098141E-1,6.971481442E-1
1.952819225E1,-6.243488789E-1,1.077621281E-1,6.788221598E-1
1.954019188E1,-6.689420342E-1,7.538627088E-2,6.470571756E-1
1.955219128E1,-6.945983768E-1,4.178868234E-2,6.012423038E-1
1.956419068E1,-6.964309812E-1,3.323656693E-2,5.627577305E-1
1.957618911E1,-6.884897351E-1,2.101926319E-2,5.401557684E-1
1.958818831E1,-6.964309812E-1,-6.469673477E-3,5.395449400E-1
1.960018740E1,-7.000961900E-1,-2.804482123E-3,5.590925813E-1
1.961218620E1,-6.958201528E-1,4.789733142E-2,5.994096398E-1
1.962418467E1,-6.829919219E-1,9.126877040E-2,6.495006084E-1
1.963618400E1,-6.689420342E-1,8.210578561E-2,6.898177266E-1
1.964818247E1,-6.536704302E-1,5.950377136E-2,7.105871439E-1
1.966018083E1,-6.280140281E-1,4.789733142E-2,7.118089199E-1
1.967217926E1,-5.919730067E-1,4.972992837E-2,6.953155398E-1
1.968417780E1,-5.650949478E-1,3.629089519E-2,6.672157645E-1
1.969617593E1,-5.540993810E-1,2.346272208E-2,6.366724968E-1
1.970817439E1,-5.516558886E-1,5.828204378E-2,6.165139079E-1
1.972017279E1,-5.486015677E-1,8.638184518E-2,6.171247363E-1
1.973217129E1,-5.510450602E-1,1.071512625E-1,6.183465123E-1
1.974416975E1,-5.870861411E-1,9.615568817E-2,6.403376460E-1
1.975616768E1,-6.371770501E-1,7.233194262E-2,6.556093097E-1
1.976816638E1,-6.927658319E-1,5.095165968E-2,6.604962349E-1
1.978016538E1,-7.104808688E-1,5.339511856E-2,6.495006084E-1
1.979216385E1,-6.829919219E-1,3.506916389E-2,6.275094748E-1
1.980416231E1,-6.555029750E-1,2.773877978E-2,5.994096398E-1
1.981616164E1,-6.481726170E-1,3.995608538E-2,5.914684534E-1
1.982815981E1,-6.518378258E-1,7.477540523E-2,6.061292291E-1
1.984015781E1,-6.646659374E-1,9.737741947E-2,6.281203628E-1
1.985215634E1,-6.719963551E-1,1.138707846E-1,6.464462876E-1
1.986415437E1,-6.622225046E-1,1.260880828E-1,6.568309665E-1
1.987615277E1,-6.493943334E-1,1.352510750E-1,6.629396677E-1
1.988815123E1,-6.353444457E-1,1.095947251E-1,6.763787270E-1
1.990014976E1,-6.432856917E-1,7.233194262E-2,6.824873686E-1
1.991214843E1,-6.744398475E-1,6.194723397E-2,6.916503310E-1
1.992414746E1,-7.049831152E-1,9.065789729E-2,7.057002783E-1
1.993614525E1,-7.275850773E-1,1.205902919E-1,7.185284495E-1
1.994814392E1,-7.416350245E-1,1.242554858E-1,7.203609943E-1
1.996014251E1,-7.501871586E-1,1.199794337E-1,7.075328231E-1
1.997214091E1,-7.422458529E-1,1.114273146E-1,7.020350099E-1
1.998413938E1,-7.379698157E-1,1.102055907E-1,7.008132935E-1
1.999613878E1,-7.410241365E-1,1.114273146E-1,7.038676739E-1
2.000813731E1,-7.489653826E-1,9.432309121E-2,7.105871439E-1
2.002013577E1,-7.685130835E-1,1.040969416E-1,7.124197483E-1
2.003213384E1,-7.953911424E-1,1.010426134E-1,7.234153152E-1
2.004413230E1,-8.216583133E-1,8.882530034E-2,7.405195236E-1
2.005612987E1,-8.515907526E-1,6.805588305E-2,7.722845674E-1
2.006812833E1,-8.741927743E-1,6.500155479E-2,8.071038723E-1
2.008012673E1,-8.741927743E-1,5.400598422E-2,8.217646480E-1
2.009212560E1,-8.668623567E-1,2.163012698E-2,8.290950060E-1
2.010412413E1,-8.528125286E-1,3.915035166E-3,8.187103271E-1
2.011612256E1,-8.210474849E-1,1.002368703E-2,7.967191935E-1
2.012812096E1,-7.911151052E-1,1.429974474E-2,7.918322086E-1
2.014011942E1,-7.727891207E-1,2.285185829E-2,8.058821559E-1
2.015211789E1,-7.562958002E-1,2.040839754E-2,8.303167820E-1
2.016411635E1,-7.312502861E-1,3.690176085E-2,8.486427069E-1
2.017611575E1,-7.031505108E-1,7.660800219E-2,8.602491617E-1
2.018811422E1,-6.823810339E-1,1.150925085E-1,8.565840125E-1
2.020011268E1,-6.719963551E-1,1.059295386E-1,8.339819312E-1
2.021211114E1,-6.567247510E-1,6.133636832E-2,8.077147007E-1
2.022410961E1,-6.512269378E-1,4.911906272E-2,7.826692462E-1
2.023610801E1,-6.707746387E-1,6.927762181E-2,7.826692462E-1
2.024810647E1,-7.068156600E-1,1.157033741E-1,7.783932090E-1
2.026010500E1,-7.526305318E-1,1.260880828E-1,7.600672841E-1
2.027210347E1,-7.850064039E-1,8.332751691E-2,7.270805240E-1
2.028410187E1,-7.703456283E-1,5.095165968E-2,6.830981970E-1
2.029609940E1,-7.202547193E-1,5.950377136E-2,6.549984217E-1
2.030809796E1,-6.567247510E-1,9.126877040E-2,6.647722721E-1
2.032009663E1,-6.151859164E-1,1.242554858E-1,6.879851818E-1
2.033209529E1,-6.383988261E-1,1.505226940E-1,7.209718823E-1
2.034409395E1,-6.793267131E-1,1.657943279E-1,7.490716577E-1
2.035409402E1,-7.000961900E-1,1.682377905E-1,7.545694709E-1
2.036609261E1,-7.251416445E-1,1.633508652E-1,7.466282248E-1
2.037809101E1,-7.672913074E-1,1.444140524E-1,7.441847324E-1
2.039008948E1,-7.941694260E-1,1.205902919E-1,7.344108820E-1
2.040208794E1,-8.143279552E-1,9.126877040E-2,7.197501063E-1
2.041408654E1,-8.241018057E-1,6.622328609E-2,7.185284495E-1
2.042608500E1,-8.112736344E-1,7.599712908E-2,7.283022404E-1
2.043808354E1,-7.941694260E-1,1.150925085E-1,7.570129633E-1
2.045008200E1,-7.880607247E-1,1.590748131E-1,7.991626263E-1
2.046208047E1,-7.807303667E-1,1.725138426E-1,8.394797444E-1
2.047407770E1,-7.752326131E-1,1.810659617E-1,8.681903481E-1
2.048607610E1,-7.874498963E-1,1.602965444E-1,8.663578033E-1
2.049807450E1,-8.027215004E-1,1.260880828E-1,8.425340652E-1
2.051007303E1,-8.247126341E-1,6.927762181E-2,8.199320436E-1
2.052207156E1,-8.430386186E-1,1.613233984E-2,8.266515732E-1
2.053407089E1,-8.387625813E-1,1.979753189E-2,8.504752517E-1
2.054606936E1,-8.259344101E-1,6.561242789E-2,8.950684667E-1
2.055806792E1,-8.192148805E-1,1.169251055E-1,9.433268309E-1
2.057006682E1,-8.124953508E-1,1.535770297E-1,9.757027030E-1
2.058206601E1,-8.198257685E-1,1.670160592E-1,9.958612323E-1
2.059406558E1,-8.393734097E-1,1.627400070E-1,9.921960235E-1
2.060606541E1,-8.613645434E-1,1.199794337E-1,9.714266062E-1
2.061806524E1,-8.943513036E-1,6.500155479E-2,9.439376593E-1
2.063006487E1,-9.071794748E-1,5.400598422E-2,9.152270555E-1
2.064206450E1,-8.857991695E-1,8.943617344E-2,8.993445635E-1
2.065406326E1,-8.729709983E-1,1.218120307E-1,9.060640335E-1
2.066606243E1,-8.601428866E-1,1.450248957E-1,9.317203760E-1
2.067806149E1,-8.619754910E-1,1.609074026E-1,9.604310393E-1
2.069006039E1,-8.729709983E-1,1.676269174E-1,9.695940614E-1
2.070205882E1,-8.912969828E-1,1.566313505E-1,9.531006217E-1
2.071405742E1,-8.955730796E-1,1.334184706E-1,9.237791300E-1
2.072605588E1,-8.772470951E-1,1.163142398E-1,8.865163326E-1
2.073805428E1,-8.522015810E-1,9.798827767E-2,8.571948409E-1
2.075005265E1,-8.338756561E-1,1.150925085E-1,8.553622365E-1
2.076205118E1,-8.448712230E-1,1.676269174E-1,8.865163326E-1
2.077404975E1,-8.735818863E-1,1.657943279E-1,9.176704884E-1
2.078604821E1,-8.906860948E-1,1.505226940E-1,9.274443388E-1
2.079804661E1,-8.888534904E-1,1.431923062E-1,9.201139808E-1
2.081004454E1,-8.857991695E-1,1.370836645E-1,9.078966379E-1
2.082204300E1,-9.035142660E-1,1.297532767E-1,8.987336159E-1
2.083404130E1,-9.218402505E-1,1.291424036E-1,8.962902427E-1
2.084603970E1,-9.328358173E-1,1.212011650E-1,8.852946162E-1
2.085803823E1,-9.401661754E-1,1.230337620E-1,8.822402954E-1
2.087003683E1,-9.438314438E-1,1.321967244E-1,8.956792951E-1
2.088203530E1,-9.236728549E-1,1.358619183E-1,9.121726751E-1
2.089403406E1,-8.900752664E-1,1.505226940E-1,9.396616220E-1
2.090603253E1,-8.583102226E-1,1.767898947E-1,9.695940614E-1
2.091803052E1,-8.357082605E-1,1.883963346E-1,9.866982698E-1
2.093002972E1,-8.418169022E-1,1.694595218E-1,9.860873818E-1
2.094202819E1,-8.686949611E-1,1.590748131E-1,9.628745317E-1
2.095402592E1,-9.059577584E-1,1.639617383E-1,9.262226224E-1
2.096602438E1,-9.426096678E-1,1.523552835E-1,8.749099374E-1
2.097802332E1,-9.749855399E-1,1.376945227E-1,8.168777227E-1
2.099002151E1,-9.884245396E-1,1.383053958E-1,7.759497762E-1
2.100201978E1,-9.829267859E-1,1.401379853E-1,7.643433213E-1
2.101401831E1,-9.670442343E-1,1.523552835E-1,7.783932090E-1
2.102601691E1,-9.432204962E-1,1.554096192E-1,8.052713275E-1
2.103801557E1,-9.212293625E-1,1.725138426E-1,8.315384388E-1
2.105001417E1,-9.096229076E-1,1.835094094E-1,8.547513485E-1
2.106201296E1,-9.102338552E-1,1.975593120E-1,8.602491617E-1
2.107401210E1,-8.931295872E-1,1.804550886E-1,8.400905728E-1
2.108601069E1,-8.711384535E-1,1.334184706E-1,7.997735143E-1
2.109800916E1,-8.418169022E-1,1.083729938E-1,7.643433213E-1
2.111000762E1,-8.155496716E-1,9.676655382E-2,7.447956204E-1
2.112200609E1,-8.039432168E-1,9.859915078E-2,7.399086952E-1
2.113400498E1,-8.192148805E-1,1.108164489E-1,7.551802993E-1
2.114600345E1,-8.308213353E-1,1.095947251E-1,7.765606046E-1
2.115800148E1,-8.289887309E-1,8.882530034E-2,7.967191935E-1
2.116999995E1,-8.186039925E-1,9.371222556E-2,8.309276104E-1
2.118199848E1,-7.972237468E-1,1.346402019E-1,8.523079157E-1
2.119399604E1,-7.770651579E-1,1.596856713E-1,8.492535949E-1
2.120599444E1,-7.569066286E-1,1.493009627E-1,8.052713275E-1
2.121799327E1,-7.404132485E-1,1.065403968E-1,7.417412996E-1
2.122999174E1,-7.220873237E-1,7.966232300E-2,6.794330478E-1
2.124199020E1,-7.153677940E-1,1.059295386E-1,6.525549889E-1
2.125398870E1,-7.104808688E-1,1.303641349E-1,6.556093097E-1
2.126598717E1,-7.098699808E-1,1.132599115E-1,6.708809137E-1
2.127798546E1,-6.921548843E-1,9.493395686E-2,6.739352345E-1
2.128998440E1,-6.677202582E-1,9.982087463E-2,6.611070633E-1
2.130198286E1,-6.420639753E-1,1.059295386E-1,6.458354592E-1
2.131398213E1,-6.231271625E-1,1.065403968E-1,6.189574003E-1
2.132598059E1,-6.280140281E-1,9.554482251E-2,5.890249610E-1
2.133797862E1,-6.420639753E-1,7.844059914E-2,5.603143573E-1
2.134997669E1,-6.524486542E-1,6.805588305E-2,5.480970144E-1
2.136197509E1,-6.585572958E-1,7.294280827E-2,5.529839396E-1
2.137397262E1,-6.567247510E-1,7.538627088E-2,5.792511702E-1
2.138597108E1,-6.292358041E-1,6.927762181E-2,6.018531322E-1
2.139797012E1,-5.809774399E-1,7.721886784E-2,6.140704155E-1
2.140996808E1,-5.266104341E-1,1.004317477E-1,5.975770950E-1
2.142196654E1,-4.978997707E-1,1.163142398E-1,5.615360737E-1
2.143196661E1,-4.997323751E-1,1.004317477E-1,5.273275971E-1
2.144396534E1,-5.363842845E-1,6.805588305E-2,4.918974042E-1
2.145596404E1,-5.974708200E-1,4.850819707E-2,4.692953825E-1
2.146796270E1,-6.744398475E-1,2.040839754E-2,4.595215321E-1
2.147996143E1,-7.159786224E-1,8.607091149E-4,4.613541663E-1
2.149195976E1,-6.897114515E-1,2.082439605E-3,4.631867409E-1
2.150395816E1,-6.151859164E-1,5.828204378E-2,4.503585696E-1
2.151595662E1,-5.455472469E-1,3.995608538E-2,4.338651896E-1
2.152795516E1,-5.137822628E-1,-1.441092230E-2,4.308108687E-1
2.153995465E1,-5.021758080E-1,-3.029341809E-2,4.216478765E-1
2.155195122E1,-5.009540915E-1,-3.823466599E-2,4.137066603E-1
2.156394962E1,-5.003432035E-1,-9.687773138E-2,3.770547509E-1
2.157594818E1,-5.064518452E-1,-1.628511846E-1,3.171899319E-1
2.158794665E1,-5.070627332E-1,-1.848423332E-1,2.768728435E-1
2.159994451E1,-5.113388300E-1,-1.194797456E-1,2.958096564E-1
2.161194451E1,-5.064518452E-1,-3.640206903E-2,3.422354162E-1
2.162394297E1,-4.844607115E-1,-1.685438305E-2,3.911046386E-1
2.163594120E1,-4.490305483E-1,-7.305398583E-2,4.088197351E-1
2.164793970E1,-4.081025720E-1,-1.817879975E-1,3.947698474E-1
2.165993830E1,-3.806136549E-1,-3.626041114E-1,3.556744754E-1
2.167193730E1,-3.683963418E-1,-5.538049340E-1,2.994748652E-1
2.168393643E1,-4.026047885E-1,-7.333992720E-1,2.670989931E-1
2.169593589E1,-4.331480265E-1,-6.613172293E-1,2.793163061E-1
2.170793512E1,-4.245959520E-1,-4.065864086E-1,3.281855285E-1
2.171993412E1,-3.983287215E-1,-1.830097288E-1,3.440680206E-1
2.173193222E1,-3.433508575E-1,-8.302269503E-3,3.300181329E-1
2.174393088E1,-2.975359857E-1,6.805588305E-2,3.110812902E-1
2.175592922E1,-2.871512473E-1,9.371222556E-2,2.903119028E-1
2.176792762E1,-3.219705820E-1,1.108164489E-1,2.793163061E-1
2.177992615E1,-3.580116332E-1,1.028752029E-1,2.725967765E-1
2.179192541E1,-3.763375878E-1,1.368887909E-2,2.658772469E-1
2.180392388E1,-3.647311330E-1,-1.084841713E-1,2.567142844E-1
2.181592241E1,-3.219705820E-1,-2.630330920E-1,2.365557402E-1
2.182792087E1,-2.596623302E-1,-3.913147748E-1,2.023472786E-1
2.183991934E1,-2.333951145E-1,-3.821517825E-1,1.950168908E-1
2.185191704E1,-2.437798381E-1,-2.789155841E-1,2.194515020E-1
2.186391550E1,-2.669927180E-1,-1.720141619E-1,2.383883297E-1
2.187591390E1,-2.792100310E-1,-1.408600360E-1,2.499947697E-1
2.188791236E1,-2.804317176E-1,-2.392093390E-1,2.542708218E-1
2.189991083E1,-2.859295309E-1,-3.962017000E-1,2.475513220E-1
2.191190933E1,-3.097532690E-1,-5.971763730E-1,2.090668082E-1
2.192390773E1,-3.372422159E-1,-8.103683591E-1,1.388172954E-1
2.193590626E1,-3.757267296E-1,-1.035777569E0,5.451789126E-2
2.194790479E1,-4.276502728E-1,-1.338766694E0,-2.903442597E-3
2.195990315E1,-5.259995461E-1,-1.484152675E0,-2.917064913E-2
2.197190289E1,-6.212945580E-1,-1.491482973E0,-3.405757248E-2
2.198390135E1,-6.475617886E-1,-1.515917778E0,-2.428372577E-2
2.199589918E1,-6.243488789E-1,-1.598384500E0,-3.589016572E-2
2.200789765E1,-5.638732314E-1,-1.715059757E0,-6.704429537E-2
2.201989621E1,-4.911802411E-1,-2.016827106E0,-1.153026521E-1
2.203189428E1,-4.539174736E-1,-2.435269833E0,-1.531762928E-1
2.204389274E1,-4.746868908E-1,-2.878757954E0,-1.647827327E-1
2.205589191E1,-5.785340071E-1,-3.205570936E0,-1.702805161E-1
2.206789054E1,-7.453001738E-1,-3.186023235E0,-1.800543666E-1
2.207988913E1,-8.277670145E-1,-2.958781481E0,-1.690587848E-1
2.209188796E1,-7.575175166E-1,-2.782241344E0,-1.311851442E-1
2.210388669E1,-4.978997707E-1,-2.832332373E0,-6.826601923E-2
2.211588529E1,-1.045025513E-1,-3.073013067E0,-2.611632086E-2
2.212788372E1,3.041662872E-1,-3.166475534E0,-5.543785542E-2
2.213988218E1,5.814991593E-1,-3.212901354E0,-1.324068755E-1
2.215187995E1,6.981743574E-1,-3.207403660E0,-2.222040743E-1
2.216387842E1,7.336045504E-1,-3.080954313E0,-2.906209826E-1
2.217587595E1,7.415458560E-1,-3.016202688E0,-2.796253860E-1
2.218787441E1,6.236488223E-1,-2.592873096E0,-2.612994313E-1
2.219987338E1,3.951852024E-1,-1.759042144E0,-2.350322455E-1
2.221187228E1,1.783280671E-1,-1.281956315E0,-2.118193507E-1
2.222387074E1,4.699202999E-2,-1.415124893E0,-1.818869561E-1
2.223387127E1,-8.596706204E-3,-1.640534163E0,-1.678370535E-1
2.224586974E1,2.316828445E-2,-1.678407788E0,-1.757782996E-1
2.225786777E1,1.477847844E-1,-1.288064957E0,-1.721131206E-1
2.226986547E1,3.670854270E-1,-7.614991665E-1,-1.458459198E-1
2.228186466E1,6.163184047E-1,-2.288246155E-1,-5.346903112E-3
2.229386176E1,8.356190920E-1,1.572422236E-1,1.400390267E-1
2.230586023E1,1.004217863E0,3.502756357E-1,2.182297856E-1
2.231785983E1,1.095236778E0,4.302989841E-1,2.365557402E-1
2.232985899E1,1.125779986E0,5.170418620E-1,1.815778613E-1
2.234185672E1,1.108675838E0,4.492357969E-1,8.872634172E-2
2.235385569E1,1.009104848E0,2.916325629E-1,-2.292577177E-3
2.236585415E1,8.154605031E-1,8.271665126E-2,-9.697668999E-2
2.237785098E1,5.271321535E-1,-1.286427081E-1,-1.794434935E-1
2.238984878E1,1.545043141E-1,-2.153855860E-1,-2.393082827E-1
2.240184731E1,-3.451834619E-1,-9.565600008E-2,-1.904390752E-1
2.241384535E1,-7.575175166E-1,-4.128899425E-2,-9.331150353E-2
2.242584338E1,-9.334467053E-1,-1.274209917E-1,-1.389901713E-2
2.243784228E1,-8.845774531E-1,-2.086660713E-1,2.947241627E-2
2.244984064E1,-6.573355794E-1,-1.701815575E-1,1.542251464E-2
2.246183911E1,-3.347987235E-1,-4.617591575E-2,-2.245113067E-2
2.247383800E1,5.662720650E-4,7.660800219E-2,-4.260968417E-2
2.248583703E1,2.302515954E-1,1.774007678E-1,-2.611632086E-2
2.249783570E1,3.408181965E-1,1.932832599E-1,1.725511067E-2
2.250983529E1,3.603658974E-1,1.633508652E-1,3.802452981E-2
2.252183396E1,3.536463976E-1,1.047077999E-1,2.580722421E-2
2.253383255E1,3.524246514E-1,3.751262277E-2,5.037805531E-3
2.254583102E1,3.389856219E-1,2.163012698E-2,-5.957768764E-3
2.255782948E1,3.609767854E-1,5.706030875E-2,-1.695334166E-2
2.256982795E1,5.198017359E-1,1.150925085E-1,1.358991954E-2
2.258182635E1,8.258452415E-1,2.433742136E-1,5.818308145E-2
2.259382481E1,1.251618266E0,4.486249387E-1,7.345471531E-2
2.260582334E1,1.790401459E0,6.153911948E-1,2.641808800E-2
2.261782188E1,2.420814514E0,7.247360349E-1,-8.720283955E-2
2.262981941E1,3.097653151E0,8.670676351E-1,-1.281308085E-1
2.264181781E1,3.821528435E0,9.892406464E-1,-8.781371266E-2
2.265381680E1,4.617486000E0,1.321551442E0,1.211022064E-1
2.266581634E1,5.381678104E0,1.718002915E0,3.813308179E-1
2.267781480E1,5.828220844E0,2.380180836E0,6.140704155E-1
2.268981413E1,5.370071888E0,3.286093950E0,7.124197483E-1
2.270181296E1,4.481873512E0,3.192020655E0,8.297058940E-1
2.271381139E1,3.808089256E0,2.350859404E0,9.775353074E-1
2.272580965E1,2.880795956E0,5.231505036E-1,1.106427908E0
2.273780925E1,1.927846074E0,-1.878771663E0,7.124197483E-1
2.274980848E1,1.138608217E0,-3.762680292E0,-2.399191558E-1
2.276180815E1,5.570645332E-1,-4.657597542E0,-1.073139429E0
2.277180834E1,2.308624685E-1,-4.671036720E0,-1.291829109E0
2.278380794E1,1.874910444E-1,-4.303906918E0,-1.366965532E0
2.279580710E1,2.552970648E-1,-3.716254473E0,-1.549614310E0
2.280780624E1,3.347095549E-1,-2.994211674E0,-1.700497866E0
2.281980493E1,3.059988916E-1,-2.324092627E0,-1.569162011E0
2.283180330E1,3.053880334E-1,-1.370531797E0,-1.169045210E0
2.284380176E1,5.650057197E-1,-4.988270700E-1,-6.388141513E-1
2.285580100E1,9.828375578E-1,2.342112213E-1,-1.232438982E-1
2.286779899E1,1.304152727E0,9.043303728E-1,1.467585415E-1
2.287979836E1,1.293767929E0,1.141346097E0,6.307000667E-2
2.289179676E1,1.080576062E0,1.039942503E0,-1.660044491E-1
2.290379522E1,8.020215034E-1,7.235142589E-1,-3.364358544E-1
2.291579309E1,5.295755863E-1,3.203432262E-1,-3.559835553E-1
2.292779208E1,2.461340874E-1,-1.726250201E-1,-2.741276324E-1
2.293979048E1,7.875702530E-2,-4.236906469E-1,-1.824978143E-1
2.295178922E1,-8.923091739E-2,-5.812938809E-1,-7.132034749E-2
2.296378768E1,-1.875802279E-1,-6.051176190E-1,5.451789126E-2
2.297578614E1,-1.735303253E-1,-4.322427511E-1,1.797452718E-1
2.298778454E1,-4.524862394E-2,-6.022581458E-2,2.970314026E-1
2.299978207E1,4.638116434E-2,2.122200727E-1,3.349050283E-1
2.301178034E1,1.239610538E-1,4.913854897E-1,3.416245282E-1
2.302377887E1,1.813823879E-1,6.471561193E-1,3.000857234E-1
2.303577710E1,2.076496035E-1,6.880841255E-1,2.212841064E-1
2.304777550E1,1.868801713E-1,6.160020232E-1,1.528671831E-1
2.305977397E1,1.319022924E-1,4.712269604E-1,1.265999973E-1
2.307177243E1,1.950309612E-2,2.201613337E-1,1.088848934E-1
2.308377090E1,-1.442087889E-1,-2.235217020E-2,1.186587438E-1
2.309576909E1,-2.694361508E-1,-1.494121403E-1,1.406498849E-1
2.310776763E1,-2.828752100E-1,-1.891183704E-1,1.931843013E-1
2.311976666E1,-2.431689650E-1,-1.109276265E-1,2.438861281E-1
2.313176556E1,-1.613130122E-1,3.934521973E-2,2.444969714E-1
2.314376395E1,-3.119872138E-2,2.158852667E-1,2.145645916E-1
2.315576285E1,1.196849942E-1,3.032390177E-1,1.577541232E-1
2.316776132E1,2.119256407E-1,3.350040019E-1,6.612432748E-2
2.317975932E1,2.271972746E-1,2.824695706E-1,2.947241627E-2
2.319175754E1,2.388037145E-1,1.841202825E-1,1.725511067E-2
2.320375578E1,2.253646851E-1,7.782972604E-2,1.358991954E-2
2.321575444E1,1.575586349E-1,-1.929784380E-2,3.205209970E-3
2.322775307E1,6.043106318E-2,-7.488658279E-2,1.420078427E-2
2.323975263E1,-4.320649896E-3,-1.408600360E-1,3.191587701E-2
2.325175103E1,-5.257900059E-2,-2.263811678E-1,3.924625739E-2
2.326374993E1,-5.929852277E-2,-3.064045012E-1,3.069414571E-2
2.327574803E1,-1.287276391E-2,-3.491650820E-1,-1.070846803E-3
2.328774652E1,7.203750312E-2,-3.638258278E-1,-5.360525846E-2
2.329974486E1,1.508391201E-1,-3.320608437E-1,-1.098048612E-1
2.331174362E1,2.375819832E-1,-2.850242257E-1,-1.800543666E-1
2.332367742E1,2.980576456E-1,-2.404310554E-1,-2.576342523E-1
2.333567588E1,3.053880334E-1,-1.830097288E-1,-3.181098998E-1
2.334767434E1,2.724013031E-1,-1.689598262E-1,-3.333815336E-1
2.335967208E1,2.229212224E-1,-2.361550033E-1,-3.187207580E-1
2.337167031E1,1.202958599E-1,-3.540520072E-1,-3.089469373E-1
2.338366877E1,1.950309612E-2,-4.652294517E-1,-3.132230043E-1
2.339566767E1,-2.631179802E-2,-5.281485915E-1,-3.065034747E-1
2.340766607E1,-2.386833727E-2,-5.409767628E-1,-3.120012581E-1
2.341966500E1,-1.287276391E-2,-5.269268751E-1,-3.297163248E-1
2.343166347E1,-2.488054102E-3,-5.134878755E-1,-3.449879885E-1
2.344366200E1,-1.287276391E-2,-5.031031370E-1,-3.663682640E-1
2.345566040E1,-3.608564287E-2,-5.177638531E-1,-4.115723073E-1
2.346765886E1,-7.395929098E-2,-5.031031370E-1,-4.671610296E-1
2.347965766E1,-8.434399217E-2,-4.688946605E-1,-4.891521931E-1
2.349165609E1,-8.800918609E-2,-3.894821703E-1,-4.677718878E-1
2.350365496E1,-2.142487653E-2,-3.583280742E-1,-4.134048820E-1
2.351565342E1,4.699202999E-2,-4.059755504E-1,-3.572053015E-1
2.352765195E1,4.577030241E-2,-4.908857942E-1,-3.462097049E-1
2.353965049E1,1.339444239E-2,-5.751852393E-1,-3.859159648E-1
2.355164942E1,-2.325747348E-2,-6.436021328E-1,-4.396720827E-1
2.356364735E1,-3.669650480E-2,-6.332173944E-1,-4.842652678E-1
2.357564581E1,-2.631179802E-2,-5.696874261E-1,-5.264149904E-1
2.358764434E1,-3.547477722E-2,-5.098226070E-1,-5.728406906E-1
2.359964341E1,-5.380073562E-2,-4.951618612E-1,-5.868906379E-1
2.361164157E1,-6.723976880E-2,-5.330355167E-1,-5.868906379E-1
2.362364030E1,-7.823534310E-2,-5.886242390E-1,-5.746733546E-1
2.363563896E1,-7.579188794E-2,-6.258870363E-1,-5.667320490E-1
2.364763756E1,-5.257900059E-2,-6.594846249E-1,-5.624560118E-1
2.365963462E1,-3.852910176E-2,-6.723127961E-1,-5.783385038E-1
2.367163309E1,-1.470535900E-2,-6.631498337E-1,-6.033839583E-1
2.368363155E1,1.400530711E-2,-6.405478120E-1,-6.204882264E-1
2.369563009E1,4.332683980E-2,-6.442130208E-1,-6.314837933E-1
2.370762855E1,5.859846994E-2,-6.991908550E-1,-6.320946813E-1
2.371962695E1,6.348539144E-2,-7.712729573E-1,-6.357598305E-1
2.373162541E1,7.264836878E-2,-8.250291348E-1,-6.400358677E-1
2.374362388E1,9.769384563E-2,-8.348029256E-1,-6.522531509E-1
2.375562234E1,1.074676886E-1,-8.042597175E-1,-6.718009114E-1
2.376762074E1,8.914173394E-2,-7.425622940E-1,-6.760769486E-1
2.377962021E1,6.776145101E-2,-7.095755339E-1,-6.614161730E-1
2.379161881E1,3.172039986E-2,-7.138516307E-1,-6.534749269E-1
2.380361750E1,-1.348362863E-2,-7.327884436E-1,-6.736334562E-1
2.381561630E1,-4.036169872E-2,-7.217928171E-1,-6.803530455E-1
2.382761550E1,-5.013554543E-2,-6.979691386E-1,-6.681357026E-1
2.383961476E1,-6.601803750E-2,-6.906387210E-1,-6.675248146E-1
2.385161396E1,-9.778303653E-2,-7.010234594E-1,-6.693574190E-1
2.386361299E1,-1.521500349E-1,-6.991908550E-1,-6.437011361E-1
2.387561186E1,-2.132365555E-1,-7.089647055E-1,-6.021622419E-1
2.388761039E1,-2.749339640E-1,-7.816576362E-1,-5.642885566E-1
2.389960792E1,-3.183054030E-1,-8.164770007E-1,-5.484061241E-1
2.391160638E1,-3.231923282E-1,-8.329703212E-1,-5.587908030E-1
2.392360478E1,-2.895947397E-1,-8.378573060E-1,-5.954427719E-1
2.393560325E1,-2.095713615E-1,-8.274725080E-1,-6.577509642E-1
2.394760178E1,-7.518101484E-2,-7.950966954E-1,-7.328873873E-1
2.395960058E1,-3.098919289E-3,-7.633317113E-1,-7.835892439E-1
2.397159868E1,5.248981714E-2,-7.480600476E-1,-8.287932873E-1
2.398359714E1,7.692442834E-2,-7.688295245E-1,-8.190194368E-1
2.399559517E1,4.638116434E-2,-8.219748139E-1,-7.915304303E-1
2.400759364E1,-4.952467605E-2,-8.855047822E-1,-7.805349231E-1
2.401959230E1,-1.173307225E-1,-9.007763863E-1,-7.658741474E-1
2.403159063E1,-1.698651314E-1,-9.074959159E-1,-7.286113501E-1
