"Time (s)","Gyroscope x (rad/s)","Gyroscope y (rad/s)","Gyroscope z (rad/s)","Absolute (rad/s)"
0.000000000E0,8.700101972E-1,-1.654664755E0,1.082826376E0,2.160404165E0
1.974000000E-3,9.763007164E-1,-1.633895278E0,9.838662744E-1,2.142608157E0
3.974000000E-3,1.016006947E0,-1.624732256E0,9.484360814E-1,2.138119739E0
5.979000000E-3,1.050826311E0,-1.608239055E0,9.117841721E-1,2.126503978E0
7.979000000E-3,1.124130130E0,-1.572197914E0,8.342042565E-1,2.105082319E0
9.978600000E-3,1.190714478E0,-1.522717953E0,7.535700798E-1,2.074690049E0
1.197826600E-2,1.221257687E0,-1.494618058E0,7.144747376E-1,2.058112637E0
1.397798000E-2,1.288452864E0,-1.429866314E0,6.295644641E-1,2.025087621E0
1.597773000E-2,1.348317623E0,-1.370001554E0,5.458759069E-1,1.998210494E0
1.797750700E-2,1.377028346E0,-1.349232197E0,5.104457140E-1,1.994289200E0
1.997730700E-2,1.428340912E0,-1.331516981E0,4.481374621E-1,2.003477581E0
2.197476100E-2,1.475377560E0,-1.347399592E0,4.023225605E-1,2.038158004E0
2.397409400E-2,1.501033902E0,-1.352897286E0,3.784988523E-1,2.055892805E0
2.597378600E-2,1.540740252E0,-1.362671137E0,3.235209584E-1,2.082166891E0
2.797350000E-2,1.571894288E0,-1.346177697E0,2.673213482E-1,2.086745492E0
2.997323300E-2,1.582279086E0,-1.326630116E0,2.373889536E-1,2.078438858E0
3.197298300E-2,1.614044070E0,-1.272873878E0,1.860762835E-1,2.063969611E0
3.397274700E-2,1.636035204E0,-1.183687568E0,1.414831132E-1,2.024288744E0
3.597252400E-2,1.645198107E0,-1.131153226E0,1.225462854E-1,2.000300483E0
3.797231300E-2,1.658026338E0,-1.013867140E0,9.017043561E-2,1.945535561E0
3.997211300E-2,1.667800188E0,-8.929157853E-1,7.123360783E-2,1.893127120E0
4.197054100E-2,1.673908830E0,-7.701318264E-1,5.412938073E-2,1.843367514E0
4.397026800E-2,1.676352262E0,-7.096561790E-1,4.985332489E-2,1.821058526E0
4.596983300E-2,1.678795815E0,-5.935918093E-1,4.374467209E-2,1.781185060E0
4.796958300E-2,1.676963091E0,-5.373921990E-1,4.374467209E-2,1.761507644E0
4.996934300E-2,1.667189360E0,-4.311016500E-1,4.435553774E-2,1.722595834E0
5.196911200E-2,1.656804562E0,-3.339740932E-1,5.229678378E-2,1.690939089E0
5.396840800E-2,1.645198107E0,-2.961004376E-1,6.023803353E-2,1.672716623E0
5.596812200E-2,1.622596145E0,-2.227966040E-1,7.856398821E-2,1.639703899E0
5.796784600E-2,1.587166071E0,-1.580448896E-1,1.017768681E-1,1.598259320E0
5.996757900E-2,1.567007422E0,-1.299450845E-1,1.158267707E-1,1.576646386E0
6.196731200E-2,1.500423074E0,-2.793059126E-2,1.512569636E-1,1.508286507E0
6.396704500E-2,1.475377560E0,2.093862742E-2,1.646959782E-1,1.484689238E0
6.596627800E-2,1.444834352E0,7.835996151E-2,1.787458956E-1,1.457956338E0
6.796601100E-2,1.377028346E0,2.194698304E-1,2.166195363E-1,1.411133621E0
6.996581100E-2,1.298226714E0,3.563036621E-1,2.789278030E-1,1.374825669E0
7.196554400E-2,1.260963917E0,4.118923843E-1,3.113036454E-1,1.362569373E0
7.396527700E-2,1.183994889E0,4.803093076E-1,3.705575764E-1,1.330358540E0
7.596501000E-2,1.119853973E0,4.992461205E-1,4.139290154E-1,1.294085330E0
7.796474300E-2,1.083812952E0,4.968026280E-1,4.365310371E-1,1.269654564E0
7.996447600E-2,1.025780797E0,4.729789197E-1,4.579113126E-1,1.218859332E0
8.196420900E-2,9.598073959E-1,4.515986443E-1,4.676851630E-1,1.159267434E0
8.396414200E-2,9.262098074E-1,4.436573684E-1,4.689068794E-1,1.128968613E0
8.596394200E-2,8.596253991E-1,4.326618016E-1,4.640199542E-1,1.068394393E0
8.796367500E-2,7.814347148E-1,4.430465102E-1,4.493591785E-1,1.004417291E0
8.996340800E-2,7.423393726E-1,4.473225772E-1,4.414179325E-1,9.726330364E-1
9.196314100E-2,6.586508155E-1,4.644267857E-1,4.175941944E-1,9.076882985E-1
9.396287400E-2,5.731296539E-1,4.796984196E-1,3.846074939E-1,8.405421455E-1
9.596260700E-2,5.273147821E-1,4.803093076E-1,3.668923974E-1,8.021022015E-1
9.796234000E-2,4.362958372E-1,4.888614118E-1,3.222992122E-1,7.302166252E-1
9.996207300E-2,3.440551758E-1,4.986352623E-1,2.722082734E-1,6.641599452E-1
1.019619060E-1,2.047779113E-1,5.041330457E-1,1.940175146E-1,5.776910218E-1
1.039617720E-1,2.047779113E-1,5.041330457E-1,1.940175146E-1,5.776910218E-1
1.059616380E-1,1.143698543E-1,5.120742917E-1,1.384287924E-1,5.426445193E-1
1.079613710E-1,6.977669895E-2,5.175721049E-1,1.091072559E-1,5.335298162E-1
1.099611040E-1,-1.757703535E-2,5.371197462E-1,5.474024639E-2,5.401879937E-1
1.119608370E-1,-9.943297505E-2,5.585000515E-1,2.205834491E-3,5.672866028E-1
1.139610030E-1,-1.434152871E-1,5.725499392E-1,-2.100704610E-2,5.906121176E-1
1.159608030E-1,-2.246603519E-1,5.982062817E-1,-6.804367155E-2,6.426141691E-1
1.179606030E-1,-3.089597523E-1,6.263061166E-1,-1.108042374E-1,7.071018733E-1
1.199603360E-1,-3.480551541E-1,6.397451162E-1,-1.297410578E-1,7.397627634E-1
1.219600690E-1,-4.690064490E-1,6.733427048E-1,-1.779994220E-1,8.396673398E-1
1.239598020E-1,-5.074909925E-1,6.745644808E-1,-1.896058470E-1,8.651790124E-1
1.259595350E-1,-5.447537303E-1,6.806731224E-1,-2.036557496E-1,8.952922375E-1
1.279592680E-1,-6.217227578E-1,6.825056672E-1,-2.225925773E-1,9.496844891E-1
1.299590010E-1,-6.962483525E-1,6.690666676E-1,-2.390859425E-1,9.947733721E-1
1.319588010E-1,-7.322893739E-1,6.586819291E-1,-2.464163154E-1,1.015298287E0
1.339585340E-1,-7.964302301E-1,6.324147582E-1,-2.598553598E-1,1.049654394E0
1.359582670E-1,-8.550733328E-1,5.975953937E-1,-2.751269937E-1,1.078872338E0
1.379580000E-1,-8.825622201E-1,5.804911852E-1,-2.824573815E-1,1.093466168E0
1.399577330E-1,-9.381509423E-1,5.481153727E-1,-2.977290154E-1,1.126587866E0
1.419574660E-1,-9.888527989E-1,5.194046497E-1,-3.166658282E-1,1.160985915E0
1.439571990E-1,-1.012676477E0,5.047438741E-1,-3.252179325E-1,1.177304859E0
1.459569320E-1,-1.059102297E0,4.876396656E-1,-3.386569917E-1,1.214157600E0
1.479567320E-1,-1.100641131E0,4.784766734E-1,-3.459873796E-1,1.249022856E0
1.499564650E-1,-1.123854041E0,4.528203309E-1,-3.612589836E-1,1.264358419E0
1.519561980E-1,-1.157451510E0,4.228879809E-1,-3.753089011E-1,1.288171190E0
1.539559310E-1,-1.191049218E0,3.862360418E-1,-3.863044679E-1,1.310346390E0
1.559556640E-1,-1.208153486E0,3.648557663E-1,-3.905805051E-1,1.321100945E0
1.579553970E-1,-1.239307523E0,3.330907524E-1,-4.015760720E-1,1.344654575E0
1.599551300E-1,-1.253357410E0,3.153756857E-1,-4.040195644E-1,1.354104291E0
1.619548630E-1,-1.291231036E0,2.622303963E-1,-4.131825268E-1,1.380855593E0
1.639543960E-1,-1.302226663E0,2.487913668E-1,-4.162368476E-1,1.389584304E0
1.659537620E-1,-1.314443946E0,2.274110913E-1,-4.137933850E-1,1.396675931E0
1.679534950E-1,-1.336435080E0,1.901482940E-1,-4.199020267E-1,1.413694736E0
1.699532280E-1,-1.352928519E0,1.553289741E-1,-4.223455191E-1,1.425804477E0
1.719529610E-1,-1.359037161E0,1.370030195E-1,-4.253998399E-1,1.430635123E0
1.739526940E-1,-1.370032668E0,9.485332668E-2,-4.321193397E-1,1.439692255E0
1.759524270E-1,-1.373697877E0,5.148189142E-2,-4.394497275E-1,1.443195172E0
1.779521600E-1,-1.376141310E0,3.132333606E-2,-4.473910034E-1,1.447378584E0
1.799519600E-1,-1.371865273E0,-5.939442664E-3,-4.614408910E-1,1.447403641E0
1.819516930E-1,-1.363924026E0,-5.053260550E-2,-4.889298081E-1,1.449791244E0
1.839514260E-1,-1.363924026E0,-5.053260550E-2,-4.889298081E-1,1.449791244E0
1.859511590E-1,-1.357204437E0,-6.885856390E-2,-5.103101134E-1,1.451606627E0
1.879508920E-1,-1.346819878E0,-8.474105597E-2,-5.323012471E-1,1.450672067E0
1.899506250E-1,-1.341322064E0,-8.901711553E-2,-5.469620228E-1,1.451287836E0
1.919503580E-1,-1.327882886E0,-9.634749591E-2,-5.738400817E-1,1.449775237E0
1.939501580E-1,-1.311389685E0,-8.840624988E-2,-6.025508046E-1,1.445899735E0
1.959499580E-1,-1.304670215E0,-8.351932466E-2,-6.147680879E-1,1.444672852E0
1.979496910E-1,-1.290620208E0,-6.091731787E-2,-6.343157291E-1,1.439363708E0
1.999494240E-1,-1.278402925E0,-3.220665082E-2,-6.550851464E-1,1.436832577E0
2.019491570E-1,-1.263742208E0,2.338209003E-2,-6.685242057E-1,1.429865625E0
2.039488900E-1,-1.263742208E0,2.338209003E-2,-6.685242057E-1,1.429865625E0
2.059486230E-1,-1.252135754E0,7.102958113E-2,-6.801306009E-1,1.426697859E0
2.079483560E-1,-1.246637940E0,9.668592364E-2,-6.813523769E-1,1.423971693E0
2.099481560E-1,-1.240529299E0,1.504420638E-1,-6.874610186E-1,1.426235748E0
2.119479560E-1,-1.230755329E0,2.158046365E-1,-6.892936230E-1,1.427044505E0
2.139476890E-1,-1.223425031E0,2.402392626E-1,-6.923479438E-1,1.426123902E0
2.159474220E-1,-1.215483785E0,3.031583726E-1,-6.935697198E-1,1.431902506E0
2.179471550E-1,-1.206931591E0,3.599688411E-1,-6.935697198E-1,1.437810971E0
2.199468880E-1,-1.202655673E0,3.868469298E-1,-6.917370558E-1,1.440323356E0
2.219466210E-1,-1.187994838E0,4.662593901E-1,-6.819632649E-1,1.446998082E0
2.239464870E-1,-1.184329748E0,4.900831282E-1,-6.782980561E-1,1.450140227E0
2.259466530E-1,-1.177610159E0,5.126851797E-1,-6.740219593E-1,1.450488670E0
2.279463860E-1,-1.175777555E0,5.572783351E-1,-6.660807729E-1,1.461737184E0
2.299461190E-1,-1.162949324E0,5.896541476E-1,-6.508091688E-1,1.457290540E0
2.319458520E-1,-1.160505891E0,6.067584157E-1,-6.471439004E-1,1.460727533E0
2.339455850E-1,-1.153786421E0,6.293604374E-1,-6.367592216E-1,1.460404044E0
2.359453180E-1,-1.148288608E0,6.421886086E-1,-6.294288039E-1,1.458476450E0
2.379450510E-1,-1.146456003E0,6.452429295E-1,-6.245419383E-1,1.456280343E0
2.399447840E-1,-1.134849668E0,6.391342878E-1,-6.208767295E-1,1.442866702E0
2.419445840E-1,-1.123854041E0,6.263061166E-1,-6.166006327E-1,1.426710762E0
2.439443170E-1,-1.117745399E0,6.159213781E-1,-6.153789163E-1,1.416829253E0
2.459440500E-1,-1.105528116E0,5.902650356E-1,-6.135463119E-1,1.395365294E0
2.479437830E-1,-1.081093431E0,5.609434843E-1,-6.178224087E-1,1.365695840E0
2.499435160E-1,-1.067043543E0,5.407849550E-1,-6.190441251E-1,1.346939464E0
2.519432490E-1,-1.034056783E0,4.876396656E-1,-6.263744831E-1,1.303614539E0
2.539429820E-1,-9.949614406E-1,4.351052642E-1,-6.343157291E-1,1.257625263E0
2.559427150E-1,-9.699159265E-1,4.057837129E-1,-6.398135424E-1,1.230755335E0
2.579420810E-1,-9.204358459E-1,3.501950204E-1,-6.434787512E-1,1.176394322E0
2.599418140E-1,-8.648471236E-1,2.994931936E-1,-6.428678632E-1,1.118452417E0
2.619415470E-1,-8.074257970E-1,2.573434711E-1,-6.416461468E-1,1.062954306E0
2.639412800E-1,-7.732173204E-1,2.347414643E-1,-6.337049007E-1,1.026913083E0
2.659410130E-1,-7.102982402E-1,1.956460923E-1,-6.178224087E-1,9.615120967E-1
2.679407460E-1,-6.754788756E-1,1.773201227E-1,-6.092702746E-1,9.267817461E-1
2.699404790E-1,-6.052294374E-1,1.431116760E-1,-5.860573649E-1,8.545448254E-1
2.719402120E-1,-5.355907679E-1,1.089032218E-1,-5.567358136E-1,7.801744347E-1
2.739400120E-1,-5.026040077E-1,9.240985662E-2,-5.414642096E-1,7.445360034E-1
2.759397450E-1,-4.323545396E-1,6.614265591E-2,-5.090883970E-1,6.711753086E-1
2.779394780E-1,-3.627158999E-1,3.926458210E-2,-4.730473459E-1,5.973929385E-1
2.799392110E-1,-3.260639906E-1,2.216035873E-2,-4.547213614E-1,5.599824318E-1
2.819389440E-1,-2.277146727E-1,-1.632415131E-2,-3.979108930E-1,4.587521431E-1
2.839386770E-1,-1.959496886E-1,-2.670885995E-2,-3.771414757E-1,4.258466113E-1
2.859384100E-1,-1.654064357E-1,-3.892616555E-2,-3.575937748E-1,3.959139340E-1
2.879382100E-1,-1.030981690E-1,-6.458250433E-2,-3.148332238E-1,3.375205048E-1
2.899380100E-1,-4.567683861E-2,-9.146057814E-2,-2.751269937E-1,2.935068544E-1
2.919377430E-1,-1.757703535E-2,-1.024561524E-1,-2.543575764E-1,2.747798974E-1
2.939374760E-1,3.617910296E-2,-1.287233531E-1,-2.115969956E-1,2.503036510E-1
2.959372090E-1,8.321572840E-2,-1.531579792E-1,-1.676146984E-1,2.418199975E-1
2.979369420E-1,1.088720709E-1,-1.659861356E-1,-1.480670124E-1,2.476456444E-1
2.999366750E-1,1.540760994E-1,-1.855338216E-1,-1.034738570E-1,2.624291951E-1
3.019364080E-1,2.139408886E-1,-2.093575746E-1,-4.116560146E-2,3.021521216E-1
3.039362080E-1,2.139408886E-1,-2.093575746E-1,-4.116560146E-2,3.021521216E-1
3.059359410E-1,2.426515520E-1,-2.142444849E-1,-3.291952889E-3,3.237148621E-1
3.079356740E-1,2.713622153E-1,-2.172988057E-1,2.847304009E-2,3.488078796E-1
3.099354070E-1,2.829686701E-1,-2.172988057E-1,4.191207513E-2,3.592306519E-1
3.119351400E-1,3.074032664E-1,-2.166879624E-1,6.940101087E-2,3.824486130E-1
3.139348730E-1,3.226749003E-1,-2.099684328E-1,9.505735338E-2,3.965371792E-1
3.159346060E-1,3.287835717E-1,-2.020271868E-1,1.078855246E-1,4.006905385E-1
3.179347720E-1,3.342813551E-1,-1.904207468E-1,1.298766583E-1,4.060443714E-1
3.199345720E-1,3.318378925E-1,-1.690404713E-1,1.482026279E-1,4.008180220E-1
3.219343050E-1,3.330596089E-1,-1.543796957E-1,1.634742618E-1,4.018527439E-1
3.239340380E-1,3.318378925E-1,-1.372754723E-1,1.659177244E-1,3.955877064E-1
3.259337710E-1,3.257292211E-1,-1.128408611E-1,1.708046347E-1,3.847165302E-1
3.279335040E-1,3.232857585E-1,-1.000126898E-1,1.708046347E-1,3.790652226E-1
3.299332370E-1,3.147336543E-1,-7.252375782E-2,1.701937765E-1,3.650792929E-1
3.319329700E-1,3.098467290E-1,-4.503481835E-2,1.665285826E-1,3.546334716E-1
3.339327030E-1,3.110684454E-1,-2.793059126E-2,1.634742618E-1,3.525159995E-1
3.359325030E-1,3.080141246E-1,-1.082636416E-2,1.591981947E-1,3.468918799E-1
3.379322360E-1,3.037380576E-1,3.223536070E-3,1.543112844E-1,3.407039350E-1
3.399319690E-1,3.080141246E-1,6.277862005E-3,1.518678069E-1,3.434762631E-1
3.419317020E-1,3.049598038E-1,-1.052520820E-3,1.482026279E-1,3.390657881E-1
3.439314350E-1,3.049598038E-1,-1.021549944E-2,1.457591653E-1,3.381576151E-1
3.459310680E-1,3.055706918E-1,-1.265896019E-2,1.463700235E-1,3.390543920E-1
3.479308010E-1,3.031272292E-1,-2.915232256E-2,1.445374340E-1,3.370861089E-1
3.499305340E-1,3.043489456E-1,-3.709357232E-2,1.414831132E-1,3.376709717E-1
3.519303340E-1,3.067924082E-1,-4.198049009E-2,1.414831132E-1,3.404429682E-1
3.539301000E-1,3.049598038E-1,-4.625654966E-2,1.396505088E-1,3.385888582E-1
3.559298660E-1,3.031272292E-1,-4.503481835E-2,1.365961879E-1,3.355186590E-1
3.579296320E-1,3.025163710E-1,-4.442395270E-2,1.329309940E-1,3.334070957E-1
3.599293980E-1,3.019054830E-1,-2.976318821E-2,1.329309940E-1,3.312150619E-1
3.619291640E-1,3.031272292E-1,-1.326982584E-2,1.280440688E-1,3.293288462E-1
3.639289300E-1,3.025163710E-1,-4.106846638E-3,1.280440688E-1,3.285244351E-1
3.659287630E-1,3.037380576E-1,2.582555078E-2,1.219354272E-1,3.283169431E-1
3.679285960E-1,3.043489456E-1,6.064487249E-2,1.164376363E-1,3.314570929E-1
3.699288620E-1,3.031272292E-1,8.324687928E-2,1.133833081E-1,3.341735096E-1
3.719286280E-1,3.092358708E-1,1.290617883E-1,1.109398529E-1,3.529750982E-1
3.739283940E-1,3.116793334E-1,1.791527271E-1,1.017768681E-1,3.736284751E-1
3.759281600E-1,3.116793334E-1,2.072525322E-1,9.811168164E-2,3.869412373E-1
3.779279260E-1,3.159553707E-1,2.652847171E-1,9.017043561E-2,4.222966787E-1
3.799276920E-1,3.208423257E-1,3.184300065E-1,8.222918212E-2,4.594552267E-1
3.819275250E-1,3.251183629E-1,3.709644079E-1,7.245533913E-2,4.985642567E-1
3.839273580E-1,3.220640123E-1,3.947881460E-1,7.062274218E-2,5.143641511E-1
3.859271240E-1,3.226749003E-1,4.375487268E-1,6.145976111E-2,5.471245579E-1
3.879268900E-1,3.214531839E-1,4.570963979E-1,5.962716788E-2,5.619827983E-1
3.899266560E-1,3.190096915E-1,4.937483072E-1,5.168592185E-2,5.901067773E-1
3.919264220E-1,3.098467290E-1,5.230698586E-1,4.618813470E-2,6.097051879E-1
3.939261880E-1,3.074032664E-1,5.371197462E-1,4.191207513E-2,6.202830096E-1
3.959259540E-1,3.019054830E-1,5.609434843E-1,3.702515364E-2,6.381029504E-1
3.979257870E-1,2.945750952E-1,5.817129612E-1,3.274909407E-2,6.528682555E-1
3.999255530E-1,2.878555954E-1,5.927084684E-1,3.335996345E-2,6.597553027E-1
4.019253190E-1,2.774708867E-1,6.128670573E-1,2.725131065E-2,6.733043568E-1
4.039260520E-1,2.731948197E-1,6.232517958E-1,2.725131065E-2,6.810439372E-1
4.059259180E-1,2.713622153E-1,6.275278330E-1,2.847304009E-2,6.842801671E-1
4.079256840E-1,2.603666484E-1,6.366907954E-1,2.664044313E-2,6.883862824E-1
4.099254500E-1,2.536471188E-1,6.421886086E-1,3.580342233E-2,6.913934878E-1
4.119252160E-1,2.450950146E-1,6.427994370E-1,3.824688494E-2,6.890032704E-1
4.139250160E-1,2.267690599E-1,6.244735122E-1,8.039658517E-2,6.692196835E-1
4.159247490E-1,1.901171356E-1,6.018714309E-1,1.304875314E-1,6.445314115E-1
4.179244820E-1,1.772889644E-1,5.951519608E-1,1.549221426E-1,6.400297678E-1
4.199242150E-1,1.461348385E-1,5.804911852E-1,1.989044547E-1,6.307839481E-1
4.219239480E-1,1.131481230E-1,5.694956183E-1,2.361672223E-1,6.268195226E-1
4.239236810E-1,9.970909357E-2,5.615543723E-1,2.544931769E-1,6.245414266E-1
4.259234140E-1,6.977669895E-2,5.554457307E-1,2.795386612E-1,6.257240690E-1
4.279231470E-1,3.923343122E-2,5.597218275E-1,3.045841455E-1,6.384350304E-1
4.299224470E-1,2.274006978E-2,5.615543723E-1,3.155797124E-1,6.445548687E-1
4.319221800E-1,-5.359731615E-3,5.652195215E-1,3.351273835E-1,6.571241872E-1
4.339219130E-1,-3.590299189E-2,5.603326559E-1,3.479555547E-1,6.605564156E-1
4.359216460E-1,-4.812030122E-2,5.560565591E-1,3.540641963E-1,6.609658958E-1
4.379213790E-1,-7.438750565E-2,5.438392758E-1,3.620054722E-1,6.575276578E-1
4.399211120E-1,-9.698951989E-2,5.304002762E-1,3.644489050E-1,6.508105902E-1
4.419208450E-1,-1.244784519E-1,5.383414626E-1,3.668923974E-1,6.632619744E-1
4.439205450E-1,-1.397500932E-1,5.536131263E-1,3.656706512E-1,6.780358451E-1
4.459203450E-1,-1.702933460E-1,5.786585808E-1,3.681141138E-1,7.066495437E-1
4.479200780E-1,-1.843432486E-1,5.872107148E-1,3.638380766E-1,7.149664348E-1
4.499198110E-1,-2.099995911E-1,5.811020732E-1,3.601728678E-1,7.151950380E-1
4.519195440E-1,-2.332124561E-1,5.676630139E-1,3.522316217E-1,7.075990831E-1
4.539192770E-1,-2.448189110E-1,5.560565591E-1,3.467338383E-1,6.995423866E-1
4.559190100E-1,-2.619231343E-1,5.444501638E-1,3.351273835E-1,6.908980188E-1
4.579187430E-1,-2.814708352E-1,5.187938213E-1,3.229101002E-1,6.727880743E-1
4.599185430E-1,-2.820816934E-1,4.968026280E-1,3.149688542E-1,6.523712993E-1
4.619183430E-1,-2.930772603E-1,4.283857346E-1,2.911450863E-1,5.951252636E-1
4.639171090E-1,-2.942989767E-1,4.051728845E-1,2.856473029E-1,5.765165528E-1
4.659169750E-1,-2.961315811E-1,3.795165420E-1,2.764843404E-1,5.551308940E-1
4.679165410E-1,-2.985750437E-1,3.337016404E-1,2.624344230E-1,5.190141307E-1
4.699162740E-1,-2.985750437E-1,3.086561561E-1,2.575475276E-1,5.007458520E-1
4.719160070E-1,-2.949098647E-1,2.634521127E-1,2.477736622E-1,4.666590100E-1
4.739157400E-1,-2.961315811E-1,2.127503157E-1,2.379998118E-1,4.354314189E-1
4.759155400E-1,-2.973533273E-1,1.913700253E-1,2.343346179E-1,4.242100906E-1
4.779152730E-1,-2.949098647E-1,1.431116760E-1,2.257825136E-1,3.980333196E-1
4.799150060E-1,-2.918555439E-1,9.668592364E-2,2.227281928E-1,3.796520436E-1
4.819147390E-1,-2.875794768E-1,5.331448838E-2,2.172304094E-1,3.643260091E-1
4.839144720E-1,-2.857468724E-1,3.132333606E-2,2.166195363E-1,3.599395088E-1
4.859142050E-1,-2.771947682E-1,-1.632415131E-2,2.123434693E-1,3.495613914E-1
4.879139380E-1,-2.778056264E-1,-3.831529990E-2,2.117326260E-1,3.513897169E-1
4.899136710E-1,-2.704752386E-1,-8.413019776E-2,2.086782902E-1,3.518257718E-1
4.919134710E-1,-2.661992013E-1,-1.256690323E-1,2.056239694E-1,3.590765062E-1
4.939132040E-1,-2.655883133E-1,-1.421623975E-1,2.019587755E-1,3.626770553E-1
4.959129370E-1,-2.643665969E-1,-1.769817024E-1,1.976827085E-1,3.745539665E-1
4.979126700E-1,-2.643665969E-1,-1.971402615E-1,1.921849251E-1,3.816923181E-1
4.999124030E-1,-2.655883133E-1,-2.075249851E-1,1.903523207E-1,3.870888497E-1
5.019121360E-1,-2.668100595E-1,-2.172988057E-1,1.836328059E-1,3.900351090E-1
5.039119020E-1,-2.668100595E-1,-2.191314101E-1,1.805784851E-1,3.896341516E-1
5.059116350E-1,-2.686426342E-1,-2.172988057E-1,1.781350225E-1,3.887412020E-1
5.079114350E-1,-2.735295594E-1,-2.093575746E-1,1.750807017E-1,3.863965140E-1
5.099111680E-1,-2.735295594E-1,-1.989728510E-1,1.701937765E-1,3.786483023E-1
5.119109010E-1,-2.765838802E-1,-1.910316199E-1,1.683611721E-1,3.759484098E-1
5.139106340E-1,-2.796382010E-1,-1.714839190E-1,1.677503139E-1,3.684351038E-1
5.159103670E-1,-2.747513056E-1,-1.458275914E-1,1.671394557E-1,3.531140948E-1
5.179101000E-1,-2.778056264E-1,-1.354428679E-1,1.689720452E-1,3.522389651E-1
5.199098330E-1,-2.790273726E-1,-1.073430702E-1,1.701937765E-1,3.440126901E-1
5.219095660E-1,-2.759730220E-1,-6.763683259E-2,1.738589704E-1,3.331107797E-1
5.239095990E-1,-2.759730220E-1,-6.763683259E-2,1.738589704E-1,3.331107797E-1
5.259091990E-1,-2.753621936E-1,-4.320222139E-2,1.775241494E-1,3.304626956E-1
5.279090990E-1,-2.710861266E-1,-2.365453541E-2,1.793567538E-1,3.259080702E-1
5.299088320E-1,-2.716969848E-1,-1.449155621E-2,1.763024330E-1,3.242095073E-1
5.319085650E-1,-2.668100595E-1,6.888727192E-3,1.744698286E-1,3.188648358E-1
5.339082980E-1,-2.607014179E-1,3.743198887E-2,1.708046347E-1,3.139117811E-1
5.359080310E-1,-2.564253509E-1,5.270362273E-2,1.677503139E-1,3.109208906E-1
5.379078310E-1,-2.539818883E-1,8.752293885E-2,1.640851349E-1,3.147872232E-1
5.399076310E-1,-2.472623736E-1,1.223422587E-1,1.579764783E-1,3.179038807E-1
5.419073640E-1,-2.405428439E-1,1.565507054E-1,1.506460905E-1,3.241345827E-1
5.439070970E-1,-2.350450605E-1,1.736549437E-1,1.475917697E-1,3.273920439E-1
5.459068300E-1,-2.264929563E-1,2.023656070E-1,1.390396357E-1,3.340402946E-1
5.479065630E-1,-2.203842998E-1,2.176372409E-1,1.378179193E-1,3.390117801E-1
5.499062960E-1,-2.099995911E-1,2.481804937E-1,1.292658150E-1,3.498614535E-1
5.519060290E-1,-1.953388155E-1,2.726151049E-1,1.213245541E-1,3.566453360E-1
5.539058290E-1,-1.898410320E-1,2.811672390E-1,1.176593602E-1,3.590798779E-1
5.559055620E-1,-1.751802713E-1,2.952171266E-1,1.115507111E-1,3.609499140E-1
5.579052950E-1,-1.599086523E-1,3.049909770E-1,1.048311889E-1,3.599720147E-1
5.599050280E-1,-1.519673914E-1,3.049909770E-1,9.994427860E-2,3.551090578E-1
5.619047610E-1,-1.232567206E-1,3.043800890E-1,9.200303257E-2,3.410337458E-1
5.639044940E-1,-1.140937433E-1,2.976605892E-1,8.955956250E-2,3.311195009E-1
5.659042270E-1,-1.049307659E-1,2.958280146E-1,8.650524169E-2,3.255884468E-1
5.679039600E-1,-8.477221429E-2,2.787237465E-1,8.100745082E-2,3.023829729E-1
5.699038600E-1,-6.217020005E-2,2.634521127E-1,7.367707044E-2,2.805360229E-1
5.719035930E-1,-5.117462575E-2,2.603977919E-1,7.306619734E-2,2.752535586E-1
5.739033260E-1,-2.490741946E-2,2.500130832E-1,6.817927957E-2,2.603369653E-1
5.759030590E-1,-4.728097119E-4,2.402392626E-1,6.756841391E-2,2.495608491E-1
5.779027920E-1,1.540968660E-2,2.359631956E-1,6.512495130E-2,2.452699480E-1
5.799025250E-1,3.984429687E-2,2.261893451E-1,6.390322745E-2,2.383963303E-1
5.819022580E-1,8.260486275E-2,2.109177262E-1,6.512495130E-2,2.356928294E-1
5.839017910E-1,8.260486275E-2,2.109177262E-1,6.512495130E-2,2.356928294E-1
5.859015910E-1,1.113155261E-1,1.999221444E-1,6.451409310E-2,2.377437242E-1
5.879013240E-1,1.394153237E-1,1.925917715E-1,7.062274218E-2,2.480237784E-1
5.899010570E-1,1.516326368E-1,1.913700253E-1,6.940101087E-2,2.538334955E-1
5.919007900E-1,1.785107106E-1,1.840396374E-1,7.001187652E-2,2.657787140E-1
5.939005230E-1,2.059996426E-1,1.791527271E-1,7.367707044E-2,2.827717509E-1
5.959002560E-1,2.145517617E-1,1.760984063E-1,7.245533913E-2,2.868673619E-1
5.978999890E-1,2.420406938E-1,1.706006229E-1,7.062274218E-2,3.044270712E-1
5.998997220E-1,2.640318274E-1,1.608267725E-1,6.634669006E-2,3.161960467E-1
6.018994880E-1,2.866338491E-1,1.602158993E-1,6.023803353E-2,3.338513420E-1
6.038992210E-1,2.976294160E-1,1.571615785E-1,5.779457092E-2,3.415014545E-1
6.058989540E-1,3.153445125E-1,1.553289741E-1,4.863159359E-2,3.548722075E-1
6.078986870E-1,3.226749003E-1,1.547181159E-1,4.191207513E-2,3.602962791E-1
6.098984200E-1,3.391682804E-1,1.559398472E-1,3.091650084E-2,3.745773463E-1
6.118981530E-1,3.495529890E-1,1.516637951E-1,1.869919524E-2,3.814955554E-1
6.138978860E-1,3.556616306E-1,1.534963846E-1,1.259054337E-2,3.875756150E-1
6.158976860E-1,3.648246229E-1,1.504420638E-1,-8.484918508E-4,3.946270897E-1
6.178974860E-1,3.684898019E-1,1.418899596E-1,-1.306579728E-2,3.950800043E-1
6.198972190E-1,3.691006899E-1,1.394464821E-1,-1.673098840E-2,3.949184303E-1
6.218969520E-1,3.666571975E-1,1.229531243E-1,-2.833742648E-2,3.877602107E-1
6.238966850E-1,3.654354811E-1,1.186770722E-1,-3.444607928E-2,3.857640090E-1
6.258964850E-1,3.642137349E-1,1.125684157E-1,-3.383521736E-2,3.827115295E-1
6.278962180E-1,3.605485559E-1,9.729678184E-2,-3.566781059E-2,3.751454619E-1
6.298958510E-1,3.489421010E-1,8.630120754E-2,-3.627867624E-2,3.612819268E-1
6.318956510E-1,3.458877802E-1,8.202515543E-2,-3.811126947E-2,3.575177638E-1
6.338954510E-1,3.348922133E-1,7.102958113E-2,-3.750040755E-2,3.443897160E-1
6.358951840E-1,3.226749003E-1,5.453621596E-2,-3.505694494E-2,3.291235019E-1
6.378949170E-1,3.153445125E-1,5.026016012E-2,-3.444607928E-2,3.211771748E-1
6.398946500E-1,3.000728786E-1,3.865372017E-2,-3.261348233E-2,3.043049158E-1
6.418943830E-1,2.744165659E-1,3.010160662E-2,-3.078088909E-2,2.777733275E-1
6.438940830E-1,2.744165659E-1,3.010160662E-2,-3.078088909E-2,2.777733275E-1
6.458938160E-1,2.554797232E-1,2.704728208E-2,-2.833742648E-2,2.584655764E-1
6.478936160E-1,2.383754998E-1,2.093862742E-2,-2.772656269E-2,2.408943074E-1
6.498933490E-1,2.286016494E-1,2.521468513E-2,-2.711569704E-2,2.315809912E-1
6.518930820E-1,2.108865678E-1,2.216035873E-2,-2.650483139E-2,2.136977587E-1
6.538928150E-1,1.925606132E-1,2.460381947E-2,-2.589396760E-2,1.958454371E-1
6.558925480E-1,1.809541583E-1,2.765814587E-2,-2.650483139E-2,1.849645548E-1
6.578922810E-1,1.620173454E-1,3.315593302E-2,-2.589396760E-2,1.673900644E-1
6.598920140E-1,1.430805176E-1,3.376679868E-2,-2.528310195E-2,1.491692544E-1
6.618917470E-1,1.259762943E-1,3.437766433E-2,-2.528310195E-2,1.330078410E-1
6.638915470E-1,1.143698543E-1,3.559939563E-2,-2.589396760E-2,1.225490845E-1
6.658912800E-1,9.848735482E-2,3.193420172E-2,-2.467223629E-2,1.064343532E-1
6.678910130E-1,8.688092232E-2,3.132333606E-2,-2.222877555E-2,9.499244447E-2
6.698907460E-1,6.977669895E-2,2.765814587E-2,-2.100704610E-2,7.794265030E-2
6.718904790E-1,5.267246813E-2,1.421911083E-2,-2.039617859E-2,5.824582485E-2
6.738902120E-1,4.412035272E-2,1.055391878E-2,-2.039617859E-2,4.973926845E-2
6.758899450E-1,2.823785506E-2,-1.052520820E-3,-1.673098840E-2,3.283915698E-2
6.778896780E-1,1.418795623E-2,-1.693501696E-2,-1.489839237E-2,2.664685716E-2
6.798894780E-1,6.857573055E-3,-2.426539920E-2,-1.489839237E-2,2.928818878E-2
6.818892110E-1,-1.452271082E-2,-3.648270294E-2,-1.550925709E-2,4.221887965E-2
6.838893770E-1,-1.818790287E-2,-3.953703493E-2,-1.612012275E-2,4.640943114E-2
6.858890430E-1,-2.368569002E-2,-3.831529990E-2,-1.306579728E-2,4.690191016E-2
6.878887760E-1,-3.223780170E-2,-4.136962444E-2,-1.184406690E-2,5.376805376E-2
6.898885090E-1,-4.078991711E-2,-4.198049009E-2,-1.184406690E-2,5.971985270E-2
6.918882420E-1,-4.445510730E-2,-4.136962444E-2,-1.184406690E-2,6.187070641E-2
6.938879750E-1,-4.812030122E-2,-4.686741158E-2,-1.184406690E-2,6.820850078E-2
6.958877750E-1,-4.934202880E-2,-4.381308705E-2,-1.245493162E-2,6.715167700E-2
6.978875080E-1,-5.300722271E-2,-4.381308705E-2,-1.367666200E-2,7.011706882E-2
6.998872410E-1,-5.422895029E-2,-4.075876251E-2,-1.428752672E-2,6.932668455E-2
7.018869740E-1,-5.361808836E-2,-3.709357232E-2,-1.856358349E-2,6.778966838E-2
7.038857740E-1,-5.361808836E-2,-3.709357232E-2,-1.856358349E-2,6.778966838E-2
7.058855070E-1,-5.056376010E-2,-3.648270294E-2,-1.612012275E-2,6.440139600E-2
7.078852400E-1,-4.445510730E-2,-3.342837840E-2,-1.673098840E-2,5.808303557E-2
7.098850400E-1,-3.956818208E-2,-3.281751275E-2,-1.673098840E-2,5.406067100E-2
7.118848400E-1,-3.468126431E-2,-2.854145691E-2,-1.489839237E-2,4.732195000E-2
7.138845730E-1,-2.674001455E-2,-2.548713051E-2,-1.184406690E-2,3.879309372E-2
7.158843060E-1,-2.368569002E-2,-2.548713051E-2,-1.123320125E-2,3.656214632E-2
7.178840390E-1,-1.146838348E-2,-2.243280411E-2,-8.789739572E-3,2.668359124E-2
7.198837720E-1,1.380555477E-4,-1.876761205E-2,-6.957144476E-3,2.001609804E-2
7.218835380E-1,1.052276511E-2,-1.143722981E-2,-2.070222283E-3,1.567879560E-2
7.238837380E-1,1.724228263E-2,-7.772038691E-3,-3.902818076E-3,1.931147029E-2
7.258835380E-1,2.579439618E-2,7.800749154E-4,3.732386394E-4,2.580888797E-2
7.278832710E-1,3.556824103E-2,3.834401025E-3,1.594969188E-3,3.580986356E-2
7.298830040E-1,4.595294967E-2,1.421911083E-2,3.427564865E-3,4.822452589E-2
7.318827370E-1,5.694852397E-2,2.338209003E-2,3.427564865E-3,6.165715463E-2
7.338824700E-1,6.122457981E-2,2.582555078E-2,1.594969188E-3,6.646767765E-2
7.358822030E-1,7.283101976E-2,3.071247041E-2,3.427564865E-3,7.911612654E-2
7.378819360E-1,8.138313144E-2,3.498852998E-2,1.594969188E-3,8.859997314E-2
7.398816690E-1,8.199399710E-2,3.315593302E-2,3.427564865E-3,8.851033643E-2
7.418814690E-1,8.871351928E-2,4.048631713E-2,2.816699678E-3,9.755595407E-2
7.438807690E-1,9.176784754E-2,3.926458210E-2,4.038430285E-3,9.989671750E-2
7.458805020E-1,9.360044450E-2,4.170804471E-2,4.038430285E-3,1.025520020E-1
7.478802350E-1,9.482216835E-2,4.292977601E-2,7.092756219E-3,1.043288861E-1
7.498799680E-1,9.909822792E-2,4.292977601E-2,7.703621406E-3,1.082717425E-1
7.518797010E-1,9.787649661E-2,4.170804471E-2,8.925352246E-3,1.067662470E-1
7.538794340E-1,1.009308249E-1,3.682112321E-2,7.703621406E-3,1.077133804E-1
7.558791670E-1,1.033742800E-1,3.498852998E-2,8.314486593E-3,1.094512206E-1
7.578789670E-1,1.058177426E-1,3.682112321E-2,8.314486593E-3,1.123491008E-1
7.598787330E-1,1.045960188E-1,2.949074097E-2,8.314486593E-3,1.089915668E-1
7.618784990E-1,1.076503396E-1,2.643641457E-2,8.925352246E-3,1.112076506E-1
7.638795650E-1,1.076503396E-1,2.643641457E-2,8.925352246E-3,1.112076506E-1
7.658793310E-1,1.107046679E-1,2.521468513E-2,1.014708262E-2,1.139923994E-1
7.678790970E-1,1.082612053E-1,2.032776177E-2,1.136881392E-2,1.107382337E-1
7.698788630E-1,1.076503396E-1,1.910603233E-2,1.320140809E-2,1.101268054E-1
7.718786290E-1,1.076503396E-1,1.299738046E-2,1.625573449E-2,1.096438617E-1
7.738784620E-1,1.039851457E-1,8.721322753E-3,1.625573449E-2,1.056088107E-1
7.758782280E-1,1.045960188E-1,6.277862005E-3,1.381227374E-2,1.056906694E-1
7.778779940E-1,1.021525487E-1,-4.416555748E-4,1.564487070E-2,1.033445705E-1
7.798777600E-1,9.787649661E-2,-1.052520820E-3,1.320140809E-2,9.876838343E-2
7.818775260E-1,9.298957139E-2,-2.274251310E-3,1.136881392E-2,9.370956481E-2
7.838768260E-1,8.871351928E-2,-2.885116497E-3,1.259054337E-2,8.964894970E-2
7.858765920E-1,8.627005666E-2,-1.052520820E-3,1.197967771E-2,8.710420860E-2
7.878764250E-1,7.893967628E-2,1.692096703E-4,1.014708262E-2,7.958934859E-2
7.898762580E-1,7.283101976E-2,-4.416555748E-4,7.703621406E-3,7.323863927E-2
7.918760240E-1,6.977669895E-2,7.800749154E-4,5.260160659E-3,6.997903631E-2
7.938757900E-1,5.939198285E-2,2.001805231E-3,7.092756219E-3,5.984748986E-2
7.958755560E-1,5.206159875E-2,3.223536070E-3,6.481891032E-3,5.256249766E-2
7.978753220E-1,4.534208402E-2,3.834401025E-3,5.871025845E-3,4.588110896E-2
7.998750880E-1,3.617910296E-2,7.499592844E-3,5.871025845E-3,3.741176724E-2
8.018748540E-1,2.090747468E-2,1.544084027E-2,6.481891032E-3,2.678725363E-2
8.038746870E-1,2.090747468E-2,1.544084027E-2,6.481891032E-3,2.678725363E-2
8.058744530E-1,1.540968660E-2,1.971689798E-2,7.703621406E-3,2.618320626E-2
8.078742190E-1,5.635842681E-3,2.277122252E-2,8.314486593E-3,2.488818967E-2
8.098739850E-1,1.359786023E-3,2.277122252E-2,8.925352246E-3,2.449570382E-2
8.118737510E-1,-6.581462454E-3,2.826900966E-2,8.314486593E-3,3.019243685E-2
8.138735170E-1,-1.452271082E-2,2.582555078E-2,1.197967771E-2,3.195905006E-2
8.158732830E-1,-1.391184516E-2,2.521468513E-2,1.136881392E-2,3.096077699E-2
8.178730490E-1,-1.818790287E-2,2.399295382E-2,1.136881392E-2,3.218247309E-2
8.198728490E-1,-2.246395871E-2,2.582555078E-2,1.197967771E-2,3.626432396E-2
8.218725820E-1,-2.429655381E-2,2.765814587E-2,1.259054337E-2,3.890780567E-2
8.238715480E-1,-2.429655381E-2,2.765814587E-2,1.259054337E-2,3.890780567E-2
8.258712810E-1,-2.796174586E-2,2.949074097E-2,1.625573449E-2,4.376998901E-2
8.278710140E-1,-2.735088021E-2,3.071247041E-2,1.747746393E-2,4.468543647E-2
8.298707470E-1,-2.735088021E-2,2.949074097E-2,1.992092654E-2,4.488449359E-2
8.318704800E-1,-2.735088021E-2,2.765814587E-2,1.992092654E-2,4.370225390E-2
8.338702130E-1,-2.796174586E-2,2.826900966E-2,1.992092654E-2,4.447290696E-2
8.358700130E-1,-2.490741946E-2,2.643641457E-2,2.053179219E-2,4.172311170E-2
8.378697460E-1,-2.368569002E-2,2.154949307E-2,2.419698425E-2,4.013585193E-2
8.398694790E-1,-2.246395871E-2,2.032776177E-2,2.175352350E-2,3.729695864E-2
8.418692120E-1,-2.185309492E-2,1.299738046E-2,2.419698425E-2,3.509962540E-2
8.438688120E-1,-2.002049796E-2,8.721322753E-3,2.541871369E-2,3.351108495E-2
8.458685450E-1,-1.696617156E-2,3.834401025E-3,2.725131065E-2,3.232936035E-2
8.478682780E-1,-1.818790287E-2,-4.717712291E-3,2.541871369E-2,3.160961287E-2
8.498680110E-1,-1.330097951E-2,-8.993769065E-3,2.480784804E-2,2.955052050E-2
8.518678110E-1,-1.391184516E-2,-1.571328565E-2,2.847304009E-2,3.537175135E-2
8.538675440E-1,-1.085751876E-2,-2.426539920E-2,2.664044313E-2,3.763520323E-2
8.558672770E-1,-9.024923667E-3,-2.915232256E-2,2.480784804E-2,3.932857081E-2
8.578670100E-1,-1.085751876E-2,-3.159578145E-2,2.297525294E-2,4.054677998E-2
8.598667430E-1,-6.581462454E-3,-3.709357232E-2,2.419698425E-2,4.477435429E-2
8.618664760E-1,-3.527135821E-3,-3.587184101E-2,2.053179219E-2,4.148233546E-2
8.638662090E-1,-3.527135821E-3,-3.587184101E-2,2.053179219E-2,4.148233546E-2
8.658660090E-1,-2.916270634E-3,-3.709357232E-2,2.053179219E-2,4.249696733E-2
8.678662750E-1,-4.748866428E-3,-3.281751275E-2,1.931006089E-2,3.837211653E-2
8.698660080E-1,-1.083674957E-3,-3.342837840E-2,1.931006089E-2,3.862006325E-2
8.718657410E-1,-4.728097119E-4,-2.182194032E-2,1.503400411E-2,2.650362066E-2
8.738654740E-1,1.359786023E-3,-2.121107467E-2,1.197967771E-2,2.439818404E-2
8.758652070E-1,1.380555477E-4,-1.876761205E-2,1.320140809E-2,2.294601266E-2
8.778649400E-1,3.803246887E-3,-1.510242186E-2,1.259054337E-2,2.002672253E-2
8.798646730E-1,-4.728097119E-4,-1.326982584E-2,1.136881392E-2,1.748032485E-2
8.818644730E-1,7.489207783E-4,-1.143722981E-2,1.197967771E-2,1.657961961E-2
8.838646730E-1,7.489207783E-4,-1.143722981E-2,1.197967771E-2,1.657961961E-2
8.858639730E-1,1.359786023E-3,-1.388069056E-2,8.314486593E-3,1.623740360E-2
8.878637060E-1,-1.694540144E-3,-1.204809546E-2,1.197967771E-2,1.707456438E-2
8.898634390E-1,-1.083674957E-3,-1.449155621E-2,9.536217898E-3,1.738157083E-2
8.918631720E-1,-4.728097119E-4,-1.693501696E-2,8.925352246E-3,1.914889713E-2
8.938629050E-1,-4.728097119E-4,-2.304366790E-2,7.703621406E-3,2.430185100E-2
8.958626380E-1,-5.359731615E-3,-2.915232256E-2,1.136881392E-2,3.174641025E-2
8.978624380E-1,-9.635788389E-3,-3.770443797E-2,1.197967771E-2,4.071837102E-2
8.998621710E-1,-9.635788389E-3,-4.136962444E-2,1.381227374E-2,4.466624172E-2
9.018619040E-1,-1.391184516E-2,-4.870000854E-2,1.503400411E-2,5.283229644E-2
9.038617700E-1,-1.391184516E-2,-4.931087419E-2,1.442313939E-2,5.322714251E-2
9.058615030E-1,-1.818790287E-2,-5.236519873E-2,1.564487070E-2,5.759926934E-2
9.078612360E-1,-1.879876666E-2,-5.114347115E-2,1.503400411E-2,5.652494625E-2
9.098609690E-1,-2.063136362E-2,-4.992173985E-2,1.625573449E-2,5.640994751E-2
9.118607020E-1,-2.246395871E-2,-4.808914661E-2,1.625573449E-2,5.551075902E-2
9.138605020E-1,-2.796174586E-2,-4.686741158E-2,1.808833145E-2,5.749435828E-2
9.158602350E-1,-2.918347530E-2,-4.381308705E-2,2.297525294E-2,5.743800201E-2
9.178599680E-1,-2.979434282E-2,-3.892616555E-2,2.175352350E-2,5.362988918E-2
9.198597010E-1,-3.162693605E-2,-3.648270294E-2,2.541871369E-2,5.456520598E-2
9.218594340E-1,-3.834645450E-2,-3.403924406E-2,2.725131065E-2,5.806681187E-2
9.238591670E-1,-3.773558885E-2,-3.281751275E-2,3.091650084E-2,5.879450512E-2
9.258589000E-1,-4.262251407E-2,-2.243280411E-2,3.458169103E-2,5.929420511E-2
9.278581660E-1,-4.323337600E-2,-1.815674827E-2,3.885775059E-2,6.089923718E-2
9.298579660E-1,-4.445510730E-2,-1.265896019E-2,4.069034755E-2,6.158092417E-2
9.318576990E-1,-4.812030122E-2,-8.993769065E-3,4.313380271E-2,6.524550718E-2
9.338574320E-1,-4.812030122E-2,-2.885116497E-3,4.496639967E-2,6.592317032E-2
9.358571650E-1,-4.934202880E-2,2.612670651E-3,4.496639967E-2,6.680897360E-2
9.378568980E-1,-5.422895029E-2,8.110457100E-3,4.802072793E-2,7.288723397E-2
9.398566310E-1,-5.178549141E-2,1.849516667E-2,4.924245924E-2,7.381482305E-2
9.418563640E-1,-5.239635333E-2,2.460381947E-2,4.863159359E-2,7.560263005E-2
9.438560970E-1,-5.239635333E-2,2.949074097E-2,4.802072793E-2,7.694850198E-2
9.458563300E-1,-4.934202880E-2,3.254506737E-2,4.985332489E-2,7.732510083E-2
9.478560630E-1,-4.873116314E-2,3.804285452E-2,4.985332489E-2,7.941875751E-2
9.498557960E-1,-4.873116314E-2,3.804285452E-2,4.924245924E-2,7.903673091E-2
9.518555290E-1,-4.384424165E-2,3.376679868E-2,4.924245924E-2,7.407654157E-2
9.538552620E-1,-4.017905146E-2,3.132333606E-2,5.107505247E-2,7.213992337E-2
9.558549950E-1,-3.834645450E-2,2.704728208E-2,5.168592185E-2,6.981003193E-2
9.578547280E-1,-3.590299189E-2,1.910603233E-2,5.229678378E-2,6.624967088E-2
9.598545280E-1,-3.284866735E-2,1.421911083E-2,5.290764943E-2,6.387830170E-2
9.618543280E-1,-3.162693605E-2,7.800749154E-4,5.107505247E-2,6.007938569E-2
9.638540610E-1,-2.796174586E-2,-4.106846638E-3,5.046418682E-2,5.783908343E-2
9.658537940E-1,-2.857261151E-2,-8.382904343E-3,4.985332489E-2,5.806910725E-2
9.678535270E-1,-2.429655381E-2,-1.754588261E-2,4.679899663E-2,5.557271461E-2
9.698532600E-1,-2.429655381E-2,-2.365453541E-2,4.740986228E-2,5.828854616E-2
9.718529930E-1,-2.246395871E-2,-2.548713051E-2,4.924245924E-2,5.982510388E-2
9.738527260E-1,-2.002049796E-2,-3.098491952E-2,4.863159359E-2,6.104029383E-2
9.758525260E-1,-2.002049796E-2,-3.526097536E-2,4.618813470E-2,6.146137412E-2
9.778522920E-1,-1.940963231E-2,-3.648270294E-2,4.679899663E-2,6.243290419E-2
9.798520580E-1,-2.002049796E-2,-3.770443797E-2,4.802072793E-2,6.425290104E-2
9.818518240E-1,-2.063136362E-2,-4.259135947E-2,5.046418682E-2,6.918317149E-2
9.838515900E-1,-2.124222741E-2,-4.259135947E-2,4.924245924E-2,6.848412895E-2
9.858513560E-1,-2.368569002E-2,-4.442395270E-2,5.046418682E-2,7.128207093E-2
9.878511220E-1,-2.674001455E-2,-4.259135947E-2,5.351851508E-2,7.343897968E-2
9.898504550E-1,-2.918347530E-2,-4.747828096E-2,5.290764943E-2,7.684452981E-2
9.918502880E-1,-3.040520661E-2,-4.992173985E-2,5.229678378E-2,7.843220188E-2
9.938500880E-1,-3.468126431E-2,-4.992173985E-2,5.168592185E-2,7.978975323E-2
9.958498880E-1,-3.529212996E-2,-5.053260550E-2,5.412938073E-2,8.203089975E-2
9.978496880E-1,-3.895732015E-2,-4.870000854E-2,5.168592185E-2,8.099875396E-2
9.998494880E-1,-4.078991711E-2,-5.053260550E-2,4.924245924E-2,8.149957882E-2
1.001849288E0,-4.201164469E-2,-4.808914661E-2,4.924245924E-2,8.063723770E-2
1.003848154E0,-4.201164469E-2,-4.808914661E-2,4.924245924E-2,8.063723770E-2
1.005847954E0,-4.506597295E-2,-4.381308705E-2,4.740986228E-2,7.872879750E-2
1.007847820E0,-4.506597295E-2,-4.014789686E-2,4.740986228E-2,7.674953148E-2
1.009847686E0,-4.567683861E-2,-4.075876251E-2,4.496639967E-2,7.595806347E-2
1.011847552E0,-4.628770426E-2,-4.014789686E-2,4.191207513E-2,7.423629321E-2
1.013847418E0,-4.323337600E-2,-4.136962444E-2,4.130120948E-2,7.270736229E-2
1.015847284E0,-4.445510730E-2,-4.381308705E-2,3.824688494E-2,7.320291913E-2
1.017847150E0,-4.323337600E-2,-4.870000854E-2,3.824688494E-2,7.552244593E-2
1.019847016E0,-4.262251407E-2,-4.747828096E-2,3.946861252E-2,7.502424437E-2
1.021846882E0,-3.712472692E-2,-4.931087419E-2,3.580342233E-2,7.135609794E-2
1.023846382E0,-3.773558885E-2,-5.236519873E-2,3.274909407E-2,7.237811732E-2
1.025846248E0,-3.345953301E-2,-4.931087419E-2,3.397082910E-2,6.859387649E-2
1.027846114E0,-3.284866735E-2,-5.114347115E-2,3.152736649E-2,6.847382293E-2
1.029845980E0,-2.674001455E-2,-4.625654966E-2,2.908390388E-2,6.083231238E-2
1.031845846E0,-2.490741946E-2,-4.381308705E-2,2.664044313E-2,5.700595891E-2
1.033845712E0,-2.063136362E-2,-4.686741158E-2,2.541871369E-2,5.716920883E-2
1.035845578E0,-1.391184516E-2,-4.075876251E-2,2.175352350E-2,4.824968333E-2
1.037845478E0,-1.269011479E-2,-4.625654966E-2,2.114265598E-2,5.241869229E-2
1.039845378E0,-4.748866428E-3,-5.114347115E-2,1.747746393E-2,5.425558146E-2
1.041845211E0,-1.694540144E-3,-5.053260550E-2,1.869919524E-2,5.390802897E-2
1.043845044E0,3.192381933E-3,-5.236519873E-2,1.686660014E-2,5.510705527E-2
1.045844877E0,5.024977494E-3,-5.419779569E-2,2.053179219E-2,5.817392841E-2
1.047844710E0,1.296622586E-2,-4.686741158E-2,2.236438729E-2,5.352422910E-2
1.049844976E0,1.540968660E-2,-4.686741158E-2,2.236438729E-2,5.416805819E-2
1.051844809E0,1.907487959E-2,-4.075876251E-2,2.541871369E-2,5.168402808E-2
1.053844675E0,2.457266673E-2,-3.342837840E-2,2.847304009E-2,5.031884781E-2
1.055844475E0,2.640526183E-2,-3.037405200E-2,2.786217444E-2,4.895019562E-2
1.057844275E0,3.129218146E-2,-2.487626486E-2,2.786217444E-2,4.872709655E-2
1.059844075E0,3.678996861E-2,-1.632415131E-2,2.725131065E-2,4.860672421E-2
1.061843875E0,3.923343122E-2,-1.143722981E-2,2.358611859E-2,4.718450319E-2
1.063844608E0,3.984429687E-2,-4.717712291E-3,2.541871369E-2,4.749669260E-2
1.065844408E0,3.801169991E-2,7.800749154E-4,2.419698425E-2,4.506652742E-2
1.067844208E0,3.801169991E-2,1.692096703E-4,2.480784804E-2,4.539104853E-2
1.069844008E0,4.045516253E-2,5.056131631E-3,2.480784804E-2,4.772435402E-2
1.071843741E0,3.984429687E-2,7.499592844E-3,2.541871369E-2,4.785313879E-2
1.073843474E0,3.984429687E-2,9.332188405E-3,2.541871369E-2,4.817435769E-2
1.075843207E0,3.984429687E-2,1.238651481E-2,2.541871369E-2,4.885800598E-2
1.077842940E0,4.045516253E-2,1.421911083E-2,2.297525294E-2,4.864838677E-2
1.079842673E0,3.984429687E-2,8.110457100E-3,2.602957934E-2,4.827925547E-2
1.081842406E0,3.801169991E-2,6.888727192E-3,2.419698425E-2,4.558330768E-2
1.083842939E0,3.617910296E-2,2.001805231E-3,2.419698425E-2,4.357096237E-2
1.085842739E0,3.434650972E-2,4.445266444E-3,2.480784804E-2,4.260131979E-2
1.087842472E0,3.190304711E-2,-4.717712291E-3,2.358611859E-2,3.995455187E-2
1.089842205E0,3.068131767E-2,-1.265896019E-2,2.480784804E-2,4.143696238E-2
1.091841938E0,2.945958637E-2,-1.632415131E-2,2.358611859E-2,4.111751616E-2
1.093841304E0,2.579439618E-2,-2.365453541E-2,1.992092654E-2,4.027072428E-2
1.095841037E0,2.151833847E-2,-3.220665082E-2,1.992092654E-2,4.355629188E-2
1.097840770E0,1.968574338E-2,-3.465010971E-2,1.992092654E-2,4.455336025E-2
1.099840503E0,1.602055132E-2,-3.770443797E-2,1.686660014E-2,4.430310269E-2
1.101840303E0,9.301033802E-3,-4.931087419E-2,1.503400411E-2,5.238408941E-2
1.103840036E0,9.301033802E-3,-4.931087419E-2,1.503400411E-2,5.238408941E-2
1.105839769E0,3.192381933E-3,-5.480866134E-2,1.320140809E-2,5.646643105E-2
1.107839502E0,1.359786023E-3,-5.480866134E-2,1.136881392E-2,5.599185928E-2
1.109839235E0,-2.305405447E-3,-5.664125830E-2,8.925352246E-3,5.738648751E-2
1.111838968E0,-6.581462454E-3,-5.908472091E-2,7.092756219E-3,5.987175531E-2
1.113838701E0,-8.414058015E-3,-6.030644849E-2,6.481891032E-3,6.123462267E-2
1.115838501E0,-1.146838348E-2,-6.274991482E-2,4.649295472E-3,6.395851451E-2
1.117838301E0,-1.146838348E-2,-6.580423564E-2,2.816699678E-3,6.685547879E-2
1.119838034E0,-1.146838348E-2,-6.702596694E-2,-2.376265766E-4,6.800044508E-2
1.121837767E0,-1.513357554E-2,-6.824769825E-2,-2.376265766E-4,6.990586450E-2
1.123837400E0,-1.513357554E-2,-6.946942955E-2,-2.376265766E-4,7.109910841E-2
1.125837133E0,-1.635530591E-2,-7.069116086E-2,-3.291952889E-3,7.263314126E-2
1.127836866E0,-1.574444026E-2,-6.885856390E-2,-2.681087470E-3,7.068647290E-2
1.129836599E0,-1.452271082E-2,-7.252375782E-2,-1.459356979E-3,7.397793117E-2
1.131836399E0,-1.452271082E-2,-6.885856390E-2,-3.902818076E-3,7.048150779E-2
1.133836199E0,-1.330097951E-2,-7.374548167E-2,-4.513683263E-3,7.507120260E-2
1.135835932E0,-1.269011479E-2,-6.885856390E-2,-3.902818076E-3,7.012683384E-2
1.137835665E0,-1.146838348E-2,-6.885856390E-2,-5.124548450E-3,6.999490438E-2
1.139835398E0,-1.085751876E-2,-6.946942955E-2,-6.957144476E-3,7.065613360E-2
1.141835131E0,-9.635788389E-3,-6.885856390E-2,-7.568009198E-3,6.994015301E-2
1.143834497E0,-5.970596801E-3,-6.580423564E-2,-7.568009198E-3,6.650654266E-2
1.145834230E0,-5.970596801E-3,-6.458250433E-2,-8.178874850E-3,6.537156787E-2
1.147834030E0,-1.694540144E-3,-5.847385526E-2,-8.178874850E-3,5.906739548E-2
1.149833763E0,1.359786023E-3,-5.786298588E-2,-6.346279290E-3,5.822584833E-2
1.151833496E0,7.489207783E-4,-5.175433680E-2,-7.568009198E-3,5.231010441E-2
1.153833596E0,5.024977494E-3,-5.053260550E-2,-7.568009198E-3,5.134266628E-2
1.155833329E0,6.857573055E-3,-4.870000854E-2,-6.957144476E-3,4.967010166E-2
1.157833062E0,1.052276511E-2,-4.625654966E-2,-6.346279290E-3,4.786096773E-2
1.159832795E0,1.602055132E-2,-4.198049009E-2,-6.957144476E-3,4.546890665E-2
1.161832528E0,1.968574338E-2,-3.526097536E-2,-6.346279290E-3,4.087958092E-2
1.163831894E0,2.090747468E-2,-3.648270294E-2,-7.568009198E-3,4.272452311E-2
1.165831627E0,2.762699127E-2,-3.098491952E-2,-8.789739572E-3,4.243318755E-2
1.167831360E0,2.884872258E-2,-2.609799616E-2,-6.957144476E-3,3.951905942E-2
1.169831093E0,3.678996861E-2,-2.182194032E-2,-6.957144476E-3,4.333705953E-2
1.171830826E0,4.167689011E-2,-1.021549944E-2,-8.178874850E-3,4.368310419E-2
1.173830559E0,4.350948706E-2,-4.717712291E-3,-8.178874850E-3,4.452219972E-2
1.175830292E0,4.961813986E-2,1.390940160E-3,-7.568009198E-3,5.021124656E-2
1.177830025E0,5.694852397E-2,1.116478443E-2,-8.789739572E-3,5.869451691E-2
1.179829825E0,5.878112093E-2,1.482997555E-2,-6.346279290E-3,6.095427477E-2
1.181829558E0,6.916582584E-2,2.826900966E-2,-9.400605224E-3,7.530882917E-2
1.183829658E0,7.038755715E-2,3.254506737E-2,-8.789739572E-3,7.804389235E-2
1.185829391E0,7.466360927E-2,3.498852998E-2,-7.568009198E-3,8.280173031E-2
1.187829124E0,8.077227324E-2,4.476236925E-2,-6.957144476E-3,9.260794612E-2
1.189828857E0,8.749178052E-2,5.453621596E-2,-7.568009198E-3,1.033744904E-1
1.191828590E0,8.749178052E-2,5.636881292E-2,-5.735413637E-3,1.042360288E-1
1.193828323E0,9.237870574E-2,6.614265591E-2,-6.346279290E-3,1.137934597E-1
1.195828123E0,9.970909357E-2,6.980784237E-2,-8.789739572E-3,1.220340023E-1
1.197828456E0,9.909822792E-2,7.408390939E-2,-6.957144476E-3,1.239245184E-1
1.199828189E0,1.045960188E-1,8.019255847E-2,-5.735413637E-3,1.319244805E-1
1.201827922E0,1.088720709E-1,8.507947624E-2,-5.735413637E-3,1.382915040E-1
1.203827655E0,1.088720709E-1,8.507947624E-2,-5.735413637E-3,1.382915040E-1
1.205827388E0,1.113155261E-1,8.935553581E-2,-5.124548450E-3,1.428349366E-1
1.207827121E0,1.113155261E-1,8.263601363E-2,-3.902818076E-3,1.386906236E-1
1.209826921E0,1.107046679E-1,8.324687928E-2,-3.902818076E-3,1.385669455E-1
1.211826721E0,1.107046679E-1,7.347303629E-2,-2.070222283E-3,1.328837701E-1
1.213826454E0,1.033742800E-1,6.614265591E-2,3.732386394E-4,1.227242112E-1
1.215826187E0,1.027634218E-1,6.369919330E-2,3.732386394E-4,1.209051173E-1
1.217825920E0,9.787649661E-2,5.759054050E-2,9.841038845E-4,1.135669292E-1
1.219825653E0,9.115697443E-2,5.453621596E-2,3.732386394E-4,1.062258544E-1
1.221825386E0,8.504832536E-2,4.903842881E-2,2.205834491E-3,9.819801858E-2
1.223825552E0,7.893967628E-2,4.781670123E-2,3.732386394E-4,9.229327557E-2
1.225825352E0,7.588534802E-2,4.964929447E-2,-8.484918508E-4,9.068824854E-2
1.227825085E0,6.977669895E-2,4.598410428E-2,-2.376265766E-4,8.356663227E-2
1.229824818E0,6.183544546E-2,4.659496620E-2,-2.070222283E-3,7.745320530E-2
1.231824551E0,5.389419571E-2,4.415150732E-2,-1.459356979E-3,6.968550532E-2
1.233824284E0,5.206159875E-2,4.231891409E-2,-3.291952889E-3,6.717244604E-2
1.235823584E0,4.289862514E-2,4.292977601E-2,-8.484918508E-4,6.069577947E-2
1.237823317E0,3.312477842E-2,4.048631713E-2,-2.070222283E-3,5.235149129E-2
1.239823050E0,2.823785506E-2,3.682112321E-2,-2.070222283E-3,4.644843801E-2
1.241822850E0,1.540968660E-2,3.559939563E-2,-8.484918508E-4,3.880071325E-2
1.243822750E0,1.052276511E-2,3.498852998E-2,-2.376265766E-4,3.653740935E-2
1.245822483E0,6.246707868E-3,3.437766433E-2,-2.070222283E-3,3.500187115E-2
1.247822216E0,-1.694540144E-3,3.315593302E-2,-1.459356979E-3,3.323126666E-2
1.249821949E0,-1.024665311E-2,2.949074097E-2,-2.070222283E-3,3.128871239E-2
1.251821682E0,-1.330097951E-2,2.521468513E-2,-1.459356979E-3,2.854515939E-2
1.253821415E0,-2.002049796E-2,2.154949307E-2,-2.681087470E-3,2.953623572E-2
1.255821148E0,-2.612915076E-2,1.788430288E-2,-2.681087470E-3,3.177686327E-2
1.257820348E0,-3.040520661E-2,1.605170593E-2,-4.513683263E-3,3.467718542E-2
1.259820081E0,-3.223780170E-2,1.116478443E-2,-4.513683263E-3,3.441368342E-2
1.261819814E0,-3.834645450E-2,6.277862005E-3,-6.346279290E-3,3.937178412E-2
1.263820080E0,-3.529212996E-2,2.001805231E-3,-5.735413637E-3,3.581112440E-2
1.265819813E0,-3.956818208E-2,-2.885116497E-3,-6.957144476E-3,4.027861454E-2
1.267819546E0,-4.078991711E-2,-5.328577477E-3,-8.178874850E-3,4.194168654E-2
1.269819112E0,-4.445510730E-2,-7.161173504E-3,-9.400605224E-3,4.599902553E-2
1.271818845E0,-4.445510730E-2,-8.993769065E-3,-8.178874850E-3,4.608729153E-2
1.273818645E0,-4.140077904E-2,-8.382904343E-3,-8.178874850E-3,4.302547599E-2
1.275818378E0,-4.201164469E-2,-9.604634717E-3,-7.568009198E-3,4.375502327E-2
1.277818111E0,-4.017905146E-2,-8.382904343E-3,-5.124548450E-3,4.136290921E-2
1.279817844E0,-3.468126431E-2,-3.495981684E-3,-5.124548450E-3,3.523170417E-2
1.281817577E0,-3.101607040E-2,-4.416555748E-4,-4.513683263E-3,3.134589318E-2
1.283817310E0,-2.735088021E-2,3.834401025E-3,-2.070222283E-3,2.769583181E-2
1.285816676E0,-2.185309492E-2,6.277862005E-3,-2.681087470E-3,2.289448709E-2
1.287816476E0,-2.002049796E-2,1.116478443E-2,-2.681087470E-3,2.307944930E-2
1.289816276E0,-1.391184516E-2,1.299738046E-2,-2.070222283E-3,1.915090481E-2
1.291816009E0,-5.970596801E-3,1.971689798E-2,9.841038845E-4,2.062456188E-2
1.293815742E0,-4.138000775E-3,1.849516667E-2,-2.376265766E-4,1.895391007E-2
1.295815908E0,1.359786023E-3,2.216035873E-2,1.594969188E-3,2.225925524E-2
1.297815641E0,6.246707868E-3,2.582555078E-2,3.427564865E-3,2.679045788E-2
1.299815374E0,8.690169081E-3,2.704728208E-2,2.205834491E-3,2.849456462E-2
1.301815107E0,1.785314828E-2,2.643641457E-2,4.649295472E-3,3.223716593E-2
1.303813640E0,2.090747468E-2,2.643641457E-2,7.703621406E-3,3.457386724E-2
1.305813440E0,2.029660717E-2,2.582555078E-2,5.260160659E-3,3.326530664E-2
1.307813173E0,2.518353052E-2,2.216035873E-2,6.481891032E-3,3.416586923E-2
1.309812906E0,2.945958637E-2,1.849516667E-2,1.014708262E-2,3.623398550E-2
1.311812639E0,3.068131767E-2,1.544084027E-2,9.536217898E-3,3.564691087E-2
1.313812372E0,3.495737538E-2,1.421911083E-2,1.075794827E-2,3.924200119E-2
1.315812105E0,3.801169991E-2,1.360824518E-2,1.320140809E-2,4.247765110E-2
1.317812005E0,3.678996861E-2,9.332188405E-3,1.625573449E-2,4.128971342E-2
1.319811805E0,4.045516253E-2,9.943053126E-3,1.747746393E-2,4.517683284E-2
1.321811505E0,4.412035272E-2,7.499592844E-3,1.931006089E-2,4.874143892E-2
1.323810705E0,4.473122209E-2,8.110457100E-3,1.869919524E-2,4.915609471E-2
1.325810438E0,4.534208402E-2,7.499592844E-3,1.992092654E-2,5.008983720E-2
1.327810171E0,4.656381533E-2,5.056131631E-3,2.053179219E-2,5.114008071E-2
1.329810071E0,4.473122209E-2,7.499592844E-3,2.114265598E-2,5.004136314E-2
1.331809471E0,4.717467725E-2,3.223536070E-3,2.297525294E-2,5.257093880E-2
1.333809204E0,4.534208402E-2,2.001805231E-3,2.175352350E-2,5.033018570E-2
1.335809004E0,4.289862514E-2,-1.663386123E-3,2.053179219E-2,4.758795418E-2
1.337808737E0,4.106602818E-2,-2.885116497E-3,2.053179219E-2,4.600322878E-2
1.339808470E0,3.740083799E-2,-2.274251310E-3,1.625573449E-2,4.084414040E-2
1.341808203E0,3.190304711E-2,-2.885116497E-3,1.625573449E-2,3.592182089E-2
1.343807936E0,3.007045202E-2,-2.274251310E-3,1.564487070E-2,3.397302287E-2
1.345808036E0,2.335093543E-2,-4.717712291E-3,1.686660014E-2,2.918912803E-2
1.347807769E0,2.212920412E-2,-5.939442664E-3,1.564487070E-2,2.774420000E-2
1.349807502E0,1.540968660E-2,-1.021549944E-2,1.625573449E-2,2.461836253E-2
1.351807302E0,7.468438707E-3,-1.510242186E-2,1.992092654E-2,2.609030542E-2
1.353807035E0,4.414112307E-3,-1.754588261E-2,1.747746393E-2,2.515559837E-2
1.355806768E0,-4.138000775E-3,-2.182194032E-2,1.992092654E-2,2.983560698E-2
1.357806501E0,-9.635788389E-3,-2.548713051E-2,2.053179219E-2,3.411739630E-2
1.359806234E0,-1.330097951E-2,-2.365453541E-2,1.992092654E-2,3.366446815E-2
1.361805967E0,-2.063136362E-2,-2.548713051E-2,1.869919524E-2,3.774793887E-2
1.363806400E0,-2.368569002E-2,-2.426539920E-2,1.686660014E-2,3.787220234E-2
1.365806133E0,-2.612915076E-2,-2.426539920E-2,1.625573449E-2,3.918916970E-2
1.367805933E0,-2.857261151E-2,-2.121107467E-2,1.259054337E-2,3.774686211E-2
1.369805666E0,-3.345953301E-2,-1.998934336E-2,1.014708262E-2,4.027502306E-2
1.371805399E0,-3.407039493E-2,-2.060020901E-2,1.075794827E-2,4.124189464E-2
1.373805132E0,-3.529212996E-2,-1.632415131E-2,1.014708262E-2,4.018675950E-2
1.375804865E0,-3.895732015E-2,-1.571328565E-2,9.536217898E-3,4.307574249E-2
1.377804431E0,-3.712472692E-2,-1.143722981E-2,8.314486593E-3,3.972639251E-2
1.379804164E0,-3.773558885E-2,-1.021549944E-2,7.092756219E-3,3.973208131E-2
1.381803997E0,-3.956818208E-2,-5.328577477E-3,6.481891032E-3,4.044811099E-2
1.383803797E0,-3.895732015E-2,-4.717712291E-3,7.703621406E-3,3.999094129E-2
1.385803563E0,-3.834645450E-2,-4.106846638E-3,6.481891032E-3,3.910667045E-2
1.387803329E0,-3.834645450E-2,7.800749154E-4,6.481891032E-3,3.889825190E-2
1.389803095E0,-3.712472692E-2,1.390940160E-3,4.038430285E-3,3.736962647E-2
1.391803195E0,-3.407039493E-2,1.390940160E-3,5.260160659E-3,3.450211320E-2
1.393802961E0,-3.407039493E-2,1.692096703E-4,5.260160659E-3,3.447447944E-2
1.395802727E0,-3.101607040E-2,7.800749154E-4,3.427564865E-3,3.121463344E-2
1.397802560E0,-2.612915076E-2,-2.274251310E-3,4.038430285E-3,2.653702428E-2
1.399802326E0,-2.612915076E-2,-5.328577477E-3,4.649295472E-3,2.706921140E-2
1.401802092E0,-2.063136362E-2,-7.772038691E-3,4.038430285E-3,2.241353763E-2
1.403801458E0,-2.368569002E-2,-5.328577477E-3,7.092756219E-3,2.529254515E-2
1.405800791E0,-1.757703535E-2,-8.993769065E-3,6.481891032E-3,2.078112040E-2
1.407800557E0,-1.757703535E-2,-8.382904343E-3,6.481891032E-3,2.052413624E-2
1.409800323E0,-1.330097951E-2,-1.021549944E-2,1.014708262E-2,1.960193282E-2
1.411800089E0,-1.085751876E-2,-1.265896019E-2,8.314486593E-3,1.863506571E-2
1.413799922E0,-7.803192828E-3,-1.143722981E-2,1.259054337E-2,1.871421455E-2
1.415799688E0,-6.581462454E-3,-1.265896019E-2,1.320140809E-2,1.943816083E-2
1.417799454E0,-6.581462454E-3,-1.204809546E-2,1.442313939E-2,1.991228772E-2
1.419799220E0,-1.694540144E-3,-1.204809546E-2,1.442313939E-2,1.886942025E-2
1.421798986E0,-4.728097119E-4,-1.571328565E-2,1.808833145E-2,2.396494585E-2
1.423799286E0,1.970651327E-3,-1.571328565E-2,1.808833145E-2,2.404118440E-2
1.425799052E0,2.581516514E-3,-1.510242186E-2,1.747746393E-2,2.324239917E-2
1.427798818E0,2.581516514E-3,-1.998934336E-2,1.869919524E-2,2.749359885E-2
1.429798651E0,5.024977494E-3,-2.121107467E-2,1.808833145E-2,2.832574486E-2
1.431798417E0,5.635842681E-3,-2.426539920E-2,2.114265598E-2,3.267390738E-2
1.433798183E0,5.635842681E-3,-3.220665082E-2,2.053179219E-2,3.860810240E-2
1.435797949E0,9.301033802E-3,-3.587184101E-2,2.297525294E-2,4.360229874E-2
1.437797715E0,8.690169081E-3,-4.381308705E-2,2.053179219E-2,4.915953749E-2
1.439797481E0,1.052276511E-2,-4.747828096E-2,2.114265598E-2,5.302761215E-2
1.441797247E0,1.296622586E-2,-5.541953072E-2,2.053179219E-2,6.050621364E-2
1.443797013E0,1.052276511E-2,-5.297606811E-2,1.931006089E-2,5.735913902E-2
1.445796813E0,1.418795623E-2,-6.030644849E-2,1.747746393E-2,6.437101504E-2
1.447796546E0,1.296622586E-2,-6.091731787E-2,1.747746393E-2,6.468774516E-2
1.449796279E0,1.357709151E-2,-5.847385526E-2,1.686660014E-2,6.235392019E-2
1.451796012E0,1.479882188E-2,-5.969558284E-2,1.503400411E-2,6.331341895E-2
1.453795745E0,1.602055132E-2,-5.969558284E-2,1.503400411E-2,6.361007746E-2
1.455795478E0,1.540968660E-2,-6.152817979E-2,1.197967771E-2,6.454988790E-2
1.457795211E0,1.663141698E-2,-6.152817979E-2,1.259054337E-2,6.496801307E-2
1.459795011E0,1.296622586E-2,-6.091731787E-2,1.136881392E-2,6.331107770E-2
1.461794811E0,1.357709151E-2,-5.969558284E-2,1.136881392E-2,6.226676444E-2
1.463794944E0,1.235536020E-2,-5.603039265E-2,1.136881392E-2,5.849196317E-2
1.465795110E0,1.418795623E-2,-5.908472091E-2,1.259054337E-2,6.205500890E-2
1.467794843E0,9.301033802E-3,-5.541953072E-2,1.014708262E-2,5.710338782E-2
1.469794576E0,9.301033802E-3,-5.236519873E-2,1.136881392E-2,5.438633282E-2
1.471794309E0,8.079303429E-3,-5.664125830E-2,8.925352246E-3,5.790655575E-2
1.473794042E0,7.468438707E-3,-6.030644849E-2,1.136881392E-2,6.182147876E-2
1.475793842E0,6.246707868E-3,-5.908472091E-2,9.536217898E-3,6.017445518E-2
1.477793575E0,5.024977494E-3,-5.786298588E-2,1.014708262E-2,5.896048524E-2
1.479793308E0,1.359786023E-3,-6.091731787E-2,7.703621406E-3,6.141754161E-2
1.481793008E0,1.380555477E-4,-6.519337744E-2,8.925352246E-3,6.580165221E-2
1.483792341E0,1.380555477E-4,-6.519337744E-2,8.925352246E-3,6.580165221E-2
1.485791941E0,3.192381933E-3,-6.885856390E-2,7.703621406E-3,6.936165300E-2
1.487791674E0,1.380555477E-4,-7.130202651E-2,8.314486593E-3,7.178529606E-2
1.489791407E0,2.581516514E-3,-7.374548167E-2,4.649295472E-3,7.393697480E-2
1.491791207E0,-4.728097119E-4,-8.229760081E-2,4.649295472E-3,8.243018013E-2
1.493790940E0,3.192381933E-3,-8.840624988E-2,2.816699678E-3,8.850870080E-2
1.495790673E0,3.192381933E-3,-9.390404075E-2,2.205834491E-3,9.398417887E-2
1.497790406E0,4.414112307E-3,-9.695836902E-2,1.594969188E-3,9.707189931E-2
1.499790139E0,2.581516514E-3,-1.018452868E-1,1.594969188E-3,1.018904833E-1
1.501789872E0,2.581516514E-3,-1.036778763E-1,2.205834491E-3,1.037334660E-1
1.503789605E0,7.489207783E-4,-1.079539433E-1,2.205834491E-3,1.079790742E-1
1.505789338E0,1.380555477E-4,-1.097865403E-1,4.649295472E-3,1.098850282E-1
1.507789138E0,-1.694540144E-3,-1.097865403E-1,5.871025845E-3,1.099564679E-1
1.509789771E0,-4.138000775E-3,-1.103973985E-1,5.871025845E-3,1.106308166E-1
1.511789504E0,-7.803192828E-3,-1.073430702E-1,6.481891032E-3,1.078213312E-1
1.513789237E0,-5.970596801E-3,-1.042887494E-1,7.092756219E-3,1.047000404E-1
1.515788970E0,-9.635788389E-3,-1.030670181E-1,7.092756219E-3,1.037591723E-1
1.517788703E0,-1.269011479E-2,-9.756922722E-2,1.014708262E-2,9.891287277E-2
1.519788436E0,-1.391184516E-2,-9.329317510E-2,8.314486593E-3,9.469047810E-2
1.521788169E0,-1.757703535E-2,-8.229760081E-2,9.536217898E-3,8.469230616E-2
1.523787969E0,-2.063136362E-2,-7.741067559E-2,1.075794827E-2,8.083192012E-2
1.525787702E0,-1.574444026E-2,-7.618895173E-2,9.536217898E-3,7.838101311E-2
1.527787435E0,-2.063136362E-2,-6.458250433E-2,1.014708262E-2,6.855301829E-2
1.529787168E0,-2.124222741E-2,-6.030644849E-2,1.075794827E-2,6.483697560E-2
1.531786901E0,-2.246395871E-2,-5.175433680E-2,1.014708262E-2,5.732455063E-2
1.533786634E0,-1.879876666E-2,-4.870000854E-2,1.320140809E-2,5.384572068E-2
1.535786367E0,-1.757703535E-2,-4.198049009E-2,1.564487070E-2,4.812562414E-2
1.537786167E0,-1.757703535E-2,-4.381308705E-2,1.686660014E-2,5.013004058E-2
1.539785967E0,-1.635530591E-2,-3.770443797E-2,1.747746393E-2,4.466074809E-2
1.541785700E0,-1.330097951E-2,-2.731972747E-2,2.175352350E-2,3.736976518E-2
1.543785866E0,-1.330097951E-2,-2.731972747E-2,2.175352350E-2,3.736976518E-2
1.545785732E0,-1.024665311E-2,-2.731972747E-2,2.419698425E-2,3.790587626E-2
1.547785465E0,-9.024923667E-3,-2.182194032E-2,2.358611859E-2,3.337590923E-2
1.549785198E0,-5.970596801E-3,-1.693501696E-2,2.664044313E-2,3.212718531E-2
1.551784931E0,-1.083674957E-3,-1.082636416E-2,2.602957934E-2,2.821211642E-2
1.553784731E0,-2.305405447E-3,-5.939442664E-3,2.602957934E-2,2.679796399E-2
1.555784531E0,1.359786023E-3,-5.328577477E-3,2.602957934E-2,2.660416803E-2
1.557784264E0,5.635842681E-3,-2.885116497E-3,2.419698425E-2,2.501161063E-2
1.559783997E0,7.468438707E-3,7.800749154E-4,2.541871369E-2,2.650466184E-2
1.561783730E0,1.174449548E-2,-4.416555748E-4,2.602957934E-2,2.855988856E-2
1.563783463E0,1.174449548E-2,-5.328577477E-3,2.419698425E-2,2.741935372E-2
1.565783196E0,1.602055132E-2,-5.939442664E-3,2.175352350E-2,2.766135985E-2
1.567782929E0,1.479882188E-2,-2.885116497E-3,2.358611859E-2,2.799346382E-2
1.569781829E0,1.540968660E-2,-9.604634717E-3,2.297525294E-2,2.928429096E-2
1.571781562E0,1.785314828E-2,-1.265896019E-2,1.992092654E-2,2.959438276E-2
1.573781295E0,1.540968660E-2,-1.388069056E-2,1.992092654E-2,2.875717868E-2
1.575781028E0,1.724228263E-2,-1.632415131E-2,1.747746393E-2,2.948280807E-2
1.577780761E0,1.663141698E-2,-1.571328565E-2,1.320140809E-2,2.641568762E-2
1.579780494E0,1.968574338E-2,-1.632415131E-2,1.381227374E-2,2.906519076E-2
1.581780227E0,1.479882188E-2,-1.693501696E-2,8.314486593E-3,2.397771081E-2
1.583779960E0,1.907487959E-2,-1.754588261E-2,5.871025845E-3,2.657400934E-2
1.585779760E0,1.907487959E-2,-1.876761205E-2,4.038430285E-3,2.706257956E-2
1.587779493E0,1.663141698E-2,-1.693501696E-2,4.038430285E-3,2.407712087E-2
1.589779226E0,1.235536020E-2,-1.815674827E-2,3.732386394E-4,2.196501173E-2
1.591778959E0,1.357709151E-2,-1.937847957E-2,3.732386394E-4,2.366436543E-2
1.593778692E0,1.235536020E-2,-1.876761205E-2,3.732386394E-4,2.247259431E-2
1.595778425E0,1.418795623E-2,-2.426539920E-2,-8.484918508E-4,2.812165783E-2
1.597777725E0,1.357709151E-2,-2.243280411E-2,-2.376265766E-4,2.622259675E-2
1.599777458E0,1.540968660E-2,-2.487626486E-2,-2.376265766E-4,2.926334671E-2
1.601777291E0,1.357709151E-2,-3.098491952E-2,-3.902818076E-3,3.405340864E-2
1.603776291E0,1.357709151E-2,-3.098491952E-2,-3.902818076E-3,3.405340864E-2
1.605776024E0,1.174449548E-2,-3.770443797E-2,-8.484918508E-4,3.950035133E-2
1.607775757E0,1.357709151E-2,-3.953703493E-2,-2.681087470E-3,4.188917252E-2
1.609775490E0,1.113362983E-2,-4.259135947E-2,-3.902818076E-3,4.419517624E-2
1.611775223E0,1.235536020E-2,-5.053260550E-2,-3.902818076E-3,5.216733780E-2
1.613774523E0,1.052276511E-2,-5.664125830E-2,-2.070222283E-3,5.764760661E-2
1.615774256E0,8.690169081E-3,-5.541953072E-2,-3.291952889E-3,5.619324139E-2
1.617774056E0,7.468438707E-3,-5.908472091E-2,-5.124548450E-3,5.977493470E-2
1.619773789E0,6.246707868E-3,-6.458250433E-2,-2.681087470E-3,6.493927513E-2
1.621773522E0,1.970651327E-3,-6.580423564E-2,-3.291952889E-3,6.591599084E-2
1.623773255E0,3.803246887E-3,-6.702596694E-2,-1.459356979E-3,6.714964374E-2
1.625772988E0,1.359786023E-3,-6.580423564E-2,-2.376265766E-4,6.581871248E-2
1.627772721E0,4.414112307E-3,-6.641510129E-2,-1.459356979E-3,6.657762229E-2
1.629772454E0,7.489207783E-4,-7.008029521E-2,1.594969188E-3,7.010244350E-2
1.631772254E0,-1.083674957E-3,-6.519337744E-2,7.092756219E-3,6.558702618E-2
1.633772054E0,-2.916270634E-3,-6.946942955E-2,7.703621406E-3,6.995607236E-2
1.635771787E0,-4.748866428E-3,-6.885856390E-2,1.075794827E-2,6.985547227E-2
1.637771520E0,-7.192327641E-3,-6.580423564E-2,1.503400411E-2,6.788187007E-2
1.639771253E0,-8.414058015E-3,-6.519337744E-2,1.503400411E-2,6.743140302E-2
1.641770986E0,-1.269011479E-2,-6.091731787E-2,1.381227374E-2,6.373960727E-2
1.643770719E0,-1.085751876E-2,-5.847385526E-2,1.381227374E-2,6.105617387E-2
1.645770452E0,-1.330097951E-2,-5.725212395E-2,1.259054337E-2,6.011026148E-2
1.647770252E0,-1.513357554E-2,-5.419779569E-2,1.075794827E-2,5.729013543E-2
1.649769985E0,-1.513357554E-2,-5.114347115E-2,8.925352246E-3,5.407718246E-2
1.651769718E0,-1.513357554E-2,-5.175433680E-2,7.703621406E-3,5.446909463E-2
1.653769451E0,-1.635530591E-2,-4.808914661E-2,8.314486593E-3,5.147030931E-2
1.655769184E0,-1.452271082E-2,-4.992173985E-2,2.205834491E-3,5.203801442E-2
1.657769350E0,-1.391184516E-2,-4.625654966E-2,2.205834491E-3,4.835362993E-2
1.659769083E0,-1.330097951E-2,-4.075876251E-2,1.594969188E-3,4.290380757E-2
1.661768816E0,-1.146838348E-2,-4.014789686E-2,3.427564865E-3,4.189421968E-2
1.663768916E0,-1.146838348E-2,-4.014789686E-2,3.427564865E-3,4.189421968E-2
1.665768649E0,-5.359731615E-3,-3.587184101E-2,4.649295472E-3,3.656681076E-2
1.667768382E0,-2.305405447E-3,-3.831529990E-2,8.314486593E-3,3.927477292E-2
1.669768115E0,-5.359731615E-3,-3.465010971E-2,9.536217898E-3,3.633588141E-2
1.671767848E0,-1.694540144E-3,-2.915232256E-2,9.536217898E-3,3.071919317E-2
1.673768014E0,7.489207783E-4,-2.548713051E-2,8.925352246E-3,2.701511830E-2
1.675767747E0,2.581516514E-3,-2.182194032E-2,1.014708262E-2,2.420381359E-2
1.677767480E0,3.192381933E-3,-1.571328565E-2,1.197967771E-2,2.001527733E-2
1.679767280E0,6.857573055E-3,-1.143722981E-2,8.314486593E-3,1.571519078E-2
1.681767013E0,8.690169081E-3,-7.772038691E-3,8.314486593E-3,1.431971757E-2
1.683766746E0,9.911899455E-3,-7.161173504E-3,8.314486593E-3,1.478711750E-2
1.685766479E0,9.911899455E-3,-4.106846638E-3,5.871025845E-3,1.223032643E-2
1.687766012E0,1.602055132E-2,1.692096703E-4,4.649295472E-3,1.668240525E-2
1.689765745E0,1.296622586E-2,4.445266444E-3,2.205834491E-3,1.388341141E-2
1.691765478E0,1.540968660E-2,3.834401025E-3,1.594969188E-3,1.595947991E-2
1.693765211E0,1.479882188E-2,7.800749154E-4,4.649295472E-3,1.553156767E-2
1.695765011E0,1.663141698E-2,5.056131631E-3,9.841038845E-4,1.741082876E-2
1.697764744E0,1.418795623E-2,2.612670651E-3,9.841038845E-4,1.446003494E-2
1.699764477E0,1.785314828E-2,3.223536070E-3,-8.484918508E-4,1.816166366E-2
1.701764210E0,1.724228263E-2,5.056131631E-3,4.038430285E-3,1.841656039E-2
1.703763943E0,1.602055132E-2,6.888727192E-3,4.038430285E-3,1.790032252E-2
1.705763676E0,1.602055132E-2,7.499592844E-3,4.038430285E-3,1.814416922E-2
1.707763409E0,1.724228263E-2,6.888727192E-3,1.594969188E-3,1.863584716E-2
1.709763209E0,1.663141698E-2,1.666257158E-2,3.427564865E-3,2.379061839E-2
1.711763009E0,1.479882188E-2,1.421911083E-2,5.871025845E-3,2.134612814E-2
1.713762742E0,1.540968660E-2,1.177564915E-2,3.427564865E-3,1.969448032E-2
1.715762475E0,1.479882188E-2,1.116478443E-2,3.427564865E-3,1.885220786E-2
1.717762208E0,1.540968660E-2,1.238651481E-2,2.816699678E-3,1.997042782E-2
1.719761941E0,1.174449548E-2,1.116478443E-2,2.816699678E-3,1.644747344E-2
1.721761674E0,1.418795623E-2,1.177564915E-2,2.205834491E-3,1.856959129E-2
1.723760540E0,1.418795623E-2,1.177564915E-2,2.205834491E-3,1.856959129E-2
1.725760340E0,1.479882188E-2,8.110457100E-3,-2.376265766E-4,1.687723644E-2
1.727760073E0,1.113362983E-2,5.666996818E-3,-8.484918508E-4,1.252168138E-2
1.729759806E0,9.911899455E-3,3.223536070E-3,-1.459356979E-3,1.052457402E-2
1.731759539E0,9.911899455E-3,3.834401025E-3,-3.291952889E-3,1.112588585E-2
1.733759272E0,8.079303429E-3,2.612670651E-3,-2.070222283E-3,8.739966368E-3
1.735759005E0,8.079303429E-3,3.834401025E-3,-8.484918508E-4,8.983190610E-3
1.737758738E0,3.192381933E-3,8.721322753E-3,-1.459356979E-3,9.401196507E-3
1.739758471E0,1.359786023E-3,2.612670651E-3,-2.070222283E-3,3.600123089E-3
1.741758271E0,-2.916270634E-3,7.800749154E-4,-1.459356979E-3,3.353039528E-3
1.743757737E0,-7.803192828E-3,-4.416555748E-4,-8.484918508E-4,7.861603932E-3
1.745757470E0,-7.803192828E-3,2.612670651E-3,-2.070222283E-3,8.485380754E-3
1.747757403E0,-1.513357554E-2,-4.416555748E-4,3.732386394E-4,1.514461869E-2
1.749757136E0,-1.635530591E-2,-2.274251310E-3,-2.376265766E-4,1.651437909E-2
1.751756869E0,-1.879876666E-2,-2.274251310E-3,-2.376265766E-4,1.893732593E-2
1.753756602E0,-1.879876666E-2,-8.993769065E-3,-3.291952889E-3,2.109783078E-2
1.755756335E0,-2.185309492E-2,-6.550308317E-3,-2.681087470E-3,2.297068842E-2
1.757756135E0,-2.307482250E-2,-1.265896019E-2,-2.070222283E-3,2.640042664E-2
1.759755868E0,-2.429655381E-2,-1.449155621E-2,-3.291952889E-3,2.848095297E-2
1.761755601E0,-2.735088021E-2,-1.754588261E-2,-5.735413637E-3,3.299732738E-2
1.763755534E0,-2.735088021E-2,-1.754588261E-2,-5.735413637E-3,3.299732738E-2
1.765755267E0,-2.368569002E-2,-1.876761205E-2,-6.346279290E-3,3.087896427E-2
1.767755000E0,-2.429655381E-2,-2.365453541E-2,-6.957144476E-3,3.461591298E-2
1.769754733E0,-2.368569002E-2,-2.487626486E-2,-7.568009198E-3,3.517264886E-2
1.771754466E0,-2.124222741E-2,-2.426539920E-2,-1.062233560E-2,3.395402535E-2
1.773754266E0,-2.002049796E-2,-2.548713051E-2,-1.123320125E-2,3.430158845E-2
1.775753999E0,-1.696617156E-2,-2.609799616E-2,-1.123320125E-2,3.309291754E-2
1.777753732E0,-1.452271082E-2,-2.670885995E-2,-1.245493162E-2,3.285418772E-2
1.779753465E0,-1.085751876E-2,-2.365453541E-2,-1.367666200E-2,2.940193604E-2
1.781753198E0,-3.527135821E-3,-2.182194032E-2,-2.039617859E-2,3.007726496E-2
1.783752898E0,-3.527135821E-3,-2.182194032E-2,-2.039617859E-2,3.007726496E-2
1.785752631E0,-1.694540144E-3,-1.754588261E-2,-1.795271784E-2,2.516007831E-2
1.787752431E0,1.970651327E-3,-1.754588261E-2,-1.673098840E-2,2.432421501E-2
1.789752231E0,3.803246887E-3,-1.876761205E-2,-1.856358349E-2,2.667010651E-2
1.791751997E0,8.079303429E-3,-1.693501696E-2,-2.161790989E-2,2.862523313E-2
1.793751763E0,9.301033802E-3,-1.265896019E-2,-2.283964120E-2,2.772016798E-2
1.795751529E0,1.235536020E-2,-1.326982584E-2,-2.283964120E-2,2.916148854E-2
1.797751295E0,1.785314828E-2,-1.265896019E-2,-2.589396760E-2,3.390400765E-2
1.799751061E0,1.968574338E-2,-1.265896019E-2,-2.711569704E-2,3.581953086E-2
1.801750827E0,2.396179922E-2,-1.388069056E-2,-2.955915779E-2,4.050413808E-2
1.803751093E0,2.518353052E-2,-1.021549944E-2,-3.200262040E-2,4.198493004E-2
1.805750926E0,2.884872258E-2,-1.265896019E-2,-3.017002344E-2,4.362027489E-2
1.807750692E0,2.762699127E-2,-1.082636416E-2,-3.322435170E-2,4.454568839E-2
1.809750458E0,2.884872258E-2,-1.632415131E-2,-3.383521736E-2,4.736611282E-2
1.811750224E0,3.068131767E-2,-1.510242186E-2,-3.261348233E-2,4.725532382E-2
1.813749990E0,3.312477842E-2,-1.754588261E-2,-3.383521736E-2,5.049684025E-2
1.815749756E0,3.190304711E-2,-1.510242186E-2,-3.017002344E-2,4.643401637E-2
1.817749522E0,3.068131767E-2,-1.937847957E-2,-3.261348233E-2,4.879044941E-2
1.819749355E0,2.884872258E-2,-1.693501696E-2,-3.139175475E-2,4.587467558E-2
1.821749121E0,3.190304711E-2,-1.754588261E-2,-3.139175475E-2,4.807395010E-2
1.823748254E0,3.007045202E-2,-1.937847957E-2,-3.078088909E-2,4.719343904E-2
1.825748620E0,2.823785506E-2,-1.143722981E-2,-2.894829400E-2,4.202606822E-2
1.827748386E0,2.640526183E-2,-1.693501696E-2,-2.711569704E-2,4.146436636E-2
1.829748152E0,2.701612748E-2,-1.693501696E-2,-3.139175475E-2,4.474492384E-2
1.831747918E0,2.396179922E-2,-2.060020901E-2,-2.833742648E-2,4.244462478E-2
1.833747684E0,2.090747468E-2,-1.632415131E-2,-2.772656269E-2,3.837137856E-2
1.835747517E0,2.151833847E-2,-1.998934336E-2,-2.955915779E-2,4.166961180E-2
1.837747283E0,1.846401207E-2,-2.060020901E-2,-2.711569704E-2,3.873692527E-2
1.839747049E0,1.540968660E-2,-1.693501696E-2,-2.528310195E-2,3.410994700E-2
1.841746815E0,1.479882188E-2,-1.998934336E-2,-2.772656269E-2,3.724703016E-2
1.843747481E0,1.540968660E-2,-1.571328565E-2,-2.528310195E-2,3.352015858E-2
1.845747247E0,1.052276511E-2,-1.754588261E-2,-2.528310195E-2,3.252417295E-2
1.847747013E0,1.052276511E-2,-1.693501696E-2,-2.406137064E-2,3.124856704E-2
1.849746779E0,7.468438707E-3,-1.876761205E-2,-2.345050685E-2,3.095039758E-2
1.851746579E0,5.635842681E-3,-1.937847957E-2,-2.345050685E-2,3.093888273E-2
1.853746312E0,8.079303429E-3,-1.998934336E-2,-2.467223629E-2,3.276535114E-2
1.855746978E0,4.414112307E-3,-2.060020901E-2,-2.467223629E-2,3.244336978E-2
1.857746711E0,-1.083674957E-3,-2.548713051E-2,-2.467223629E-2,3.548925776E-2
1.859746444E0,1.359786023E-3,-2.854145691E-2,-2.345050685E-2,3.696471361E-2
1.861746177E0,-4.748866428E-3,-3.037405200E-2,-2.467223629E-2,3.941895497E-2
1.863745310E0,-6.581462454E-3,-3.281751275E-2,-2.100704610E-2,3.951709475E-2
1.865745043E0,-9.635788389E-3,-3.159578145E-2,-2.161790989E-2,3.947753603E-2
1.867744843E0,-1.207924914E-2,-3.220665082E-2,-1.917444915E-2,3.938065663E-2
1.869744576E0,-1.513357554E-2,-3.037405200E-2,-2.100704610E-2,3.991120306E-2
1.871744309E0,-1.574444026E-2,-2.976318821E-2,-1.978531480E-2,3.905372522E-2
1.873744042E0,-1.818790287E-2,-2.854145691E-2,-1.856358349E-2,3.860079281E-2
1.875744242E0,-2.307482250E-2,-2.304366790E-2,-1.673098840E-2,3.665220370E-2
1.877743975E0,-2.612915076E-2,-2.304366790E-2,-1.612012275E-2,3.838751760E-2
1.879743708E0,-2.490741946E-2,-2.304366790E-2,-1.734185405E-2,3.810682454E-2
1.881743508E0,-3.345953301E-2,-1.449155621E-2,-1.489839237E-2,3.938918184E-2
1.883743608E0,-3.345953301E-2,-1.632415131E-2,-1.489839237E-2,4.009963042E-2
1.885742741E0,-3.468126431E-2,-1.388069056E-2,-1.245493162E-2,3.937751879E-2
1.887742474E0,-3.956818208E-2,-9.604634717E-3,-1.306579728E-2,4.276219241E-2
1.889742207E0,-4.323337600E-2,-1.082636416E-2,-1.306579728E-2,4.644405257E-2
1.891741940E0,-4.078991711E-2,-9.604634717E-3,-1.428752672E-2,4.427414331E-2
1.893741673E0,-5.117462575E-2,-5.939442664E-3,-1.184406690E-2,5.286209626E-2
1.895741406E0,-4.995289445E-2,-5.328577477E-3,-1.306579728E-2,5.190761467E-2
1.897741206E0,-5.239635333E-2,-1.052520820E-3,-1.245493162E-2,5.386660343E-2
1.899740939E0,-5.239635333E-2,3.223536070E-3,-1.428752672E-2,5.440498550E-2
1.901740672E0,-5.545068532E-2,1.971689798E-2,-1.428752672E-2,6.056127466E-2
1.903739505E0,-5.545068532E-2,1.971689798E-2,-1.428752672E-2,6.056127466E-2
1.905739238E0,-5.728327483E-2,2.765814587E-2,-9.400605224E-3,6.430177281E-2
1.907738971E0,-6.033760309E-2,3.132333606E-2,-9.400605224E-3,6.863052606E-2
1.909738704E0,-5.972673744E-2,3.804285452E-2,-8.178874850E-3,7.128419137E-2
1.911738437E0,-6.033760309E-2,4.354064167E-2,-8.178874850E-3,7.485524576E-2
1.913738237E0,-6.217020005E-2,5.087102577E-2,-5.735413637E-3,8.053502348E-2
1.915737037E0,-6.339193135E-2,5.392535031E-2,-3.291952889E-3,8.329055961E-2
1.917736770E0,-6.278106570E-2,6.247746199E-2,-2.376265766E-4,8.857173327E-2
1.919736503E0,-6.461366266E-2,6.431005895E-2,2.816699678E-3,9.120659451E-2
1.921736236E0,-6.766798347E-2,7.102958113E-2,6.481891032E-3,9.831669387E-2
1.923735836E0,-6.644625962E-2,6.858611852E-2,7.703621406E-3,9.580452418E-2
1.925735569E0,-7.011145353E-2,7.041871548E-2,8.314486593E-3,9.971731090E-2
1.927735302E0,-7.133317739E-2,6.919698417E-2,1.014708262E-2,9.989798847E-2
1.929735602E0,-7.194404304E-2,6.675352156E-2,9.536217898E-3,9.860485496E-2
1.931735335E0,-7.377664000E-2,6.675352156E-2,1.075794827E-2,1.000737663E-1
1.933735068E0,-7.377664000E-2,6.125573441E-2,1.014708262E-2,9.642728293E-2
1.935734334E0,-7.499836385E-2,5.392535031E-2,8.925352246E-3,9.280280114E-2
1.937734067E0,-7.744183391E-2,4.842756316E-2,7.092756219E-3,9.161208274E-2
1.939733800E0,-7.622010261E-2,4.292977601E-2,4.649295472E-3,8.760185876E-2
1.941733533E0,-7.560923696E-2,3.315593302E-2,4.649295472E-3,8.269031718E-2
1.943732966E0,-7.744183391E-2,3.010160662E-2,-2.376265766E-4,8.308670668E-2
1.945732766E0,-7.560923696E-2,2.032776177E-2,-8.484918508E-4,7.829875191E-2
1.947732499E0,-7.560923696E-2,7.499592844E-3,-4.513683263E-3,7.611421643E-2
1.949732232E0,-7.316577435E-2,4.445266444E-3,-5.124548450E-3,7.347960211E-2
1.951731965E0,-7.194404304E-2,-7.161173504E-3,-1.062233560E-2,7.307572612E-2
1.953731698E0,-6.827885658E-2,-2.304366790E-2,-1.062233560E-2,7.284124449E-2
1.955731431E0,-7.011145353E-2,-2.731972747E-2,-1.306579728E-2,7.637210540E-2
1.957731164E0,-6.583538651E-2,-4.136962444E-2,-1.367666200E-2,7.894805271E-2
1.959730964E0,-6.400278956E-2,-5.175433680E-2,-1.795271784E-2,8.424469436E-2
1.961730764E0,-6.033760309E-2,-6.336077303E-2,-1.917444915E-2,8.957049406E-2
1.963731130E0,-6.033760309E-2,-6.336077303E-2,-1.917444915E-2,8.957049406E-2
1.965730863E0,-5.789414048E-2,-6.885856390E-2,-2.161790989E-2,9.252333410E-2
1.967730596E0,-5.728327483E-2,-6.824769825E-2,-2.039617859E-2,9.140637829E-2
1.969730329E0,-5.178549141E-2,-7.802154869E-2,-1.856358349E-2,9.546573109E-2
1.971730062E0,-4.934202880E-2,-7.679980993E-2,-2.161790989E-2,9.380927800E-2
1.973729795E0,-4.750943556E-2,-7.741067559E-2,-1.795271784E-2,9.258433582E-2
1.975729595E0,-4.384424165E-2,-7.924327254E-2,-1.917444915E-2,9.257144954E-2
1.977729328E0,-4.017905146E-2,-7.679980993E-2,-1.550925709E-2,8.805171229E-2
1.979729061E0,-4.078991711E-2,-7.924327254E-2,-1.367666200E-2,9.016853478E-2
1.981728794E0,-3.407039493E-2,-7.924327254E-2,-1.245493162E-2,8.715166881E-2
1.983728727E0,-3.101607040E-2,-7.924327254E-2,-1.184406690E-2,8.591725547E-2
1.985728460E0,-2.857261151E-2,-7.924327254E-2,-1.001147088E-2,8.482994708E-2
1.987728193E0,-2.674001455E-2,-7.985413820E-2,-8.178874850E-3,8.460854424E-2
1.989727426E0,-2.551828325E-2,-7.802154869E-2,-4.513683263E-3,8.221264000E-2
1.991727226E0,-2.490741946E-2,-7.741067559E-2,-8.789739572E-3,8.179273660E-2
1.993726959E0,-2.185309492E-2,-7.252375782E-2,-5.124548450E-3,7.591781215E-2
1.995726692E0,-2.307482250E-2,-6.946942955E-2,-5.124548450E-3,7.338058376E-2
1.997726425E0,-2.063136362E-2,-6.580423564E-2,-3.291952889E-3,6.904120180E-2
1.999726158E0,-2.124222741E-2,-5.664125830E-2,-4.513683263E-3,6.066166585E-2
2.001725891E0,-2.063136362E-2,-4.992173985E-2,-7.568009198E-3,5.454455094E-2
2.003726057E0,-2.063136362E-2,-4.992173985E-2,-7.568009198E-3,5.454455094E-2
2.005725790E0,-1.879876666E-2,-3.831529990E-2,-6.346279290E-3,4.314778204E-2
2.007725590E0,-2.185309492E-2,-3.526097536E-2,-3.291952889E-3,4.161407328E-2
2.009725323E0,-2.185309492E-2,-3.220665082E-2,-6.957144476E-3,3.953767791E-2
2.011725056E0,-2.368569002E-2,-3.342837840E-2,3.732386394E-4,4.097081524E-2
2.013724789E0,-2.674001455E-2,-3.037405200E-2,5.871025845E-3,4.089107920E-2
2.015724522E0,-2.429655381E-2,-3.098491952E-2,8.925352246E-3,4.037387369E-2
2.017724255E0,-3.040520661E-2,-2.243280411E-2,1.442313939E-2,4.044421144E-2
2.019723988E0,-3.284866735E-2,-1.693501696E-2,1.564487070E-2,4.013217818E-2
2.021723721E0,-3.590299189E-2,-1.510242186E-2,1.442313939E-2,4.153474356E-2
2.023724121E0,-4.078991711E-2,-1.204809546E-2,1.747746393E-2,4.598299346E-2
2.025723887E0,-4.689856619E-2,-9.604634717E-3,1.992092654E-2,5.185140145E-2
2.027723653E0,-4.628770426E-2,-7.161173504E-3,1.686660014E-2,4.978268948E-2
2.029723419E0,-5.056376010E-2,-5.328577477E-3,1.747746393E-2,5.376382910E-2
2.031723185E0,-5.300722271E-2,-5.939442664E-3,1.564487070E-2,5.558601099E-2
2.033722518E0,-5.545068532E-2,-1.052520820E-3,1.931006089E-2,5.872618457E-2
2.035722284E0,-6.217020005E-2,-4.717712291E-3,1.564487070E-2,6.428182140E-2
2.037722117E0,-6.583538651E-2,-1.663386123E-3,1.503400411E-2,6.755061991E-2
2.039721950E0,-6.705711782E-2,7.800749154E-4,1.381227374E-2,6.846929584E-2
2.041721816E0,-7.072231174E-2,-4.717712291E-3,9.536217898E-3,7.151812105E-2
2.043722782E0,-7.377664000E-2,-5.328577477E-3,1.075794827E-2,7.474703873E-2
2.045722648E0,-7.499836385E-2,-1.663386123E-3,1.014708262E-2,7.569996512E-2
2.047722514E0,-7.744183391E-2,-2.885116497E-3,8.925352246E-3,7.800784223E-2
2.049722380E0,-7.744183391E-2,-4.416555748E-4,7.703621406E-3,7.782530747E-2
2.051722246E0,-8.232875168E-2,1.390940160E-3,7.703621406E-3,8.270008374E-2
2.053722179E0,-8.110702783E-2,4.445266444E-3,6.481891032E-3,8.148696379E-2
2.055722112E0,-8.416134864E-2,4.445266444E-3,7.092756219E-3,8.457659363E-2
2.057722045E0,-8.171788603E-2,6.277862005E-3,5.260160659E-3,8.212730203E-2
2.059721978E0,-8.049615473E-2,5.666996818E-3,2.816699678E-3,8.074453279E-2
2.061721911E0,-7.805269957E-2,3.834401025E-3,5.871025845E-3,7.836705612E-2
2.063721411E0,-7.988528907E-2,4.445266444E-3,3.427564865E-3,8.008225774E-2
2.065721344E0,-7.744183391E-2,7.800749154E-4,2.816699678E-3,7.749696738E-2
2.067721277E0,-7.805269957E-2,-1.052520820E-3,2.816699678E-3,7.811059792E-2
2.069721277E0,-7.255490869E-2,-2.885116497E-3,2.205834491E-3,7.264574577E-2
2.071721243E0,-7.255490869E-2,-1.663386123E-3,2.205834491E-3,7.260748814E-2
2.073721209E0,-7.133317739E-2,-4.717712291E-3,2.205834491E-3,7.152303623E-2
2.075721175E0,-7.133317739E-2,-1.052520820E-3,9.841038845E-4,7.134772916E-2
2.077721141E0,-6.644625962E-2,7.800749154E-4,-8.484918508E-4,6.645625533E-2
2.079721107E0,-6.461366266E-2,7.800749154E-4,-8.484918508E-4,6.462394183E-2
2.081721073E0,-5.911587179E-2,3.834401025E-3,-4.513683263E-3,5.941180240E-2
2.083720773E0,-5.728327483E-2,6.277862005E-3,-5.735413637E-3,5.791096698E-2
2.085720773E0,-5.483981594E-2,8.721322753E-3,-5.124548450E-3,5.576493414E-2
2.087720739E0,-5.178549141E-2,1.116478443E-2,-5.124548450E-3,5.322265052E-2
2.089720705E0,-4.812030122E-2,1.299738046E-2,-5.124548450E-3,5.010744740E-2
2.091720671E0,-4.445510730E-2,1.299738046E-2,-6.346279290E-3,4.674894357E-2
2.093721071E0,-4.078991711E-2,1.238651481E-2,-7.568009198E-3,4.329570244E-2
2.095721037E0,-3.834645450E-2,1.055391878E-2,-9.400605224E-3,4.086816797E-2
2.097721003E0,-3.956818208E-2,1.055391878E-2,-8.178874850E-3,4.176027094E-2
2.099720969E0,-3.712472692E-2,6.277862005E-3,-8.789739572E-3,3.866414905E-2
2.101720902E0,-3.345953301E-2,2.612670651E-3,-6.957144476E-3,3.427489250E-2
2.103720102E0,-3.345953301E-2,2.612670651E-3,-6.957144476E-3,3.427489250E-2
2.105720035E0,-3.284866735E-2,7.800749154E-4,-9.400605224E-3,3.417623213E-2
2.107719968E0,-3.162693605E-2,2.001805231E-3,-1.123320125E-2,3.362224142E-2
2.109719901E0,-3.223780170E-2,7.800749154E-4,-9.400605224E-3,3.358951851E-2
2.111719834E0,-3.040520661E-2,-1.663386123E-3,-9.400605224E-3,3.186871225E-2
2.113719767E0,-2.979434282E-2,1.390940160E-3,-1.001147088E-2,3.146215389E-2
2.115719700E0,-2.918347530E-2,-4.416555748E-4,-1.123320125E-2,3.127387249E-2
2.117719633E0,-3.040520661E-2,-2.274251310E-3,-8.178874850E-3,3.156806617E-2
2.119719499E0,-2.674001455E-2,-6.550308317E-3,-8.789739572E-3,2.889973078E-2
2.121719365E0,-2.918347530E-2,-7.161173504E-3,-8.178874850E-3,3.114244098E-2
2.123720065E0,-2.857261151E-2,-1.021549944E-2,-5.735413637E-3,3.088115164E-2
2.125719931E0,-2.979434282E-2,-1.449155621E-2,-5.124548450E-3,3.352564783E-2
2.127719797E0,-3.223780170E-2,-1.754588261E-2,-4.513683263E-3,3.697982141E-2
2.129719663E0,-3.162693605E-2,-2.426539920E-2,-4.513683263E-3,4.011790148E-2
2.131719563E0,-3.590299189E-2,-2.915232256E-2,-5.124548450E-3,4.653110502E-2
2.133719463E0,-3.529212996E-2,-3.403924406E-2,-5.124548450E-3,4.929975223E-2
2.135719296E0,-4.384424165E-2,-4.259135947E-2,-6.346279290E-3,6.145418365E-2
2.137719129E0,-4.201164469E-2,-4.625654966E-2,-3.291952889E-3,6.257382544E-2
2.139718962E0,-4.445510730E-2,-4.808914661E-2,-5.735413637E-3,6.573977150E-2
2.141718795E0,-5.239635333E-2,-6.030644849E-2,-6.957144476E-3,8.019131768E-2
2.143718561E0,-5.361808836E-2,-6.336077303E-2,-6.346279290E-3,8.324519337E-2
2.145718394E0,-5.667241290E-2,-6.458250433E-2,-6.346279290E-3,8.615647109E-2
2.147718260E0,-6.155933440E-2,-6.885856390E-2,-6.957144476E-3,9.262534930E-2
2.149718060E0,-6.339193135E-2,-7.252375782E-2,-6.346279290E-3,9.653241771E-2
2.151717860E0,-6.583538651E-2,-7.069116086E-2,-5.735413637E-3,9.677000212E-2
2.153717660E0,-7.072231174E-2,-7.130202651E-2,-5.735413637E-3,1.005908511E-1
2.155717460E0,-7.316577435E-2,-6.763683259E-2,-6.346279290E-3,9.984110837E-2
2.157717260E0,-7.499836385E-2,-6.336077303E-2,-5.124548450E-3,9.831379932E-2
2.159717060E0,-7.622010261E-2,-5.725212395E-2,-5.735413637E-3,9.549976287E-2
2.161716860E0,-7.560923696E-2,-5.175433680E-2,-5.735413637E-3,9.180502743E-2
2.163716460E0,-7.622010261E-2,-5.175433680E-2,-1.123320125E-2,9.281271589E-2
2.165716193E0,-7.560923696E-2,-4.931087419E-2,-1.001147088E-2,9.082152044E-2
2.167715926E0,-7.255490869E-2,-4.198049009E-2,-1.062233560E-2,8.449503143E-2
2.169715659E0,-7.560923696E-2,-3.709357232E-2,-1.306579728E-2,8.522561164E-2
2.171715392E0,-7.011145353E-2,-3.587184101E-2,-1.062233560E-2,7.946847745E-2
2.173715125E0,-7.011145353E-2,-2.793059126E-2,-1.062233560E-2,7.621396104E-2
2.175714858E0,-6.888971478E-2,-2.487626486E-2,-1.306579728E-2,7.439984149E-2
2.177714591E0,-6.400278956E-2,-1.693501696E-2,-1.184406690E-2,6.725647769E-2
2.179714391E0,-5.972673744E-2,-1.265896019E-2,-8.789739572E-3,6.168299571E-2
2.181714124E0,-5.545068532E-2,-5.328577477E-3,-6.346279290E-3,5.606645612E-2
2.183713024E0,-5.361808836E-2,7.800749154E-4,-6.957144476E-3,5.407318907E-2
2.185712757E0,-4.934202880E-2,4.445266444E-3,-4.513683263E-3,4.974705555E-2
2.187712490E0,-4.567683861E-2,8.721322753E-3,-4.513683263E-3,4.672053502E-2
2.189712223E0,-4.017905146E-2,1.360824518E-2,-1.459356979E-3,4.244608622E-2
2.191711956E0,-3.162693605E-2,1.971689798E-2,-8.484918508E-4,3.727920450E-2
2.193711689E0,-2.796174586E-2,1.849516667E-2,1.594969188E-3,3.356299076E-2
2.195711489E0,-2.551828325E-2,2.216035873E-2,4.038430285E-3,3.403782011E-2
2.197711222E0,-1.818790287E-2,2.643641457E-2,9.841038845E-4,3.210377371E-2
2.199710955E0,-1.574444026E-2,2.216035873E-2,3.427564865E-3,2.739921712E-2
2.201710688E0,-1.085751876E-2,2.032776177E-2,2.205834491E-3,2.315101117E-2
2.203709488E0,-9.024923667E-3,1.971689798E-2,1.594969188E-3,2.174279742E-2
2.205709221E0,-5.359731615E-3,2.032776177E-2,1.594969188E-3,2.108289706E-2
2.207708954E0,-3.527135821E-3,1.360824518E-2,9.841038845E-4,1.409232005E-2
2.209708754E0,1.380555477E-4,7.499592844E-3,-8.484918508E-4,7.548701252E-3
2.211707654E0,1.380555477E-4,7.499592844E-3,-2.070222283E-3,7.781309174E-3
2.213707387E0,2.581516514E-3,1.692096703E-4,-2.376265766E-4,2.597946461E-3
2.215707120E0,1.970651327E-3,-6.550308317E-3,-2.681087470E-3,7.346988207E-3
2.217706853E0,3.803246887E-3,-1.021549944E-2,-2.681087470E-3,1.122538844E-2
2.219706586E0,2.581516514E-3,-1.449155621E-2,-2.376265766E-4,1.472161320E-2
2.221706319E0,3.192381933E-3,-1.510242186E-2,-2.376265766E-4,1.543796991E-2
2.223706252E0,2.581516514E-3,-1.815674827E-2,-2.376265766E-4,1.834088879E-2
2.225706052E0,2.581516514E-3,-1.632415131E-2,-8.484918508E-4,1.654877886E-2
2.227705785E0,5.635842681E-3,-1.510242186E-2,3.732386394E-4,1.612405582E-2
2.229705518E0,3.192381933E-3,-1.571328565E-2,1.594969188E-3,1.611342841E-2
2.231705251E0,3.803246887E-3,-1.449155621E-2,1.594969188E-3,1.506697763E-2
2.233704984E0,3.803246887E-3,-1.326982584E-2,2.205834491E-3,1.397922281E-2
2.235704717E0,3.192381933E-3,-1.326982584E-2,1.594969188E-3,1.374130659E-2
2.237704450E0,1.970651327E-3,-1.326982584E-2,1.594969188E-3,1.350983609E-2
2.239704183E0,4.414112307E-3,-1.388069056E-2,1.594969188E-3,1.465270912E-2
2.241703983E0,3.803246887E-3,-1.265896019E-2,5.871025845E-3,1.446315679E-2
2.243703716E0,5.024977494E-3,-1.265896019E-2,4.649295472E-3,1.439151209E-2
2.245703016E0,4.414112307E-3,-1.815674827E-2,8.925352246E-3,2.070781997E-2
2.247702749E0,6.246707868E-3,-2.182194032E-2,7.092756219E-3,2.378078277E-2
2.249702482E0,5.635842681E-3,-2.426539920E-2,8.314486593E-3,2.626219733E-2
2.251702215E0,9.301033802E-3,-2.793059126E-2,7.092756219E-3,3.028092384E-2
2.253701948E0,9.301033802E-3,-2.854145691E-2,8.314486593E-3,3.114891137E-2
2.255701681E0,1.235536020E-2,-3.526097536E-2,7.703621406E-3,3.814888061E-2
2.257701481E0,1.113362983E-2,-3.953703493E-2,8.925352246E-3,4.203328154E-2
2.259701214E0,1.418795623E-2,-4.014789686E-2,7.703621406E-3,4.327236424E-2
2.261700947E0,1.235536020E-2,-4.503481835E-2,7.092756219E-3,4.723448931E-2
2.263701613E0,8.079303429E-3,-4.808914661E-2,4.649295472E-3,4.898425374E-2
2.265701346E0,9.911899455E-3,-4.931087419E-2,4.649295472E-3,5.051162255E-2
2.267701079E0,8.690169081E-3,-5.297606811E-2,2.205834491E-3,5.372940105E-2
2.269700812E0,4.414112307E-3,-5.053260550E-2,1.594969188E-3,5.075009884E-2
2.271701445E0,5.024977494E-3,-5.297606811E-2,3.427564865E-3,5.332412580E-2
2.273701111E0,7.489207783E-4,-5.358693376E-2,1.594969188E-3,5.361589577E-2
2.275700844E0,-5.359731615E-3,-4.870000854E-2,9.841038845E-4,4.900393877E-2
2.277700577E0,-5.359731615E-3,-4.870000854E-2,1.594969188E-3,4.902001103E-2
2.279700310E0,-1.146838348E-2,-4.442395270E-2,9.841038845E-4,4.589095612E-2
2.281700010E0,-1.452271082E-2,-4.259135947E-2,9.841038845E-4,4.501001545E-2
2.283699210E0,-1.574444026E-2,-4.136962444E-2,9.841038845E-4,4.427529430E-2
2.285698943E0,-2.551828325E-2,-3.709357232E-2,9.841038845E-4,4.503425749E-2
2.287698743E0,-3.101607040E-2,-3.342837840E-2,-8.484918508E-4,4.560891408E-2
2.289698543E0,-3.223780170E-2,-3.587184101E-2,-8.484918508E-4,4.823675751E-2
2.291698276E0,-3.284866735E-2,-3.403924406E-2,3.732386394E-4,4.730585999E-2
2.293698009E0,-4.017905146E-2,-3.526097536E-2,-1.459356979E-3,5.347730624E-2
2.295697742E0,-4.017905146E-2,-3.465010971E-2,-1.459356979E-3,5.307651083E-2
2.297697475E0,-4.506597295E-2,-3.587184101E-2,-5.124548450E-3,5.782725908E-2
2.299697208E0,-4.689856619E-2,-4.014789686E-2,-3.291952889E-3,6.182366930E-2
2.301696941E0,-4.934202880E-2,-4.075876251E-2,-5.735413637E-3,6.425579738E-2
2.303696241E0,-5.056376010E-2,-4.198049009E-2,-5.124548450E-3,6.591901380E-2
2.305696474E0,-4.934202880E-2,-4.075876251E-2,-5.124548450E-3,6.420415504E-2
2.307696207E0,-5.117462575E-2,-4.075876251E-2,-7.568009198E-3,6.585889314E-2
2.309695940E0,-5.178549141E-2,-3.831529990E-2,-7.568009198E-3,6.486196181E-2
2.311695673E0,-4.750943556E-2,-3.587184101E-2,-6.346279290E-3,5.986827796E-2
2.313695406E0,-4.628770426E-2,-3.770443797E-2,-6.346279290E-3,6.003708412E-2
2.315695139E0,-4.445510730E-2,-3.403924406E-2,-1.001147088E-2,5.687843396E-2
2.317694872E0,-4.262251407E-2,-3.892616555E-2,-6.957144476E-3,5.814057902E-2
2.319694672E0,-4.017905146E-2,-3.220665082E-2,-6.346279290E-3,5.188352141E-2
2.321694405E0,-3.407039493E-2,-3.709357232E-2,-8.789739572E-3,5.112713996E-2
2.323694138E0,-3.284866735E-2,-3.465010971E-2,-8.789739572E-3,4.854816754E-2
2.325693871E0,-3.040520661E-2,-3.403924406E-2,-1.062233560E-2,4.686129254E-2
2.327693604E0,-2.307482250E-2,-3.403924406E-2,-1.123320125E-2,4.262982969E-2
2.329693337E0,-1.574444026E-2,-3.342837840E-2,-1.306579728E-2,3.919258782E-2
2.331693070E0,-1.207924914E-2,-3.281751275E-2,-1.550925709E-2,3.825486189E-2
2.333692936E0,-3.527135821E-3,-3.220665082E-2,-1.673098840E-2,3.646416072E-2
2.335692736E0,5.024977494E-3,-2.609799616E-2,-1.734185405E-2,3.173477122E-2
2.337692469E0,9.301033802E-3,-2.731972747E-2,-1.856358349E-2,3.431447757E-2
2.339692202E0,1.846401207E-2,-2.426539920E-2,-1.856358349E-2,3.569784268E-2
2.341691968E0,2.945958637E-2,-1.998934336E-2,-1.856358349E-2,4.015031393E-2
2.343692234E0,3.190304711E-2,-1.815674827E-2,-1.917444915E-2,4.141414520E-2
2.345691967E0,4.167689011E-2,-1.449155621E-2,-1.673098840E-2,4.718998138E-2
2.347691700E0,4.717467725E-2,-1.326982584E-2,-1.978531480E-2,5.284881393E-2
2.349691433E0,4.961813986E-2,-1.265896019E-2,-1.550925709E-2,5.350463655E-2
2.351691233E0,5.450506136E-2,-1.265896019E-2,-1.428752672E-2,5.775105546E-2
2.353690699E0,6.000284851E-2,-1.265896019E-2,-1.245493162E-2,6.257568556E-2
2.355690432E0,6.122457981E-2,-1.632415131E-2,-1.184406690E-2,6.446091071E-2
2.357690165E0,6.366804242E-2,-1.388069056E-2,-1.123320125E-2,6.612471555E-2
2.359689898E0,6.611150503E-2,-1.571328565E-2,-1.306579728E-2,6.919792990E-2
2.361689631E0,6.611150503E-2,-1.204809546E-2,-1.184406690E-2,6.823613136E-2
2.363690297E0,6.672236323E-2,-1.082636416E-2,-1.184406690E-2,6.862481940E-2
2.365690030E0,6.855496019E-2,-3.495981684E-3,-1.489839237E-2,7.024219921E-2
2.367689830E0,6.855496019E-2,-5.939442664E-3,-1.367666200E-2,7.015775530E-2
2.369689563E0,6.855496019E-2,-4.717712291E-3,-1.489839237E-2,7.031359379E-2
2.371689296E0,6.488977373E-2,1.692096703E-4,-1.245493162E-2,6.607447834E-2
2.373689029E0,6.672236323E-2,-4.416555748E-4,-1.612012275E-2,6.864347873E-2
2.375688762E0,6.183544546E-2,3.223536070E-3,-1.734185405E-2,6.430204820E-2
2.377688495E0,5.939198285E-2,7.800749154E-4,-1.795271784E-2,6.205091637E-2
2.379688228E0,5.694852397E-2,-2.885116497E-3,-1.673098840E-2,5.942545122E-2
2.381688028E0,4.900727421E-2,-9.604634717E-3,-1.917444915E-2,5.349412523E-2
2.383687428E0,4.900727421E-2,-9.604634717E-3,-1.917444915E-2,5.349412523E-2
2.385687161E0,4.778554663E-2,-1.388069056E-2,-2.039617859E-2,5.377858438E-2
2.387686894E0,4.106602818E-2,-2.243280411E-2,-1.917444915E-2,5.056984151E-2
2.389686627E0,3.984429687E-2,-2.487626486E-2,-1.917444915E-2,5.073515592E-2
2.391686360E0,3.434650972E-2,-2.670885995E-2,-1.795271784E-2,4.706746231E-2
2.393686093E0,3.007045202E-2,-3.770443797E-2,-1.978531480E-2,5.212787555E-2
2.395685826E0,2.762699127E-2,-3.892616555E-2,-1.917444915E-2,5.144080590E-2
2.397685626E0,2.335093543E-2,-4.320222139E-2,-1.917444915E-2,5.271961323E-2
2.399685359E0,1.968574338E-2,-5.053260550E-2,-2.283964120E-2,5.884489715E-2
2.401685092E0,1.785314828E-2,-6.336077303E-2,-2.406137064E-2,7.008760246E-2
2.403685125E0,1.785314828E-2,-6.336077303E-2,-2.406137064E-2,7.008760246E-2
2.405684858E0,1.846401207E-2,-7.069116086E-2,-2.650483139E-2,7.772172188E-2
2.407684391E0,1.785314828E-2,-7.496721298E-2,-2.772656269E-2,8.189981809E-2
2.409684124E0,1.785314828E-2,-8.779538423E-2,-2.833742648E-2,9.396687786E-2
2.411683857E0,1.785314828E-2,-9.023884684E-2,-2.833742648E-2,9.625380056E-2
2.413683923E0,1.724228263E-2,-9.695836902E-2,-2.894829400E-2,1.026461171E-1
2.415683656E0,2.579439618E-2,-9.879095852E-2,-2.833742648E-2,1.059623240E-1
2.417683389E0,2.457266673E-2,-1.006235555E-1,-3.017002344E-2,1.078848747E-1
2.419683122E0,2.579439618E-2,-1.030670181E-1,-2.772656269E-2,1.098040226E-1
2.421682855E0,3.068131767E-2,-1.061213464E-1,-2.772656269E-2,1.138940108E-1
2.423682588E0,3.495737538E-2,-1.036778763E-1,-2.833742648E-2,1.130226962E-1
2.425682321E0,3.617910296E-2,-1.055104733E-1,-2.711569704E-2,1.147895835E-1
2.427682054E0,4.045516253E-2,-1.055104733E-1,-2.589396760E-2,1.159291926E-1
2.429681854E0,4.534208402E-2,-1.018452868E-1,-2.528310195E-2,1.143136137E-1
2.431681587E0,4.595294967E-2,-1.006235555E-1,-2.283964120E-2,1.129531881E-1
2.433681320E0,5.206159875E-2,-9.512577206E-2,-2.283964120E-2,1.108195460E-1
2.435681053E0,5.694852397E-2,-8.962798119E-2,-2.100704610E-2,1.082478886E-1
2.437680786E0,5.694852397E-2,-8.596279472E-2,-1.734185405E-2,1.045632649E-1
2.439680519E0,6.061371788E-2,-7.435635477E-2,-1.917444915E-2,9.782918680E-2
2.441680252E0,6.794410199E-2,-6.091731787E-2,-1.123320125E-2,9.194294656E-2
2.443680185E0,6.794410199E-2,-6.091731787E-2,-1.123320125E-2,9.194294656E-2
2.445679985E0,7.222015411E-2,-4.870000854E-2,-6.346279290E-3,8.733680067E-2
2.447679718E0,7.588534802E-2,-3.892616555E-2,-3.291952889E-3,8.535027453E-2
2.449679451E0,7.832880318E-2,-4.014789686E-2,-2.070222283E-3,8.804283531E-2
2.451679184E0,7.955053449E-2,-2.915232256E-2,-8.484918508E-4,8.472818531E-2
2.453678917E0,8.504832536E-2,-2.426539920E-2,2.205834491E-3,8.846972901E-2
2.455678650E0,8.504832536E-2,-1.876761205E-2,2.205834491E-3,8.712236575E-2
2.457678383E0,8.565919101E-2,-1.815674827E-2,6.481891032E-3,8.780193292E-2
2.459678183E0,8.260486275E-2,-1.815674827E-2,5.260160659E-3,8.474019204E-2
2.461677983E0,8.138313144E-2,-1.876761205E-2,6.481891032E-3,8.377023491E-2
2.463677416E0,8.077227324E-2,-2.365453541E-2,5.260160659E-3,8.432891829E-2
2.465677149E0,7.710707933E-2,-2.731972747E-2,3.427564865E-3,8.187562148E-2
2.467677082E0,7.771794498E-2,-2.915232256E-2,1.594969188E-3,8.302096608E-2
2.469676815E0,7.283101976E-2,-3.220665082E-2,3.732386394E-4,7.963520015E-2
2.471676548E0,6.977669895E-2,-3.220665082E-2,-2.681087470E-3,7.689762222E-2
2.473676281E0,6.611150503E-2,-3.465010971E-2,-2.681087470E-3,7.468968758E-2
2.475676081E0,6.305717677E-2,-3.770443797E-2,-5.735413637E-3,7.369346751E-2
2.477675881E0,5.878112093E-2,-4.014789686E-2,-6.346279290E-3,7.146571948E-2
2.479675614E0,5.694852397E-2,-4.198049009E-2,-6.346279290E-3,7.103359199E-2
2.481675347E0,5.206159875E-2,-4.381308705E-2,-6.957144476E-3,6.839881958E-2
2.483675080E0,4.717467725E-2,-5.053260550E-2,-7.568009198E-3,6.954328980E-2
2.485674813E0,4.595294967E-2,-4.870000854E-2,-6.957144476E-3,6.731839477E-2
2.487674546E0,4.473122209E-2,-5.297606811E-2,-6.346279290E-3,6.962486110E-2
2.489674279E0,4.106602818E-2,-5.114347115E-2,-5.124548450E-3,6.579007758E-2
2.491674079E0,3.678996861E-2,-4.992173985E-2,-5.124548450E-3,6.222493790E-2
2.493673812E0,3.434650972E-2,-5.419779569E-2,-4.513683263E-3,6.432306837E-2
2.495673545E0,3.129218146E-2,-5.725212395E-2,-3.291952889E-3,6.532873236E-2
2.497673278E0,3.068131767E-2,-5.358693376E-2,-3.902818076E-3,6.187192185E-2
2.499673011E0,2.762699127E-2,-5.725212395E-2,-3.291952889E-3,6.365448372E-2
2.501672744E0,2.274006978E-2,-5.419779569E-2,-6.957144476E-3,5.918541789E-2
2.503671744E0,2.274006978E-2,-5.419779569E-2,-6.957144476E-3,5.918541789E-2
2.505671477E0,1.785314828E-2,-5.358693376E-2,-8.178874850E-3,5.707178258E-2
2.507671277E0,1.418795623E-2,-5.541953072E-2,-1.123320125E-2,5.829929071E-2
2.509671043E0,1.296622586E-2,-5.664125830E-2,-9.400605224E-3,5.886192771E-2
2.511670809E0,9.301033802E-3,-5.603039265E-2,-9.400605224E-3,5.756983158E-2
2.513670575E0,8.690169081E-3,-5.847385526E-2,-1.367666200E-2,6.067752360E-2
2.515670341E0,6.246707868E-3,-6.030644849E-2,-1.245493162E-2,6.189518891E-2
2.517670107E0,5.024977494E-3,-5.908472091E-2,-1.550925709E-2,6.129267248E-2
2.519669873E0,2.581516514E-3,-5.969558284E-2,-1.673098840E-2,6.204959960E-2
2.521669639E0,1.380555477E-4,-5.480866134E-2,-1.856358349E-2,5.786721913E-2
2.523669472E0,-2.916270634E-3,-5.786298588E-2,-1.856358349E-2,6.083778761E-2
2.525669238E0,-5.970596801E-3,-5.480866134E-2,-1.734185405E-2,5.779599715E-2
2.527669004E0,-6.581462454E-3,-5.541953072E-2,-1.917444915E-2,5.901101197E-2
2.529668770E0,-5.970596801E-3,-5.847385526E-2,-1.612012275E-2,6.094832346E-2
2.531668536E0,-1.024665311E-2,-5.541953072E-2,-1.917444915E-2,5.953131768E-2
2.533668302E0,-9.024923667E-3,-5.664125830E-2,-1.856358349E-2,6.028505637E-2
2.535668068E0,-9.635788389E-3,-5.175433680E-2,-1.978531480E-2,5.623894094E-2
2.537667834E0,-1.146838348E-2,-4.564568400E-2,-1.856358349E-2,5.059307186E-2
2.539667667E0,-7.803192828E-3,-4.198049009E-2,-1.917444915E-2,4.680716683E-2
2.541667433E0,-4.138000775E-3,-3.465010971E-2,-1.978531480E-2,4.011498267E-2
2.543666766E0,-5.970596801E-3,-3.037405200E-2,-2.161790989E-2,3.775665623E-2
2.545666532E0,-1.694540144E-3,-2.426539920E-2,-2.283964120E-2,3.336660419E-2
2.547666298E0,7.489207783E-4,-1.815674827E-2,-1.978531480E-2,2.686423406E-2
2.549666064E0,6.246707868E-3,-8.382904343E-3,-1.978531480E-2,2.237751385E-2
2.551665830E0,6.246707868E-3,-5.328577477E-3,-1.856358349E-2,2.029831838E-2
2.553665663E0,9.301033802E-3,4.445266444E-3,-2.100704610E-2,2.340011986E-2
2.555665496E0,1.418795623E-2,1.116478443E-2,-1.978531480E-2,2.678449542E-2
2.557665262E0,1.418795623E-2,1.482997555E-2,-2.039617859E-2,2.893493352E-2
2.559665028E0,1.968574338E-2,1.971689798E-2,-2.039617859E-2,3.452953315E-2
2.561664861E0,2.274006978E-2,2.704728208E-2,-2.039617859E-2,4.080037184E-2
2.563665561E0,2.274006978E-2,2.704728208E-2,-2.039617859E-2,4.080037184E-2
2.565665327E0,2.151833847E-2,3.315593302E-2,-1.795271784E-2,4.341261180E-2
2.567665093E0,2.579439618E-2,3.926458210E-2,-1.673098840E-2,4.986967269E-2
2.569664893E0,2.518353052E-2,4.537323862E-2,-1.673098840E-2,5.452400357E-2
2.571664626E0,2.701612748E-2,5.270362273E-2,-1.367666200E-2,6.078317264E-2
2.573664359E0,2.884872258E-2,6.675352156E-2,-1.245493162E-2,7.377944671E-2
2.575664092E0,2.884872258E-2,6.492093205E-2,-1.245493162E-2,7.212559556E-2
2.577663825E0,3.251391277E-2,7.530563325E-2,-8.178874850E-3,8.243171062E-2
2.579663558E0,3.556824103E-2,8.141428232E-2,-6.346279290E-3,8.907109743E-2
2.581663258E0,3.556824103E-2,8.569034934E-2,-6.346279290E-3,9.299575797E-2
2.583662924E0,3.740083799E-2,9.363159537E-2,-5.124548450E-3,1.009552343E-1
2.585662724E0,3.862256557E-2,9.607505053E-2,-4.513683263E-3,1.036459900E-1
2.587662457E0,3.984429687E-2,9.912937880E-2,-5.735413637E-3,1.069911057E-1
2.589662190E0,4.228775948E-2,1.021837071E-1,-8.178874850E-3,1.108902998E-1
2.591661923E0,4.289862514E-2,1.021837071E-1,-8.789739572E-3,1.111713162E-1
2.593661656E0,4.656381533E-2,1.040163040E-1,-1.001147088E-2,1.144019665E-1
2.595661389E0,4.717467725E-2,1.064597592E-1,-9.400605224E-3,1.168225230E-1
2.597661122E0,5.206159875E-2,1.119575500E-1,-1.123320125E-2,1.239801915E-1
2.599660855E0,4.961813986E-2,1.089032218E-1,-1.367666200E-2,1.204529892E-1
2.601660655E0,5.633765832E-2,1.119575500E-1,-1.184406690E-2,1.258916466E-1
2.603660688E0,5.694852397E-2,1.131792814E-1,-1.306579728E-2,1.273711081E-1
2.605660421E0,6.000284851E-2,1.125684157E-1,-1.001147088E-2,1.279539745E-1
2.607660154E0,6.366804242E-2,1.119575500E-1,-1.001147088E-2,1.291833665E-1
2.609659887E0,6.550063193E-2,1.107358187E-1,-5.735413637E-3,1.287852837E-1
2.611659620E0,6.733322889E-2,1.144010052E-1,-5.735413637E-3,1.328692917E-1
2.613659453E0,6.733322889E-2,1.082923561E-1,-3.291952889E-3,1.275611033E-1
2.615659186E0,6.611150503E-2,1.034054309E-1,3.732386394E-4,1.227336692E-1
2.617658986E0,6.611150503E-2,1.027945727E-1,3.732386394E-4,1.222194526E-1
2.619658719E0,6.550063193E-2,1.040163040E-1,-8.484918508E-4,1.229245469E-1
2.621658385E0,6.183544546E-2,9.240985662E-2,1.594969188E-3,1.112013842E-1
2.623658385E0,6.183544546E-2,9.240985662E-2,1.594969188E-3,1.112013842E-1
2.625658118E0,5.755938590E-2,8.996640146E-2,4.038430285E-3,1.068800506E-1
2.627657851E0,5.450506136E-2,8.507947624E-2,3.427564865E-3,1.010992937E-1
2.629657584E0,5.328333378E-2,7.897082716E-2,4.649295472E-3,9.537882967E-2
2.631657384E0,4.839640856E-2,7.591649890E-2,7.703621406E-3,9.035968653E-2
2.633657184E0,4.228775948E-2,7.347303629E-2,9.536217898E-3,8.530815386E-2
2.635656917E0,4.106602818E-2,7.225131243E-2,1.259054337E-2,8.405470005E-2
2.637656650E0,3.801169991E-2,6.614265591E-2,1.320140809E-2,7.742104001E-2
2.639656383E0,3.556824103E-2,6.919698417E-2,1.747746393E-2,7.974198476E-2
2.641656149E0,3.190304711E-2,6.247746199E-2,2.419698425E-2,7.420735623E-2
2.643655949E0,3.251391277E-2,6.553179026E-2,2.419698425E-2,7.705234652E-2
2.645655682E0,2.640526183E-2,6.736438721E-2,2.908390388E-2,7.798122839E-2
2.647655482E0,2.579439618E-2,6.675352156E-2,3.030563518E-2,7.771624694E-2
2.649655215E0,2.335093543E-2,6.675352156E-2,3.458169103E-2,7.872224705E-2
2.651654948E0,2.274006978E-2,6.431005895E-2,3.702515364E-2,7.761286271E-2
2.653654681E0,1.907487959E-2,6.736438721E-2,3.397082910E-2,7.781920666E-2
2.655654414E0,1.663141698E-2,6.369919330E-2,3.641428798E-2,7.523424504E-2
2.657654147E0,1.418795623E-2,6.186660007E-2,3.702515364E-2,7.348221763E-2
2.659653880E0,1.357709151E-2,5.820140988E-2,3.519255668E-2,6.935602044E-2
2.661653613E0,1.296622586E-2,5.514708161E-2,3.213823214E-2,6.513209338E-2
2.663653013E0,1.296622586E-2,4.842756316E-2,3.274909407E-2,5.988200939E-2
2.665652746E0,1.540968660E-2,4.781670123E-2,2.969477139E-2,5.835815972E-2
2.667652212E0,1.052276511E-2,4.476236925E-2,2.602957934E-2,5.283878582E-2
2.669651945E0,9.911899455E-3,3.621025756E-2,2.480784804E-2,4.499842028E-2
2.671651678E0,9.911899455E-3,3.315593302E-2,2.297525294E-2,4.153822207E-2
2.673651311E0,6.246707868E-3,2.521468513E-2,2.236438729E-2,3.427779929E-2
2.675651044E0,6.857573055E-3,1.605170593E-2,1.931006089E-2,2.603002157E-2
2.677650777E0,7.468438707E-3,9.332188405E-3,1.686660014E-2,2.067243376E-2
2.679650577E0,5.635842681E-3,7.800749154E-4,1.625573449E-2,1.722266365E-2
2.681650310E0,4.414112307E-3,-1.632415131E-2,1.320140809E-2,2.145319274E-2
2.683649876E0,4.414112307E-3,-1.632415131E-2,1.320140809E-2,2.145319274E-2
2.685649609E0,1.970651327E-3,-2.487626486E-2,1.136881392E-2,2.742192462E-2
2.687649342E0,7.489207783E-4,-3.281751275E-2,1.075794827E-2,3.454393545E-2
2.689649075E0,1.380555477E-4,-3.709357232E-2,1.075794827E-2,3.862234609E-2
2.691648808E0,-3.527135821E-3,-4.564568400E-2,1.075794827E-2,4.702874234E-2
2.693648541E0,-3.527135821E-3,-4.931087419E-2,8.925352246E-3,5.023609174E-2
2.695648341E0,-2.916270634E-3,-5.236519873E-2,1.075794827E-2,5.353832388E-2
2.697648074E0,-5.970596801E-3,-5.419779569E-2,1.075794827E-2,5.557681652E-2
2.699647807E0,-5.359731615E-3,-5.664125830E-2,1.136881392E-2,5.801903821E-2
2.701647540E0,-8.414058015E-3,-5.419779569E-2,1.136881392E-2,5.601292137E-2
2.703647273E0,-5.359731615E-3,-5.236519873E-2,1.197967771E-2,5.398475191E-2
2.705647006E0,-9.024923667E-3,-4.747828096E-2,1.136881392E-2,4.964762170E-2
2.707646739E0,-6.581462454E-3,-4.564568400E-2,8.925352246E-3,4.697346090E-2
2.709646539E0,-7.192327641E-3,-4.014789686E-2,5.871025845E-3,4.120742825E-2
2.711646339E0,-7.803192828E-3,-3.953703493E-2,6.481891032E-3,4.081766604E-2
2.713646072E0,-4.138000775E-3,-3.648270294E-2,2.816699678E-3,3.682450898E-2
2.715645805E0,-1.083674957E-3,-3.098491952E-2,-8.484918508E-4,3.101547239E-2
2.717645538E0,-1.083674957E-3,-2.915232256E-2,1.594969188E-3,2.921602623E-2
2.719645271E0,-1.083674957E-3,-2.731972747E-2,-1.459356979E-3,2.738013117E-2
2.721645004E0,2.581516514E-3,-2.243280411E-2,-2.681087470E-3,2.273946256E-2
2.723644837E0,5.635842681E-3,-1.876761205E-2,-4.513683263E-3,2.010868771E-2
2.725644637E0,8.079303429E-3,-1.449155621E-2,-5.124548450E-3,1.736494579E-2
2.727644703E0,1.418795623E-2,-1.204809546E-2,-6.957144476E-3,1.987099810E-2
2.729644436E0,1.479882188E-2,-5.328577477E-3,-7.568009198E-3,1.745490276E-2
2.731644169E0,1.846401207E-2,-1.663386123E-3,-9.400605224E-3,2.078600428E-2
2.733643902E0,2.151833847E-2,2.001805231E-3,-1.367666200E-2,2.557532401E-2
2.735643635E0,2.823785506E-2,2.612670651E-3,-1.489839237E-2,3.203380405E-2
2.737643368E0,3.373564407E-2,7.499592844E-3,-1.612012275E-2,3.813392100E-2
2.739643101E0,3.190304711E-2,1.177564915E-2,-1.856358349E-2,3.874373446E-2
2.741642901E0,4.045516253E-2,1.544084027E-2,-1.917444915E-2,4.735714543E-2
2.743642534E0,4.045516253E-2,1.544084027E-2,-1.917444915E-2,4.735714543E-2
2.745642267E0,4.473122209E-2,1.910603233E-2,-1.795271784E-2,5.184807402E-2
2.747642000E0,4.167689011E-2,2.582555078E-2,-1.734185405E-2,5.200636638E-2
2.749641733E0,4.717467725E-2,2.704728208E-2,-1.673098840E-2,5.689403848E-2
2.751641466E0,4.717467725E-2,2.826900966E-2,-1.734185405E-2,5.766564821E-2
2.753641199E0,4.717467725E-2,3.498852998E-2,-1.367666200E-2,6.030504529E-2
2.755640932E0,4.839640856E-2,3.498852998E-2,-1.184406690E-2,6.088260435E-2
2.757640732E0,4.717467725E-2,4.109717906E-2,-8.178874850E-3,6.309772020E-2
2.759640465E0,4.595294967E-2,4.170804471E-2,-3.902818076E-3,6.218091802E-2
2.761640198E0,4.106602818E-2,4.170804471E-2,-2.681087470E-3,5.859324102E-2
2.763639498E0,3.862256557E-2,3.987545148E-2,-2.376265766E-4,5.551405829E-2
2.765639231E0,3.862256557E-2,3.743198887E-2,-8.484918508E-4,5.379197245E-2
2.767638964E0,3.373564407E-2,3.682112321E-2,2.816699678E-3,5.001822261E-2
2.769638564E0,2.823785506E-2,3.437766433E-2,7.092756219E-3,4.505005498E-2
2.771638297E0,2.518353052E-2,3.254506737E-2,5.260160659E-3,4.148567114E-2
2.773638097E0,1.968574338E-2,2.949074097E-2,4.649295472E-3,3.576098773E-2
2.775637830E0,1.357709151E-2,2.154949307E-2,2.816699678E-3,2.562521927E-2
2.777637563E0,1.174449548E-2,1.910603233E-2,7.092756219E-3,2.352192246E-2
2.779637296E0,5.635842681E-3,1.238651481E-2,3.427564865E-3,1.403341272E-2
2.781637029E0,-4.748866428E-3,3.834401025E-3,-2.070222283E-3,6.445167482E-3
2.783636995E0,-4.748866428E-3,3.834401025E-3,-2.070222283E-3,6.445167482E-3
2.785636728E0,-1.269011479E-2,1.692096703E-4,-8.178874850E-3,1.509839856E-2
2.787636461E0,-1.940963231E-2,-4.106846638E-3,-1.001147088E-2,2.222227632E-2
2.789636261E0,-2.124222741E-2,-1.082636416E-2,-1.306579728E-2,2.718745013E-2
2.791635994E0,-2.857261151E-2,-1.204809546E-2,-1.550925709E-2,3.467113769E-2
2.793635727E0,-3.345953301E-2,-1.510242186E-2,-2.161790989E-2,4.260231829E-2
2.795635460E0,-3.773558885E-2,-1.632415131E-2,-2.100704610E-2,4.617086276E-2
2.797635193E0,-4.201164469E-2,-2.182194032E-2,-2.528310195E-2,5.366945698E-2
2.799634926E0,-4.689856619E-2,-2.121107467E-2,-2.345050685E-2,5.656245637E-2
2.801634659E0,-4.995289445E-2,-2.304366790E-2,-2.283964120E-2,5.956468336E-2
2.803633525E0,-4.995289445E-2,-2.304366790E-2,-2.283964120E-2,5.956468336E-2
2.805633325E0,-5.239635333E-2,-2.304366790E-2,-1.978531480E-2,6.056275386E-2
2.807633058E0,-5.239635333E-2,-2.548713051E-2,-1.978531480E-2,6.153397717E-2
2.809632058E0,-5.361808836E-2,-2.365453541E-2,-1.917444915E-2,6.166113805E-2
2.811631791E0,-5.300722271E-2,-2.793059126E-2,-1.734185405E-2,6.237486264E-2
2.813631524E0,-5.056376010E-2,-2.609799616E-2,-1.856358349E-2,5.985320268E-2
2.815631257E0,-4.812030122E-2,-2.548713051E-2,-1.489839237E-2,5.645457737E-2
2.817630990E0,-4.262251407E-2,-2.854145691E-2,-1.612012275E-2,5.376943207E-2
2.819630790E0,-4.445510730E-2,-2.793059126E-2,-1.062233560E-2,5.356499329E-2
2.821630523E0,-3.468126431E-2,-2.548713051E-2,-1.062233560E-2,4.433077858E-2
2.823630256E0,-3.407039493E-2,-2.121107467E-2,-9.400605224E-3,4.121981172E-2
2.825629989E0,-3.040520661E-2,-2.060020901E-2,-7.568009198E-3,3.749826614E-2
2.827629722E0,-2.612915076E-2,-1.876761205E-2,-3.902818076E-3,3.240660073E-2
2.829629588E0,-1.879876666E-2,-1.632415131E-2,-3.291952889E-3,2.511391044E-2
2.831629321E0,-1.696617156E-2,-1.388069056E-2,-2.681087470E-3,2.208422011E-2
2.833629054E0,-1.269011479E-2,-1.143722981E-2,-1.459356979E-3,1.714581471E-2
2.835628854E0,-7.192327641E-3,-9.604634717E-3,9.841038845E-4,1.203939556E-2
2.837628587E0,-5.970596801E-3,-6.550308317E-3,1.594969188E-3,9.005470111E-3
2.839628320E0,1.970651327E-3,-2.885116497E-3,5.260160659E-3,6.314796434E-3
2.841628053E0,4.414112307E-3,1.692096703E-4,8.925352246E-3,9.958661159E-3
2.843627619E0,8.690169081E-3,7.800749154E-4,9.536217898E-3,1.292544031E-2
2.845627352E0,1.296622586E-2,6.277862005E-3,1.075794827E-2,1.797965559E-2
2.847627085E0,1.663141698E-2,1.360824518E-2,1.197967771E-2,2.460286661E-2
2.849626818E0,2.029660717E-2,1.299738046E-2,1.320140809E-2,2.748019899E-2
2.851626618E0,2.396179922E-2,2.093862742E-2,1.259054337E-2,3.422156809E-2
2.853626351E0,2.762699127E-2,2.704728208E-2,1.136881392E-2,4.029957872E-2
2.855626084E0,2.884872258E-2,2.826900966E-2,1.136881392E-2,4.195992888E-2
2.857625817E0,3.251391277E-2,3.682112321E-2,7.092756219E-3,4.963120821E-2
2.859625550E0,3.434650972E-2,4.415150732E-2,7.092756219E-3,5.638568541E-2
2.861625283E0,4.045516253E-2,5.514708161E-2,2.816699678E-3,6.845257177E-2
2.863625949E0,4.045516253E-2,5.514708161E-2,2.816699678E-3,6.845257177E-2
2.865625682E0,3.984429687E-2,6.125573441E-2,-2.376265766E-4,7.307454727E-2
2.867625482E0,4.045516253E-2,6.369919330E-2,-8.484918508E-4,7.546474237E-2
2.869625948E0,4.228775948E-2,7.041871548E-2,3.732386394E-4,8.214127707E-2
2.871625681E0,4.228775948E-2,7.164043933E-2,-1.459356979E-3,8.320298596E-2
2.873625314E0,4.045516253E-2,7.408390939E-2,-1.459356979E-3,8.442260082E-2
2.875625047E0,4.350948706E-2,7.347303629E-2,-2.376265766E-4,8.538980614E-2
2.877624780E0,4.167689011E-2,7.286217809E-2,2.816699678E-3,8.398686779E-2
2.879624513E0,4.350948706E-2,7.713823020E-2,5.260160659E-3,8.871894563E-2
2.881624313E0,4.228775948E-2,7.469476759E-2,6.481891032E-3,8.607890461E-2
2.883624646E0,3.984429687E-2,7.469476759E-2,8.925352246E-3,8.512660108E-2
2.885624379E0,3.984429687E-2,7.652736455E-2,8.925352246E-3,8.673907673E-2
2.887624112E0,4.045516253E-2,7.408390939E-2,8.314486593E-3,8.481849146E-2
2.889623845E0,4.167689011E-2,7.958168536E-2,9.536217898E-3,9.033906833E-2
2.891623578E0,4.167689011E-2,8.446861058E-2,7.092756219E-3,9.445748532E-2
2.893623311E0,4.045516253E-2,8.263601363E-2,8.314486593E-3,9.238214985E-2
2.895623044E0,4.350948706E-2,8.813380450E-2,5.871025845E-3,9.846375935E-2
2.897622844E0,4.167689011E-2,9.057725966E-2,8.314486593E-3,1.000516558E-1
2.899622577E0,4.289862514E-2,9.302072972E-2,5.260160659E-3,1.025710363E-1
2.901622310E0,4.473122209E-2,9.851851314E-2,6.481891032E-3,1.083918566E-1
2.903622443E0,4.473122209E-2,9.851851314E-2,6.481891032E-3,1.083918566E-1
2.905622176E0,4.228775948E-2,9.912937880E-2,5.871025845E-3,1.079321884E-1
2.907621909E0,4.167689011E-2,1.003511101E-1,5.260160659E-3,1.087886840E-1
2.909621642E0,4.167689011E-2,1.015728414E-1,6.481891032E-3,1.099819085E-1
2.911621375E0,4.167689011E-2,1.027945727E-1,7.703621406E-3,1.111891772E-1
2.913621175E0,4.106602818E-2,1.040163040E-1,8.314486593E-3,1.121380438E-1
2.915620941E0,4.106602818E-2,1.052380279E-1,9.536217898E-3,1.133684287E-1
2.917620707E0,4.167689011E-2,1.040163040E-1,1.014708262E-2,1.125136345E-1
2.919620473E0,3.862256557E-2,1.027945727E-1,1.136881392E-2,1.103978110E-1
2.921620239E0,3.678996861E-2,1.015728414E-1,1.136881392E-2,1.086268559E-1
2.923620039E0,3.678996861E-2,1.003511101E-1,1.136881392E-2,1.074853340E-1
2.925619805E0,3.190304711E-2,9.546418488E-2,1.320140809E-2,1.015159701E-1
2.927619571E0,3.129218146E-2,9.729678184E-2,1.075794827E-2,1.027696348E-1
2.929619404E0,3.007045202E-2,9.668592364E-2,1.136881392E-2,1.018903815E-1
2.931619170E0,2.640526183E-2,9.546418488E-2,1.136881392E-2,9.969903900E-2
2.933619036E0,2.396179922E-2,9.485332668E-2,1.136881392E-2,9.849147848E-2
2.935618802E0,1.968574338E-2,8.935553581E-2,1.259054337E-2,9.236050051E-2
2.937618568E0,1.479882188E-2,8.874467015E-2,1.442313939E-2,9.111887049E-2
2.939618334E0,1.296622586E-2,8.263601363E-2,1.625573449E-2,8.521198663E-2
2.941618100E0,7.468438707E-3,7.469476759E-2,1.869919524E-2,7.736113873E-2
2.943617333E0,3.803246887E-3,7.347303629E-2,1.808833145E-2,7.576238831E-2
2.945617166E0,2.581516514E-3,7.164043933E-2,1.931006089E-2,7.424213916E-2
2.947616932E0,-1.694540144E-3,6.553179026E-2,1.747746393E-2,6.784356083E-2
2.949616698E0,-3.527135821E-3,6.003400311E-2,2.175352350E-2,6.395105942E-2
2.951616464E0,-5.970596801E-3,5.392535031E-2,2.297525294E-2,5.891904344E-2
2.953616230E0,-8.414058015E-3,4.781670123E-2,2.297525294E-2,5.371308534E-2
2.955615996E0,-1.269011479E-2,4.537323862E-2,2.419698425E-2,5.296474151E-2
2.957615762E0,-1.391184516E-2,4.354064167E-2,2.480784804E-2,5.200727100E-2
2.959615595E0,-1.452271082E-2,4.231891409E-2,2.358611859E-2,5.057770862E-2
2.961615428E0,-1.635530591E-2,4.170804471E-2,2.358611859E-2,5.062965549E-2
2.963614761E0,-1.696617156E-2,3.743198887E-2,2.419698425E-2,4.769170593E-2
2.965614527E0,-1.879876666E-2,4.048631713E-2,2.358611859E-2,5.048604255E-2
2.967614293E0,-1.879876666E-2,4.354064167E-2,2.114265598E-2,5.192487849E-2
2.969614059E0,-2.185309492E-2,4.720583186E-2,2.358611859E-2,5.711613878E-2
2.971613825E0,-2.063136362E-2,5.087102577E-2,2.541871369E-2,6.049483807E-2
2.973613591E0,-2.002049796E-2,5.697967857E-2,2.541871369E-2,6.552568286E-2
2.975613391E0,-2.063136362E-2,6.247746199E-2,2.297525294E-2,6.969181207E-2
2.977612857E0,-2.124222741E-2,6.858611852E-2,2.602957934E-2,7.637294599E-2
2.979612590E0,-2.063136362E-2,7.591649890E-2,2.725131065E-2,8.325624242E-2
2.981612323E0,-1.696617156E-2,7.897082716E-2,2.480784804E-2,8.449657889E-2
2.983612023E0,-1.818790287E-2,8.080342412E-2,2.297525294E-2,8.595263468E-2
2.985611756E0,-1.574444026E-2,8.324687928E-2,2.297525294E-2,8.778264382E-2
2.987611489E0,-1.574444026E-2,8.324687928E-2,2.419698425E-2,8.811029653E-2
2.989611222E0,-1.024665311E-2,8.385775238E-2,2.236438729E-2,8.739154624E-2
2.991611022E0,-9.635788389E-3,8.507947624E-2,2.114265598E-2,8.819511096E-2
2.993610755E0,-5.970596801E-3,8.263601363E-2,2.114265598E-2,8.550655341E-2
2.995610488E0,-4.748866428E-3,7.774908841E-2,2.114265598E-2,8.071235582E-2
2.997610221E0,-1.083674957E-3,7.897082716E-2,1.931006089E-2,8.130463914E-2
2.999609954E0,-4.728097119E-4,6.858611852E-2,1.869919524E-2,7.109106206E-2
3.001609687E0,5.635842681E-3,6.369919330E-2,1.869919524E-2,6.662589476E-2
3.003610153E0,4.414112307E-3,5.820140988E-2,1.808833145E-2,6.110708824E-2
3.005609886E0,5.024977494E-3,5.514708161E-2,1.564487070E-2,5.754314024E-2
3.007609686E0,7.468438707E-3,5.270362273E-2,1.625573449E-2,5.565697018E-2
3.009609419E0,5.024977494E-3,4.231891409E-2,1.442313939E-2,4.499075281E-2
3.011609152E0,6.246707868E-3,3.804285452E-2,1.259054337E-2,4.055615763E-2
3.013608885E0,7.468438707E-3,3.376679868E-2,1.320140809E-2,3.701690756E-2
3.015608618E0,6.246707868E-3,2.765814587E-2,1.320140809E-2,3.127733313E-2
3.017608351E0,6.857573055E-3,2.643641457E-2,1.442313939E-2,3.088587498E-2
3.019608084E0,4.414112307E-3,2.093862742E-2,1.381227374E-2,2.546938185E-2
3.021607817E0,2.581516514E-3,1.849516667E-2,1.686660014E-2,2.516381565E-2
3.023608183E0,1.970651327E-3,2.093862742E-2,1.442313939E-2,2.550169671E-2
3.025607916E0,-1.694540144E-3,2.093862742E-2,1.381227374E-2,2.514113145E-2
3.027607649E0,-1.694540144E-3,2.032776177E-2,1.625573449E-2,2.608329482E-2
3.029607382E0,-1.694540144E-3,1.910603233E-2,1.808833145E-2,2.636474297E-2
3.031607115E0,-2.916270634E-3,2.582555078E-2,1.992092654E-2,3.274609934E-2
3.033606848E0,-5.359731615E-3,2.216035873E-2,1.931006089E-2,2.987786260E-2
3.035606581E0,-8.414058015E-3,2.826900966E-2,2.053179219E-2,3.593727550E-2
3.037606647E0,-1.146838348E-2,2.826900966E-2,2.358611859E-2,3.856119445E-2
3.039606447E0,-1.024665311E-2,2.704728208E-2,2.175352350E-2,3.619067770E-2
3.041606180E0,-1.513357554E-2,3.132333606E-2,2.480784804E-2,4.272710867E-2
3.043605780E0,-1.635530591E-2,3.315593302E-2,2.602957934E-2,4.521449908E-2
3.045605513E0,-1.757703535E-2,3.376679868E-2,2.725131065E-2,4.681647997E-2
3.047605246E0,-1.757703535E-2,3.132333606E-2,2.725131065E-2,4.508589010E-2
3.049604979E0,-2.063136362E-2,3.437766433E-2,2.847304009E-2,4.917510530E-2
3.051604712E0,-2.002049796E-2,3.743198887E-2,2.602957934E-2,4.979470986E-2
3.053604512E0,-2.124222741E-2,3.559939563E-2,2.602957934E-2,4.894985388E-2
3.055604312E0,-1.940963231E-2,3.376679868E-2,2.480784804E-2,4.617748199E-2
3.057604045E0,-2.063136362E-2,3.437766433E-2,2.602957934E-2,4.780184065E-2
3.059603778E0,-1.696617156E-2,3.315593302E-2,2.114265598E-2,4.282731341E-2
3.061603511E0,-1.635530591E-2,2.765814587E-2,2.053179219E-2,3.813166080E-2
3.063602811E0,-1.696617156E-2,2.521468513E-2,1.808833145E-2,3.536692039E-2
3.065602544E0,-1.574444026E-2,1.849516667E-2,1.564487070E-2,2.889153109E-2
3.067602277E0,-1.269011479E-2,1.177564915E-2,1.197967771E-2,2.105273390E-2
3.069602077E0,-1.452271082E-2,9.943053126E-3,1.136881392E-2,2.095288441E-2
3.071601810E0,-1.269011479E-2,5.666996818E-3,8.925352246E-3,1.651713592E-2
3.073601543E0,-1.207924914E-2,2.612670651E-3,7.703621406E-3,1.456296983E-2
3.075601276E0,-1.207924914E-2,2.001805231E-3,6.481891032E-3,1.385389459E-2
3.077601009E0,-1.024665311E-2,-1.663386123E-3,7.703621406E-3,1.292696933E-2
3.079600742E0,-8.414058015E-3,-4.416555748E-4,7.092756219E-3,1.101356539E-2
3.081600475E0,-6.581462454E-3,-9.604634717E-3,6.481891032E-3,1.332589837E-2
3.083600041E0,-1.694540144E-3,-7.772038691E-3,6.481891032E-3,1.026113849E-2
3.085600374E0,-1.083674957E-3,-1.143722981E-2,7.092756219E-3,1.350154687E-2
3.088135374E0,3.192381933E-3,-1.510242186E-2,4.038430285E-3,1.595566883E-2
3.090135107E0,3.803246887E-3,-1.388069056E-2,5.871025845E-3,1.554371905E-2
3.092134840E0,1.113362983E-2,-1.632415131E-2,5.260160659E-3,2.044761402E-2
3.094134573E0,1.296622586E-2,-1.571328565E-2,4.038430285E-3,2.076870911E-2
3.096134306E0,1.663141698E-2,-1.510242186E-2,7.092756219E-3,2.355831844E-2
3.098134039E0,1.968574338E-2,-1.754588261E-2,8.925352246E-3,2.783969112E-2
3.100133772E0,2.274006978E-2,-1.632415131E-2,7.092756219E-3,2.887725541E-2
3.102133572E0,2.579439618E-2,-1.082636416E-2,8.314486593E-3,2.918375785E-2
3.104132505E0,2.884872258E-2,-1.204809546E-2,5.871025845E-3,3.180997238E-2
3.106132238E0,3.068131767E-2,-7.772038691E-3,8.314486593E-3,3.272428039E-2
3.108131971E0,3.129218146E-2,-5.328577477E-3,4.649295472E-3,3.208130775E-2
3.110131704E0,3.740083799E-2,-4.106846638E-3,4.038430285E-3,3.784174666E-2
3.112131437E0,3.740083799E-2,-1.052520820E-3,2.205834491E-3,3.748061083E-2
3.114131170E0,3.801169991E-2,-1.663386123E-3,-8.484918508E-4,3.805753700E-2
3.116130903E0,3.862256557E-2,-1.052520820E-3,-2.070222283E-3,3.869232729E-2
3.118130703E0,3.740083799E-2,1.692096703E-4,-8.484918508E-4,3.741084405E-2
3.120130469E0,3.923343122E-2,5.056131631E-3,-3.291952889E-3,3.969462868E-2
3.122130235E0,4.106602818E-2,7.800749154E-4,-3.902818076E-3,4.125844369E-2
3.124130135E0,3.862256557E-2,1.390940160E-3,-3.902818076E-3,3.884416654E-2
3.126129901E0,3.923343122E-2,1.692096703E-4,-5.124548450E-3,3.956705390E-2
3.128129667E0,3.740083799E-2,1.390940160E-3,-2.070222283E-3,3.748390611E-2
3.130129433E0,3.740083799E-2,5.056131631E-3,-3.291952889E-3,3.788435169E-2
3.132129266E0,3.556824103E-2,6.277862005E-3,-1.459356979E-3,3.614749015E-2
3.134129099E0,3.434650972E-2,6.888727192E-3,9.841038845E-4,3.504433981E-2
3.136128899E0,3.312477842E-2,1.116478443E-2,9.841038845E-4,3.496958417E-2
3.138128699E0,3.434650972E-2,9.332188405E-3,2.816699678E-3,3.570302883E-2
3.140128499E0,3.007045202E-2,1.482997555E-2,2.816699678E-3,3.364660543E-2
3.142128299E0,2.884872258E-2,1.421911083E-2,3.427564865E-3,3.234470757E-2
3.144127165E0,2.823785506E-2,1.788430288E-2,4.649295472E-3,3.374671386E-2
3.146126431E0,2.579439618E-2,2.154949307E-2,7.092756219E-3,3.435169161E-2
3.148126297E0,2.640526183E-2,2.216035873E-2,7.703621406E-3,3.532230363E-2
3.150126163E0,2.640526183E-2,2.949074097E-2,1.014708262E-2,4.086447040E-2
3.152126029E0,2.640526183E-2,3.193420172E-2,1.197967771E-2,4.313402102E-2
3.154125895E0,2.518353052E-2,3.132333606E-2,1.442313939E-2,4.270115387E-2
3.156125761E0,2.579439618E-2,3.010160662E-2,1.381227374E-2,4.197900072E-2
3.158125627E0,2.701612748E-2,3.254506737E-2,1.503400411E-2,4.488957378E-2
3.160125493E0,2.945958637E-2,3.193420172E-2,1.442313939E-2,4.577867864E-2
3.162125359E0,3.129218146E-2,2.949074097E-2,1.442313939E-2,4.535340531E-2
3.164126559E0,3.007045202E-2,2.887987718E-2,1.625573449E-2,4.474961781E-2
3.166126425E0,3.007045202E-2,2.643641457E-2,1.747746393E-2,4.368727327E-2
3.168126291E0,3.190304711E-2,2.032776177E-2,1.503400411E-2,4.070680033E-2
