"Time (s)","Linear Acceleration x (m/s^2)","Linear Acceleration y (m/s^2)","Linear Acceleration z (m/s^2)","Absolute acceleration (m/s^2)"
0.000000000E0,-7.082223892E-4,1.795753837E-3,7.974433899E-2,7.976769968E-2
1.000000000E-2,-4.697293043E-4,1.764237881E-3,7.974720001E-2,7.976809569E-2
2.000000000E-2,1.829376072E-2,-6.667971611E-4,7.016658783E-2,7.251521459E-2
3.000000000E-2,1.490652561E-3,-4.615545273E-3,6.054973602E-2,6.074368968E-2
4.000000000E-2,8.053623140E-3,1.037260890E-2,5.813598633E-2,5.960071113E-2
5.000000000E-2,-6.041623652E-3,1.767566800E-2,8.207893372E-2,8.417768003E-2
6.000000000E-2,-4.388839006E-3,1.284749806E-2,1.037282944E-1,1.046129971E-1
7.000000000E-2,-2.340290546E-1,-6.377777457E-2,3.908538818E-2,2.456926342E-1
8.000175000E-2,1.501475424E-1,2.229870856E-2,9.193801880E-2,1.774658169E-1
9.000175000E-2,2.409170568E-2,-2.327397466E-3,5.822658539E-2,6.305681809E-2
1.000017500E-1,2.663605660E-2,1.680409908E-2,7.259464264E-2,7.913178500E-2
1.100017500E-1,1.632187515E-2,-1.384598017E-2,6.777286530E-2,7.107232968E-2
1.200017500E-1,1.412235200E-2,1.961012185E-2,8.214092255E-2,8.562201155E-2
1.300017500E-1,1.433198154E-2,3.323704004E-4,9.172248840E-2,9.283604388E-2
1.400017500E-1,-9.676590562E-4,1.445139945E-2,1.060419083E-1,1.070264716E-1
1.500017500E-1,-7.954284549E-3,7.090762258E-3,7.971191406E-2,8.042100967E-2
1.600017500E-1,4.038952291E-3,1.187093556E-2,7.731723785E-2,7.832743782E-2
1.700017500E-1,-1.274057478E-2,-5.015254021E-3,5.337619781E-2,5.510438741E-2
1.800017500E-1,-8.065626025E-4,-1.233491302E-2,6.295585632E-2,6.415793379E-2
1.900025390E-1,1.608371735E-3,1.380868256E-2,6.056690216E-2,6.214190383E-2
2.000025390E-1,-3.043845296E-3,1.129230857E-2,7.493686676E-2,7.584401906E-2
2.100025390E-1,1.852462441E-2,6.425052881E-3,7.972812653E-2,8.210369768E-2
2.200025390E-1,3.543245420E-2,6.286978722E-3,7.973194122E-2,8.747666754E-2
2.300025390E-1,-8.737442493E-1,-1.382476538E-1,-4.237651825E-2,8.856281366E-1
2.400025390E-1,5.283786356E-2,5.616757274E-2,3.104782104E-2,8.313003816E-2
2.500025390E-1,4.514233768E-2,4.819507897E-2,3.104782104E-2,7.296960655E-2
2.600025390E-1,1.036487222E-1,3.094342351E-2,6.895351410E-2,1.282775903E-1
2.700025390E-1,4.880763590E-2,-1.192829013E-2,9.748077393E-2,1.096675463E-1
2.800025390E-1,7.205320150E-2,-5.099311471E-3,4.462909698E-2,8.490832186E-2
2.900025390E-1,6.586727500E-2,1.262874901E-2,6.597900391E-2,9.408088102E-2
3.000025390E-1,8.036630601E-2,-5.582168698E-3,4.192543030E-2,9.081654835E-2
3.100025390E-1,4.062385112E-2,1.912486553E-2,8.960914612E-2,1.002290219E-1
3.200025390E-1,3.363684565E-2,-4.989013076E-3,5.844879150E-2,6.762092032E-2
3.300030050E-1,3.126624972E-2,1.420266926E-2,5.844879150E-2,6.779052599E-2
3.400030050E-1,3.377771378E-2,3.349334002E-3,6.075763702E-2,6.959628182E-2
3.500030050E-1,2.624415606E-2,1.248793304E-2,7.504844666E-2,8.047964677E-2
3.600030050E-1,2.389142662E-2,-4.338636994E-3,7.983970642E-2,8.345060071E-2
3.700030050E-1,2.361056954E-2,1.676835120E-2,7.258892059E-2,7.815233834E-2
3.800025380E-1,1.651372015E-2,-2.263844013E-3,7.019329071E-2,7.214517312E-2
3.900025380E-1,3.002251685E-2,1.768186688E-2,7.975101471E-2,8.703001943E-2
4.000025380E-1,8.487850428E-3,1.522700489E-2,6.538581848E-2,6.766986435E-2
4.100025380E-1,9.734958410E-3,1.528908312E-2,7.980442047E-2,8.183685603E-2
4.200025380E-1,9.759031236E-3,-1.591379941E-2,5.107498169E-2,5.437960515E-2
4.300025380E-1,2.288632095E-3,-1.065325737E-2,6.533241272E-2,6.623483888E-2
4.400030380E-1,1.194559783E-2,-1.096025109E-3,8.209323883E-2,8.296504348E-2
4.500030380E-1,-2.377361059E-3,-8.275285363E-3,7.012176514E-2,7.064838384E-2
4.600030380E-1,4.827842116E-3,1.338705420E-3,6.293773651E-2,6.313682657E-2
4.700030380E-1,7.365085185E-3,-5.778968334E-3,6.533241272E-2,6.599973566E-2
4.800030380E-1,-7.655680180E-3,-1.877374947E-2,6.282997131E-2,6.602021208E-2
4.900025380E-1,-4.217155278E-3,2.910426259E-2,6.275367737E-2,6.930271656E-2
5.000025380E-1,2.154093981E-2,1.712530851E-2,6.524848938E-2,7.081421923E-2
5.100025380E-1,1.029617339E-2,5.722805858E-3,7.009696960E-2,7.107986242E-2
5.200025380E-1,5.601614714E-3,2.000844479E-2,7.009983063E-2,7.311430916E-2
5.300025380E-1,-1.118557155E-2,-1.589940488E-2,5.333900452E-2,5.677109731E-2
5.400025380E-1,-4.021383822E-3,1.532992721E-2,4.615402222E-2,4.879930289E-2
5.500025380E-1,-1.934120804E-2,3.211006522E-3,6.069850922E-2,6.378637717E-2
5.600025380E-1,-9.734794497E-3,-6.302073598E-3,5.111980438E-2,5.241866801E-2
5.700025380E-1,5.116000772E-3,-2.371028066E-3,6.781387329E-2,6.804789966E-2
5.800030040E-1,4.127025604E-4,-9.616762400E-3,7.020950317E-2,7.086625980E-2
5.900030040E-1,1.108625531E-2,1.161602139E-2,6.770420074E-2,6.958229522E-2
6.000030040E-1,2.070678025E-2,2.042576671E-3,5.094528198E-2,5.503057899E-2
6.100030040E-1,-1.206355542E-2,-4.141628742E-4,7.490921021E-2,7.587549455E-2
6.200030040E-1,-2.407153696E-2,-9.628400207E-3,7.254600525E-2,7.703939161E-2
6.300025370E-1,-4.818633199E-3,2.334371209E-3,7.254695892E-2,7.274427650E-2
6.400025370E-1,4.787288606E-3,-4.784539342E-3,6.775760651E-2,6.809481029E-2
6.500025370E-1,-2.427369356E-3,5.361437798E-5,6.775665283E-2,6.780014011E-2
6.600025370E-1,1.379741728E-2,1.937949657E-2,6.281948090E-2,6.717306597E-2
6.700025370E-1,1.068392396E-2,2.202907205E-2,7.013034821E-2,7.428116845E-2
6.800030030E-1,-3.583572805E-3,2.202013135E-2,6.294727325E-2,6.678388570E-2
6.900035030E-1,-4.713803530E-3,-1.483835280E-2,5.109882355E-2,5.341803465E-2
7.000035030E-1,-1.658778638E-2,-1.005882025E-2,5.349254608E-2,5.690155541E-2
7.100035030E-1,-2.208344638E-3,-1.011942327E-2,8.222579956E-2,8.287557919E-2
7.200035030E-1,-1.764662564E-3,9.370893240E-3,8.452701569E-2,8.506317684E-2
7.300035030E-1,1.969693601E-2,2.180561423E-3,6.297779083E-2,6.602216502E-2
7.400030030E-1,5.415134132E-3,1.180917025E-2,7.015991211E-2,7.135259944E-2
7.500030030E-1,5.386754870E-3,-4.136562347E-5,6.058025360E-2,6.081928942E-2
7.600030030E-1,5.411595106E-3,-1.183152199E-4,6.058216095E-2,6.082349534E-2
7.700030030E-1,7.731616497E-3,4.716500640E-3,4.621410370E-2,4.709316991E-2
7.800030030E-1,-6.661236286E-3,2.328723669E-3,5.818462372E-2,5.861096706E-2
7.900030030E-1,2.954959869E-3,-9.595468640E-3,7.973384857E-2,8.036349553E-2
8.000030030E-1,5.124539137E-3,-4.177421331E-3,5.571842194E-2,5.610930666E-2
8.100030030E-1,-6.804145873E-3,6.146728992E-4,7.008361816E-2,7.041582037E-2
8.200030030E-1,7.599622011E-3,-1.917302608E-3,6.290340424E-2,6.338981439E-2
8.300034690E-1,1.007669419E-2,-1.866281033E-3,7.248115540E-2,7.320205365E-2
8.400034690E-1,1.166217029E-3,2.595663071E-3,6.997394562E-2,7.003178274E-2
8.500034690E-1,7.400467992E-3,-7.771119475E-3,5.334949493E-2,5.441806533E-2
8.600034690E-1,-1.822337508E-3,6.099492311E-3,7.718086243E-2,7.744294833E-2
8.700034690E-1,6.525814533E-4,3.685697913E-3,7.239341736E-2,7.249011732E-2
8.800030020E-1,-1.123318821E-2,6.087064743E-3,7.718181610E-2,7.823215203E-2
8.900030020E-1,-1.119235903E-2,6.020277739E-3,7.718372345E-2,7.822301330E-2
9.000030020E-1,8.997462690E-3,8.592426777E-3,5.095863342E-2,5.245537583E-2
9.100030020E-1,4.222087562E-3,-3.324806690E-3,5.813884735E-2,5.838669313E-2
9.200030020E-1,-1.344662160E-2,1.196096838E-2,7.004833221E-2,7.232319989E-2
9.300030020E-1,-6.233908236E-3,-9.523123503E-3,7.723045349E-2,7.806468113E-2
9.400035020E-1,-3.740973771E-3,2.158854902E-2,7.247734070E-2,7.571674351E-2
9.500035020E-1,-8.560575545E-3,2.484321594E-3,8.444786072E-2,8.491699763E-2
9.600035020E-1,-2.528202534E-2,2.646192908E-3,9.162616730E-2,9.508700056E-2
9.700035020E-1,-8.074305952E-3,-4.634276032E-3,5.341529846E-2,5.422052232E-2
9.800030350E-1,-8.091919124E-3,-2.135723829E-3,5.820083618E-2,5.879947112E-2
9.900025350E-1,1.460179687E-3,1.721008122E-2,4.143714905E-2,4.489272036E-2
1.000002535E0,4.096495360E-2,-5.402265489E-2,2.959060669E-2,7.397417569E-2
1.010002535E0,-1.863545924E-2,2.699044347E-2,3.890514374E-2,5.088589774E-2
1.020002535E0,2.470130101E-2,-4.024772346E-2,3.412342072E-2,5.826183448E-2
1.030002535E0,-1.116771996E-2,3.899690509E-2,3.411865234E-2,5.300527345E-2
1.040002535E0,3.044553101E-3,-3.785267472E-2,4.848670959E-2,6.158778527E-2
1.050002535E0,5.479305983E-3,6.181001663E-4,8.200359344E-2,8.218877162E-2
1.060002535E0,-1.600734890E-3,-3.923371434E-3,9.636497498E-2,9.645809244E-2
1.070002535E0,2.710026875E-2,1.528106630E-2,5.566120148E-2,6.376601684E-2
1.080003001E0,2.228260040E-2,1.312191784E-2,9.635829926E-2,9.976783472E-2
1.090003001E0,2.366371453E-3,-1.066739857E-2,1.254844666E-2,1.663900897E-2
1.100003001E0,-2.483403683E-2,2.317340672E-2,6.999778748E-2,7.780376865E-2
1.110003001E0,3.785453737E-3,-2.745082974E-2,3.409099579E-2,4.393260415E-2
1.120003001E0,-8.099928498E-3,6.191045046E-3,8.436870575E-2,8.498244754E-2
1.130002534E0,-2.003034204E-2,-3.268465400E-3,5.563545227E-2,5.922162627E-2
1.140002534E0,-2.429463714E-2,2.580776811E-2,6.281375885E-2,7.212377271E-2
1.150002534E0,-3.616672754E-2,-5.256444216E-3,6.760215759E-2,7.684864409E-2
1.160002534E0,-1.844526827E-2,6.684139371E-3,6.521606445E-2,6.810316221E-2
1.170002534E0,-1.746647805E-2,-2.913102508E-3,5.804061890E-2,6.068177209E-2
1.180002534E0,-1.648178697E-2,-5.300909281E-3,5.565452576E-2,5.828529127E-2
1.190003034E0,1.071204990E-2,-2.840608358E-3,5.087089539E-2,5.206404773E-2
1.200003034E0,-2.012401819E-4,1.889711618E-2,6.763553619E-2,7.022611518E-2
1.210003034E0,2.179533243E-2,2.119849622E-2,4.609203339E-2,5.521673931E-2
1.220003034E0,2.298802137E-4,1.400525868E-2,7.721805573E-2,7.847820236E-2
1.230003034E0,3.605461121E-2,-3.246858716E-3,3.652572632E-2,5.142573056E-2
1.240002534E0,2.133054286E-2,-5.883902311E-3,5.568218231E-2,5.991759168E-2
1.250002534E0,1.839884371E-2,1.317043602E-2,5.328559875E-2,5.789069761E-2
1.260002534E0,7.939480245E-3,-1.598373055E-3,7.004737854E-2,7.051400842E-2
1.270002534E0,-1.433049142E-2,-1.811057329E-3,7.004642487E-2,7.152023874E-2
1.280002534E0,-3.099352866E-2,5.737841129E-4,6.525897980E-2,7.224723172E-2
1.290002534E0,-1.413834840E-2,-1.900047064E-3,5.807781219E-2,5.980414153E-2
1.300002534E0,-1.416631788E-2,2.894699574E-3,4.610633850E-2,4.832037146E-2
1.310002534E0,2.794191241E-4,1.005765796E-2,7.005023956E-2,7.076913608E-2
1.320002534E0,-2.841299772E-2,1.728767157E-2,7.004928589E-2,7.754395193E-2
1.330003000E0,3.534197807E-3,-2.305388451E-3,7.006549835E-2,7.019244567E-2
1.340003000E0,9.099520743E-3,1.652045548E-2,6.289577484E-2,6.566281459E-2
1.350003000E0,1.958429813E-3,-4.910141230E-3,6.768417358E-2,6.789029598E-2
1.360003000E0,2.201579511E-3,-7.776334882E-3,6.530094147E-2,6.579917395E-2
1.370003000E0,2.856799588E-2,-5.317807198E-3,5.572319031E-2,6.284491547E-2
1.380002533E0,1.178715378E-2,-5.399361253E-3,6.290721893E-2,6.422934135E-2
1.390002533E0,1.615238935E-2,-4.104673862E-4,6.050491333E-2,6.262517626E-2
1.400002533E0,1.559954137E-2,2.058967948E-3,5.331611633E-2,5.558950711E-2
1.410002533E0,1.003678143E-2,2.158567309E-3,7.725143433E-2,7.793061337E-2
1.420002533E0,-1.947283000E-2,-2.601400018E-3,5.808925629E-2,6.132144883E-2
1.430002533E0,-2.472858131E-2,-2.404600382E-3,6.765937805E-2,7.207687753E-2
1.440003033E0,-7.872007787E-3,-1.199106872E-2,5.090045929E-2,5.288299341E-2
1.450003033E0,-5.205720663E-3,7.583141327E-3,6.286334991E-2,6.353270278E-2
1.460003033E0,-9.539961815E-3,5.421921611E-3,5.089187622E-2,5.206141729E-2
1.470003033E0,-1.668660343E-2,7.792562246E-3,7.244110107E-2,7.474543387E-2
1.480003033E0,5.461022258E-3,-6.688162684E-3,5.329322815E-2,5.398816954E-2
1.490002533E0,5.629062653E-3,-4.305794835E-3,6.526660919E-2,6.565025888E-2
1.500002533E0,3.318071365E-3,2.928167582E-3,7.484340668E-2,7.497412411E-2
1.510002533E0,3.301084042E-3,1.728336513E-2,6.047821045E-2,6.298591752E-2
1.520002533E0,1.290874183E-2,7.656186819E-3,6.526756287E-2,6.697094575E-2
1.530002533E0,5.749963224E-3,9.973153472E-3,6.048107147E-2,6.156692191E-2
1.540003033E0,7.314085960E-4,1.445975900E-2,7.964038849E-2,8.094572915E-2
1.550003033E0,7.956489921E-3,-6.970748305E-3,7.245445251E-2,7.322256997E-2
1.560003033E0,1.476924121E-2,-2.478405833E-3,7.006359100E-2,7.164621250E-2
1.570003033E0,-7.218472660E-3,2.201572061E-3,6.048583984E-2,6.095482006E-2
1.580003499E0,4.222355783E-3,2.595700324E-2,5.090999603E-2,5.730115183E-2
1.590003499E0,-7.654801011E-4,-7.915109396E-3,4.612636566E-2,4.680679999E-2
1.600003499E0,-8.036345243E-3,-6.254464388E-4,1.978683472E-2,2.136569344E-2
1.610003499E0,-5.673848093E-3,-1.254692674E-2,7.006549835E-2,7.140582597E-2
1.620003499E0,-1.754663885E-2,4.089593887E-3,7.485675812E-2,7.699443843E-2
1.630003032E0,-1.225060970E-2,-3.058001399E-3,9.161949158E-2,9.248545857E-2
1.640003032E0,-2.589233220E-3,1.667588949E-3,3.894901276E-2,3.907058454E-2
1.650003032E0,-9.495764971E-5,-1.263669133E-2,5.810165405E-2,5.946004699E-2
1.660003032E0,-4.857301712E-3,2.566497028E-2,7.007312775E-2,7.478320207E-2
1.670003032E0,7.207624614E-3,6.545171142E-3,6.289005280E-2,6.363920064E-2
1.680003032E0,-4.412464797E-3,-3.529474139E-3,4.614448547E-2,4.648914468E-2
1.690003532E0,7.645383477E-3,-1.013040543E-3,3.656482697E-2,3.736930171E-2
1.700003532E0,2.769976854E-3,3.768011928E-3,6.290149689E-2,6.307510600E-2
1.710003532E0,1.730418950E-2,-1.032114029E-3,7.248115540E-2,7.452528511E-2
1.720003532E0,-1.780159771E-3,-8.218109608E-3,4.614353180E-2,4.690343080E-2
1.730003532E0,3.047257662E-3,6.194770336E-3,5.332660675E-2,5.377162771E-2
1.740003032E0,-4.096679389E-3,3.847733140E-3,4.853725433E-2,4.886156865E-2
1.750003032E0,-8.912988007E-3,-3.328949213E-3,5.332469940E-2,5.416684248E-2
1.760003032E0,3.082439303E-3,-5.800515413E-3,5.811500549E-2,5.848505172E-2
1.770003032E0,7.847920060E-4,1.372933388E-3,5.093479156E-2,5.095933512E-2
1.780003032E0,2.927958965E-3,1.378865540E-2,5.810451508E-2,5.978992084E-2
1.790003032E0,3.029182553E-3,1.373592019E-2,5.810642242E-2,5.978467845E-2
1.800003032E0,-8.860781789E-3,6.533861160E-3,7.486724854E-2,7.567238399E-2
1.810003032E0,-6.426505744E-3,-5.504846573E-3,5.092716217E-2,5.162537321E-2
1.820003032E0,-3.891676664E-3,4.066661000E-3,5.332183838E-2,5.361810634E-2
1.830003498E0,-1.400239766E-3,1.363474131E-2,7.247829437E-2,7.376293105E-2
1.840002998E0,3.427922726E-3,8.893504739E-3,6.050491333E-2,6.125103769E-2
1.850002998E0,5.921497941E-3,-7.989704609E-3,4.374885559E-2,4.486492932E-2
1.860002998E0,8.400216699E-3,-5.658671260E-3,6.290531158E-2,6.371548027E-2
1.870002998E0,8.438378572E-4,-1.040039957E-2,6.050682068E-2,6.139996516E-2
1.880002531E0,1.755931228E-2,-8.274018764E-4,5.093002319E-2,5.387839367E-2
1.890002531E0,-4.473708570E-3,-5.314916372E-3,5.570793152E-2,5.613943390E-2
1.900002531E0,9.586155415E-3,-7.436648011E-3,6.527614594E-2,6.639407607E-2
1.910002531E0,-2.301901579E-3,2.191603184E-3,6.527519226E-2,6.535252558E-2
1.920002531E0,-6.990395486E-3,-7.323890924E-3,5.569839478E-2,5.661109598E-2
1.930002531E0,2.727739513E-3,-1.465380192E-4,7.006454468E-2,7.011777561E-2
1.940003031E0,-4.641182721E-3,1.942266524E-2,7.484340668E-2,7.746170683E-2
1.950003031E0,-4.491142929E-3,9.822934866E-3,5.569076538E-2,5.672849163E-2
1.960003031E0,3.837719560E-4,2.647459507E-3,5.808448792E-2,5.814605798E-2
1.970003031E0,-1.915767789E-3,1.453888416E-2,5.808830261E-2,5.991076881E-2
1.980002664E0,-6.662368774E-3,1.675201952E-2,6.766986847E-2,7.003019645E-2
1.990002164E0,-1.775205135E-3,-1.012244821E-2,7.007598877E-2,7.082555692E-2
2.000002164E0,7.164329290E-4,2.578237653E-2,6.528854370E-2,7.019856234E-2
2.010002164E0,-1.580856740E-3,4.339307547E-3,5.331611633E-2,5.351576365E-2
2.020002164E0,-1.554891467E-3,1.390971243E-2,7.247066498E-2,7.380985754E-2
2.030002164E0,-1.514643431E-3,-1.249450445E-2,7.007789612E-2,7.119914543E-2
2.040002164E0,-1.381456852E-3,-1.154392958E-3,7.727622986E-2,7.729719754E-2
2.050002164E0,-3.752410412E-3,1.162514091E-3,5.572986603E-2,5.586814826E-2
2.060002164E0,-8.497536182E-3,-1.228123903E-3,6.291103363E-2,6.349420889E-2
2.070002164E0,-1.263515651E-2,-1.100379229E-2,5.813312531E-2,6.049951142E-2
2.080002630E0,-2.972304821E-3,-1.106657088E-2,6.531810760E-2,6.631559973E-2
2.090002630E0,-1.018670201E-2,-1.580528915E-2,5.813312531E-2,6.109857871E-2
2.100002630E0,-1.010297239E-2,-8.685782552E-3,6.531906128E-2,6.666402805E-2
2.110002630E0,1.684608310E-2,6.331682205E-3,7.249259949E-2,7.469309001E-2
2.120002630E0,-7.026776671E-3,1.540124416E-3,4.615497589E-2,4.671219726E-2
2.130002163E0,-1.139474660E-2,4.560738802E-3,6.529998779E-2,6.644342702E-2
2.140002163E0,-1.790896058E-3,-1.220560074E-2,6.529998779E-2,6.645504047E-2
2.150002163E0,-3.783926368E-3,-2.083078027E-3,6.768608093E-2,6.782376328E-2
2.160002163E0,6.143011153E-3,-1.611894369E-2,7.725811005E-2,7.916042256E-2
2.170002163E0,1.097110659E-2,-1.107588410E-3,4.372406006E-2,4.509307441E-2
2.180002163E0,-5.911625922E-3,1.786410809E-3,5.807685852E-2,5.840428135E-2
2.190002629E0,1.212373376E-3,-9.714826941E-3,5.567264557E-2,5.652690666E-2
2.200002629E0,2.040541917E-2,3.235191107E-4,6.523990631E-2,6.835737833E-2
2.210002629E0,-1.349727809E-2,1.014885306E-2,7.959747314E-2,8.136911862E-2
2.220002629E0,-3.951236606E-3,6.217211485E-4,4.847049713E-2,4.863525368E-2
2.230002629E0,-8.711144328E-3,7.868468761E-3,5.804538727E-2,5.922046791E-2
2.240002129E0,-8.614495397E-3,-4.112288356E-3,5.565261841E-2,5.646533788E-2
2.250002129E0,-1.091457903E-2,-8.981138468E-3,6.044387817E-2,6.207456236E-2
2.260002129E0,8.268244565E-3,7.842719555E-3,4.847145081E-2,4.979310857E-2
2.270002129E0,5.896374583E-3,1.745675504E-2,4.128742218E-2,4.521235185E-2
2.280002495E0,1.150518656E-3,1.027743518E-2,6.283569336E-2,6.368103114E-2
2.290002495E0,1.075042039E-2,6.225854158E-4,7.002067566E-2,7.084387180E-2
2.300002495E0,1.556719095E-2,1.037804782E-2,4.846858978E-2,5.195426360E-2
2.310002495E0,1.516099274E-2,-1.874059439E-2,5.086898804E-2,5.629138054E-2
2.320002495E0,1.280421764E-2,-4.397928715E-3,5.805206299E-2,5.960982959E-2
2.330002995E0,1.318638623E-1,2.206687629E-2,5.086135864E-2,1.430451083E-1
2.340002995E0,-1.028582379E-1,-9.336218238E-3,6.281852722E-2,1.208848603E-1
2.350002995E0,-1.942880452E-2,7.401898503E-3,6.999874115E-2,7.302116343E-2
2.360002995E0,6.938338280E-3,1.225477457E-2,6.520938873E-2,6.671270057E-2
2.370002995E0,-2.445606142E-2,-2.574846148E-3,5.324649811E-2,5.865081699E-2
2.380002528E0,-1.167189330E-2,-2.675491571E-2,5.325794220E-2,6.073275076E-2
2.390002528E0,-2.129367739E-2,9.155139327E-3,7.001686096E-2,7.375363104E-2
2.400002528E0,-4.422329366E-3,-7.674485445E-3,7.001972198E-2,7.057773155E-2
2.410002528E0,-1.630962640E-2,-1.241160929E-2,5.325984955E-2,5.706718437E-2
2.420002528E0,1.576581597E-2,7.256716490E-3,4.846763611E-2,5.148138146E-2
2.430002528E0,1.341065019E-2,-7.061734796E-3,6.762123108E-2,6.929895042E-2
2.440003028E0,8.648030460E-3,-7.068678737E-3,5.564975739E-2,5.675958198E-2
2.450003028E0,8.496955037E-3,-6.447896361E-3,5.563545227E-2,5.664871721E-2
2.459969694E0,6.069432199E-2,1.291999221E-2,5.801963806E-2,8.495295946E-2
2.469936360E0,-2.204894274E-2,-6.157606840E-3,7.716274261E-2,8.048702284E-2
2.479903026E0,1.297083497E-2,8.394837379E-3,6.039237976E-2,6.233743167E-2
2.489869226E0,2.933293581E-4,6.027236581E-3,6.517410278E-2,6.545286317E-2
2.499835892E0,-3.601626307E-2,-1.551119983E-2,5.798816681E-2,7.000282862E-2
2.509802558E0,-1.425536722E-2,6.443470716E-3,5.798053741E-2,6.005394682E-2
2.519769224E0,-2.858012915E-2,1.367402077E-2,5.558681488E-2,6.398200227E-2
2.529735890E0,-2.084008604E-2,1.584261656E-3,4.840946198E-2,5.272850349E-2
2.539702556E0,1.114229858E-2,2.061969042E-2,5.081367493E-2,5.595848470E-2
2.549669722E0,-1.718752831E-2,8.296296000E-3,7.237243652E-2,7.484657123E-2
2.559636388E0,-4.429854453E-3,1.506377757E-2,5.084037781E-2,5.320982072E-2
2.569603054E0,3.447265178E-2,7.440060377E-3,5.564308167E-2,6.587769544E-2
2.579569720E0,3.457195312E-2,7.501363754E-3,5.564308167E-2,6.593665853E-2
2.589536386E0,2.904238924E-2,2.119868994E-3,7.001399994E-2,7.582819004E-2
2.599503052E0,6.619304419E-3,8.927151561E-3,6.762218475E-2,6.852933019E-2
2.609469718E0,1.302520186E-2,3.754153848E-3,5.325889587E-2,5.495688805E-2
2.619436384E0,5.020409822E-3,-1.423537731E-3,5.565547943E-2,5.589958287E-2
2.629402550E0,1.868189126E-2,6.539672613E-4,6.523418427E-2,6.785970477E-2
2.639369216E0,1.284234226E-3,-1.901626587E-3,6.044483185E-2,6.048837193E-2
2.649335882E0,1.047431678E-2,2.879515290E-3,5.565357208E-2,5.670381826E-2
2.659302815E0,3.376328200E-2,1.718866825E-2,7.719802856E-2,8.599386689E-2
2.669269481E0,-1.300167441E-1,-9.399294853E-3,6.762027740E-2,1.468509531E-1
2.679236147E0,7.233369350E-2,3.378205001E-2,6.762695312E-2,1.046269320E-1
2.689202813E0,6.466321945E-1,4.811939001E-1,2.985954285E-3,8.060332998E-1
2.699169479E0,-2.693127841E-2,-3.429101408E-2,8.689308167E-2,9.721921129E-2
2.709136145E0,5.349668264E-1,8.692929149E-2,5.824756622E-2,5.451045644E-1
2.719102811E0,2.888674736E-1,-4.558406770E-2,5.831623077E-2,2.981997775E-1
2.729069477E0,1.973685026E-1,-5.139516294E-2,7.032203674E-2,2.157335798E-1
2.739035643E0,2.356896996E-1,-5.548964441E-2,5.836582184E-2,2.490688746E-1
2.749002309E0,4.150191247E-1,-2.960883081E-2,6.795024872E-2,4.215860447E-1
2.759002309E0,4.573605955E-1,-6.542880833E-2,4.881572723E-2,4.645886551E-1
2.769002309E0,2.788035870E-1,-1.050770432E-1,5.364418030E-2,3.027380438E-1
2.779002309E0,2.931052446E-1,-7.138057053E-2,7.997798920E-2,3.120934941E-1
2.789002309E0,-1.691121608E-3,-7.371389866E-2,6.800651550E-2,1.003069534E-1
2.799002809E0,-1.011327505E-1,-6.019234657E-2,9.194660187E-2,1.493490188E-1
2.809002809E0,-1.659370661E-1,2.756111324E-2,4.165458679E-2,1.732911696E-1
2.819002809E0,-8.386465907E-2,1.113809794E-1,4.643630981E-2,1.469535113E-1
2.829002809E0,-1.356152594E-1,3.015808761E-2,4.646396637E-2,1.464920100E-1
2.839002809E0,-6.472942233E-2,-1.415565610E-3,5.366516113E-2,8.409430100E-2
2.849002809E0,1.131060943E-1,-3.990629315E-2,7.042312622E-2,1.390860076E-1
2.859002809E0,2.194180787E-1,-5.138154328E-2,5.366516113E-2,2.316555757E-1
2.869002809E0,3.475934267E-2,-8.499933779E-2,4.169750214E-2,1.008552478E-1
2.879002809E0,1.423119158E-1,-8.982755244E-2,6.324958801E-2,1.797837060E-1
2.889002809E0,6.081325561E-2,-1.141041964E-1,8.001804352E-2,1.520556049E-1
2.899002809E0,-1.354933530E-2,-1.046657562E-1,4.889678955E-2,1.163159535E-1
2.909003075E0,-4.689966142E-2,-4.416972399E-3,5.847930908E-2,7.509272586E-2
2.919003075E0,-1.424886286E-3,6.039044261E-2,3.932189941E-2,7.207806624E-2
2.929003075E0,-3.737723455E-2,-4.257395864E-3,6.087112427E-2,7.155750730E-2
2.939003075E0,-3.763009235E-2,-4.423871636E-3,6.087684631E-2,7.170484578E-2
2.949003075E0,-4.509496689E-2,3.376555443E-2,7.997989655E-2,9.782868984E-2
2.959002808E0,-1.906514466E-1,6.314665079E-3,7.755184174E-2,2.059177924E-1
2.969002808E0,3.292408586E-2,3.331172466E-2,7.511329651E-2,8.851934106E-2
2.979002808E0,8.997060359E-2,-3.591991961E-2,3.917884827E-2,1.044984798E-1
2.989002808E0,1.597888172E-1,-4.971039295E-2,5.592250824E-2,1.764395539E-1
2.999002808E0,1.551346481E-1,-4.361011088E-2,7.506370544E-2,1.777727782E-1
3.009002808E0,4.325302690E-2,1.309625804E-2,4.154205322E-2,6.138467640E-2
3.019002808E0,7.300157100E-2,1.886321604E-2,4.155445099E-2,8.609194321E-2
3.029002808E0,3.054577857E-2,-2.433851361E-3,6.074142456E-2,6.803299845E-2
3.039002808E0,-2.105303109E-2,5.782683194E-2,8.231639862E-2,1.027772450E-1
3.049003308E0,1.178045720E-1,5.235368013E-2,1.206655502E-1,1.765757628E-1
3.059003308E0,1.522333622E-1,-3.520427644E-2,4.651355743E-2,1.630271409E-1
3.069003308E0,8.969917893E-2,-3.329811990E-2,1.306056976E-2,9.656752028E-2
3.079003308E0,-7.312776148E-2,-9.483374655E-2,7.056140900E-2,1.389964799E-1
3.089003308E0,2.874993682E-1,-9.328469634E-2,6.817150116E-2,3.098471798E-1
3.099002808E0,2.034489661E-1,-1.507938951E-1,3.947830200E-2,2.562982968E-1
3.109002808E0,-1.310557872E-1,-1.057822704E-1,1.089324951E-1,2.005786544E-1
3.119002808E0,-1.661602855E-1,-2.644763887E-2,7.535648346E-2,1.843564961E-1
3.129002808E0,-1.766992509E-1,7.823343575E-2,6.331157684E-2,2.033505631E-1
3.139002808E0,-1.914061606E-1,1.208126992E-1,-3.796577454E-3,2.263767669E-1
3.149002308E0,-3.448438644E-1,8.655382693E-2,7.277297974E-2,3.629115076E-1
3.159002574E0,-8.107662201E-3,1.065120697E-1,6.072139740E-2,1.228724675E-1
3.169002574E0,1.903334856E-1,4.119740427E-2,3.436660767E-2,1.977501595E-1
3.179002574E0,1.589282155E-1,-4.799354076E-2,7.989788055E-2,1.842423104E-1
3.189002574E0,-1.652282625E-1,-1.114345416E-1,8.472251892E-2,2.165547068E-1
3.199002574E0,-1.635428518E-1,-1.106398478E-1,8.468532562E-2,2.148465608E-1
3.209002307E0,1.582409739E-1,-1.106259599E-1,6.546783447E-2,2.038733582E-1
3.219002307E0,3.907044977E-2,-1.336147487E-1,3.668594360E-2,1.439627020E-1
3.229002307E0,2.037432045E-2,-6.900729239E-2,7.731246948E-2,1.056140960E-1
3.239002307E0,-9.869356453E-2,-3.326506913E-2,8.202743530E-2,1.325725637E-1
3.249002307E0,-3.452797532E-1,4.729080200E-2,1.394109726E-1,3.753530967E-1
3.259002307E0,-3.665418327E-1,1.232410222E-1,-6.898498535E-2,3.928106323E-1
3.269002307E0,-2.131286711E-1,1.106947064E-1,1.080951691E-1,2.633661217E-1
3.279002307E0,-1.807291806E-2,9.434124827E-2,4.098796844E-2,1.044361769E-1
3.289982806E0,9.366018325E-2,3.150980175E-2,3.857517242E-2,1.060808251E-1
3.299983306E0,5.583688617E-2,-4.562407732E-3,9.844017029E-2,1.132653546E-1
3.309983306E0,7.992241532E-2,-1.045556590E-1,2.184200287E-2,1.334037158E-1
3.319983306E0,1.108373702E-2,-3.551438451E-2,2.956390381E-4,3.720494773E-2
3.329983306E0,3.754386306E-2,2.045282722E-2,8.886528015E-2,9.861489650E-2
3.339983306E0,-6.317584217E-2,-1.982544363E-2,2.900028229E-2,7.228590195E-2
3.349982806E0,-2.949979305E-1,1.128661633E-2,6.251716614E-2,3.017607708E-1
3.359982806E0,-2.323560119E-1,7.598476112E-2,6.008434296E-2,2.517402003E-1
3.369982806E0,1.191354915E-2,5.320912600E-2,1.270999908E-1,1.383023912E-1
3.379982806E0,1.587118506E-1,4.210492969E-2,9.597396851E-2,1.901927424E-1
3.389982806E0,1.601576805E-1,-1.009541750E-2,5.290794373E-2,1.689723368E-1
3.399982806E0,6.253720820E-2,-4.751285911E-2,1.750593185E-1,1.918701102E-1
3.409983072E0,2.136591673E-1,-1.416800916E-2,2.184200287E-2,2.152395069E-1
3.419983072E0,1.059294790E-1,-1.906377077E-2,-1.404094696E-2,1.085432175E-1
3.429983072E0,-6.502377242E-2,-4.338353872E-3,1.511964798E-1,1.646429100E-1
3.439983072E0,1.663840115E-1,2.461555600E-2,2.910614014E-2,1.706948513E-1
3.449983072E0,3.100737631E-1,-6.844684482E-3,7.224750519E-2,3.184529640E-1
3.459982805E0,1.076022089E-1,-6.814330816E-3,1.561174393E-1,1.897296110E-1
3.469982805E0,-2.892196178E-3,-1.446552575E-2,2.684020996E-2,3.062699960E-2
3.479982805E0,-1.187629700E-1,2.331230044E-2,8.911132812E-2,1.502961583E-1
3.489982805E0,-3.521217406E-2,4.200194776E-2,6.039237976E-2,8.155550472E-2
3.499982805E0,4.354372621E-2,6.578144431E-2,1.969528198E-2,8.130903172E-2
3.509982805E0,6.189018488E-2,-2.212561667E-2,8.440685272E-2,1.069787581E-1
3.519982805E0,3.460161388E-3,-2.520000935E-2,7.487583160E-2,7.907846323E-2
3.529982805E0,1.016440243E-2,4.614946246E-2,1.299829483E-1,1.383063802E-1
3.539982805E0,-4.715476930E-2,5.733045936E-2,7.495307922E-2,1.054908428E-1
3.549983305E0,-1.176482737E-1,6.514872611E-2,9.415721893E-2,1.641677639E-1
3.559983305E0,-1.574417353E-1,1.061210632E-1,8.701229095E-2,2.088557369E-1
3.569983305E0,8.692554384E-2,1.432709396E-1,9.185409546E-2,1.911015101E-1
3.579983305E0,2.465780526E-1,1.811603904E-1,3.440952301E-2,3.079023195E-1
3.589983305E0,-3.452134132E-2,8.733288944E-2,3.303527832E-3,9.396632312E-2
3.599982805E0,-1.349891722E-2,1.493203044E-1,6.317138672E-2,1.626941860E-1
3.609982805E0,-2.992375493E-1,4.823692143E-2,2.488327026E-2,3.041201878E-1
3.619982805E0,-4.005625248E-1,-9.576290846E-3,1.015157700E-1,4.133370213E-1
3.629982805E0,-8.263020962E-2,4.289832711E-2,9.673786163E-2,1.342618035E-1
3.639982805E0,-9.031593055E-2,3.783756495E-2,8.159637451E-3,9.826102134E-2
3.649982805E0,-4.163811803E-1,4.250672460E-2,2.253341675E-2,4.191513614E-1
3.659983071E0,-2.375673652E-1,1.167959869E-1,5.606079102E-2,2.705963190E-1
3.669983071E0,-5.417046323E-2,9.272821248E-2,5.128479004E-2,1.190087819E-1
3.679983071E0,-2.083426118E-1,9.985400736E-2,1.279125214E-1,2.640815779E-1
3.689983071E0,9.704298526E-2,2.030456364E-1,2.496528625E-2,2.264246828E-1
3.699983071E0,6.490729749E-2,1.023689210E-1,9.680747986E-2,1.551258889E-1
3.709982804E0,1.389157027E-2,-5.670726299E-3,5.372524261E-2,5.578113082E-2
3.719982804E0,-2.832818329E-1,-8.224324882E-2,7.767009735E-2,3.050331013E-1
3.729982804E0,-2.221348882E-1,1.305957139E-2,5.135536194E-2,2.283677607E-1
3.739982804E0,-1.222895756E-1,8.195129037E-2,5.885124207E-3,1.473274889E-1
3.749982804E0,-2.119008601E-1,9.772458673E-2,9.690189362E-2,2.526698366E-1
3.759982804E0,-4.450700581E-1,1.235744208E-1,1.041059494E-1,4.734934454E-1
3.769982804E0,-1.513063610E-1,1.662501991E-1,1.793003082E-2,2.255088237E-1
3.779982804E0,-1.779277623E-1,1.323593408E-1,8.019447327E-2,2.358144127E-1
3.789982804E0,-1.377113461E-1,8.666332066E-2,1.316356659E-2,1.632428421E-1
3.799983304E0,-1.162987351E-1,-3.593234718E-2,6.824588776E-2,1.395493840E-1
3.809983304E0,-5.452957004E-2,-1.345207691E-1,8.262634277E-2,1.670222256E-1
3.819983304E0,-9.812051058E-2,-1.611562967E-1,3.954219818E-2,1.927759633E-1
3.829983304E0,-2.641454339E-1,-1.569656879E-1,3.956508636E-2,3.098006351E-1
3.839983304E0,-2.788672447E-1,-9.969463944E-2,1.952018738E-1,3.546966772E-1
3.849982804E0,-1.452195495E-1,2.719467878E-2,6.591701508E-2,1.617817079E-1
3.859982804E0,-2.245230526E-1,4.010647535E-4,1.284599304E-3,2.245270856E-1
3.869982804E0,-5.456388593E-1,2.646270394E-2,3.720855713E-2,5.475459033E-1
3.879982804E0,-3.952252269E-1,8.809113503E-2,8.990287781E-2,4.147837454E-1
3.889982804E0,-3.041530848E-1,6.142757833E-2,1.090631485E-1,3.289030506E-1
3.899982804E0,-5.036775023E-2,6.375090778E-2,8.512306213E-2,1.176733794E-1
3.909983070E0,2.864704281E-2,-3.448393941E-2,-3.463745117E-3,4.496434887E-2
3.919983070E0,-2.086683959E-1,-7.800991833E-2,1.402063370E-1,2.632220806E-1
3.929983070E0,-1.342674494E-1,5.993038416E-3,5.639934540E-2,1.457551050E-1
3.939983070E0,-9.645230323E-2,5.564299226E-2,6.599712372E-2,1.294403713E-1
3.949983070E0,-2.669055462E-1,4.579734802E-2,9.474086761E-2,2.869003305E-1
3.959982803E0,-2.676443458E-1,4.568159580E-2,9.475231171E-2,2.875731291E-1
3.969982803E0,-2.419390380E-1,1.054275930E-1,5.645465851E-2,2.698825744E-1
3.979982803E0,-1.729162931E-1,1.626490504E-1,9.956264496E-2,2.574247041E-1
3.989982803E0,-8.757463843E-2,7.381452620E-2,1.139450073E-1,1.615591727E-1
3.999982803E0,-7.170918584E-2,1.140321791E-2,1.163530350E-1,1.371505358E-1
4.009982803E0,-2.904691100E-1,-1.530884206E-2,-9.460449219E-4,2.908737862E-1
4.019982803E0,-8.031579107E-2,2.483884990E-2,9.484481812E-2,1.267404209E-1
4.029982803E0,1.496396959E-2,-4.440689087E-2,8.526992798E-2,9.729775414E-2
4.039982803E0,1.989014447E-3,-4.704739153E-2,4.458522797E-2,6.484794354E-2
4.049983303E0,-5.159917474E-2,-9.504739940E-2,8.530235291E-2,1.377424204E-1
4.059983303E0,1.999531686E-2,-9.983515739E-2,-3.680229187E-2,1.082648606E-1
4.069983303E0,-3.879141212E-1,-1.215759814E-1,5.180263519E-2,4.098067809E-1
4.079983303E0,-4.360843599E-1,-5.866903067E-2,9.488582611E-2,4.501276975E-1
4.089983303E0,3.603362292E-2,-6.503839791E-2,7.544803619E-2,1.059283784E-1
4.099982803E0,-6.407357007E-2,-1.931364387E-1,1.710042953E-1,2.657998784E-1
4.109982803E0,-1.630596668E-1,-2.513420880E-1,8.934688568E-2,3.126406341E-1
4.119982803E0,-2.234329730E-1,-1.101409793E-1,5.104541779E-2,2.542812683E-1
4.129982803E0,-1.993696094E-1,5.045966804E-2,6.779956818E-2,2.165437616E-1
4.139982803E0,-4.129509628E-1,3.097622097E-2,4.865741730E-2,4.169599120E-1
4.149982803E0,-4.679312706E-1,2.369962931E-1,9.654045105E-2,5.333357063E-1
4.159983069E0,-3.795344532E-1,3.399028480E-1,3.668498993E-2,5.108092948E-1
4.169983069E0,-1.281775534E-1,2.987655401E-1,7.260990143E-2,3.331103885E-1
4.179983069E0,-2.237929404E-1,1.787587255E-1,6.782722473E-2,2.943441770E-1
4.189983069E0,-3.557784259E-1,1.757235825E-1,8.220863342E-2,4.052349013E-1
4.199983069E0,-2.844451368E-1,2.589334249E-1,5.589008331E-2,3.886891506E-1
4.209982802E0,-3.157350421E-1,1.322441846E-1,4.391574860E-2,3.451169862E-1
4.219982802E0,-1.770761907E-1,1.201526523E-1,6.307411194E-2,2.230941074E-1
4.229982802E0,-3.165632486E-1,3.155826032E-2,7.265663147E-2,3.263237660E-1
4.239982802E0,-3.768174350E-1,2.410151064E-2,1.325235367E-1,4.001684020E-1
4.249982802E0,-4.677315354E-1,1.152157784E-4,1.133699417E-1,4.812749175E-1
4.259982802E0,-2.260987461E-1,1.365322769E-1,8.464145660E-2,2.773551546E-1
4.269982802E0,-1.690651774E-1,1.171079576E-1,1.229600906E-1,2.396173864E-1
4.279982802E0,-3.512204289E-1,9.334880114E-2,6.309986115E-2,3.688514347E-1
4.289982802E0,-1.312268376E-1,2.080924809E-1,3.676986694E-2,2.487468324E-1
4.299983302E0,-2.560476661E-1,1.836508065E-1,1.762962341E-2,3.155928226E-1
4.309983302E0,-3.951129913E-1,1.335275769E-1,6.072521210E-2,4.214634517E-1
4.319983302E0,-6.266102195E-2,2.174819112E-1,6.072521210E-2,2.343338148E-1
4.329983302E0,-5.613590777E-2,5.942320824E-2,-3.982734680E-2,9.093170718E-2
4.339983302E0,-1.908400655E-1,-1.011054218E-2,1.014432907E-1,2.163628778E-1
4.349982802E0,-4.954262972E-1,-6.264898181E-2,7.271385193E-2,5.046379050E-1
4.359982802E0,-2.351953238E-1,6.494075060E-3,2.005290985E-2,2.361379524E-1
4.369982802E0,-4.391073585E-1,-1.588251889E-1,6.315612793E-2,4.711999675E-1
4.379982802E0,-3.631106615E-1,-1.133574992E-1,9.189414978E-2,3.913359297E-1
4.389982802E0,-6.894633770E-1,-1.781845689E-1,7.035636902E-2,7.155833337E-1
4.399982802E0,-3.714784384E-1,-3.229852021E-2,5.360507965E-2,3.767133249E-1
4.409983068E0,-3.454325795E-1,1.119643450E-3,6.318759918E-2,3.511660480E-1
4.419983068E0,-2.594665587E-1,5.747720599E-3,6.798267365E-2,2.682863681E-1
4.429983068E0,-1.805986166E-1,-4.458209872E-2,6.080150604E-2,1.957044889E-1
4.439983068E0,-4.224054515E-1,-1.640416980E-1,6.558513641E-2,4.578618288E-1
4.449983068E0,-3.292763233E-1,-1.016184390E-1,6.318855286E-2,3.503455401E-1
4.459982801E0,-2.194441259E-1,-3.681603074E-2,6.079387665E-2,2.306665124E-1
4.469982801E0,-1.646999419E-1,-6.072463095E-2,6.079673767E-2,1.857681215E-1
4.479982801E0,-2.606531978E-1,-1.227668747E-1,6.318759918E-2,2.949651975E-1
4.489982801E0,-9.563730657E-2,-4.443506896E-2,5.800914764E-2,1.203579286E-1
4.499982801E0,-1.738636568E-2,-2.669993043E-2,8.647918701E-2,9.216193239E-2
4.509982801E0,-1.100006476E-1,-6.042206287E-2,3.364181519E-2,1.299335980E-1
4.519982801E0,-1.549274921E-1,-6.093798578E-2,6.703948975E-2,1.794721681E-1
4.529982801E0,-1.720944345E-1,-3.690478206E-2,1.436328888E-2,1.765920762E-1
4.539949467E0,-2.250663042E-1,-1.024454832E-3,8.140468597E-2,2.393378652E-1
4.549916133E0,-1.199655086E-1,9.711003304E-2,9.098243713E-2,1.791644095E-1
4.559882799E0,-9.129373729E-2,7.795074582E-2,5.267429352E-2,1.310932738E-1
4.569849465E0,-9.616304934E-2,5.871063471E-2,6.225299835E-2,1.287233720E-1
4.579816131E0,-2.062060237E-1,8.067291975E-2,7.182216644E-2,2.327820177E-1
4.589782797E0,2.839211002E-2,1.600705683E-1,6.463146210E-2,1.749454905E-1
4.599748963E0,5.933104828E-2,1.002036333E-1,6.463146210E-2,1.331847113E-1
4.609715629E0,-7.032262534E-2,2.090695500E-2,5.745506287E-2,9.318506667E-2
4.619682295E0,-8.462141454E-2,-2.457524836E-2,5.745506287E-2,1.051941580E-1
4.629648961E0,-6.829308718E-2,-8.218342066E-2,5.027580261E-2,1.180919841E-1
4.639615627E0,7.017765939E-2,-2.725625038E-2,6.943321228E-2,1.024147354E-1
4.649582293E0,-1.051087081E-1,-1.541592181E-2,5.028343201E-2,1.175326112E-1
4.659549426E0,-1.247046217E-1,-2.971330285E-2,4.070472717E-2,1.345027801E-1
4.669516092E0,-3.140349686E-1,2.074450254E-2,6.943225861E-2,3.222873476E-1
4.679482758E0,-3.477281630E-1,1.852785051E-2,3.351593018E-2,3.498306364E-1
4.689449424E0,-3.527008891E-1,7.813765109E-2,8.380126953E-2,3.708450653E-1
4.699416090E0,-1.829353571E-1,1.233783960E-1,7.183456421E-2,2.320512402E-1
4.709382490E0,-2.742808163E-1,9.915839136E-2,6.226444244E-2,2.982267821E-1
4.719349156E0,-4.421753585E-1,8.439901471E-2,5.030250549E-2,4.529598033E-1
4.729315822E0,-1.426566243E0,-1.193970442E-1,1.053771973E-1,1.435427203E0
4.739282488E0,-2.494384527E0,-4.764273763E-2,7.904148102E-2,2.496091255E0
4.749249154E0,-6.891319156E-2,2.014999837E-1,1.173467636E-1,2.431492018E-1
4.759215820E0,-9.250911325E-2,2.916382253E-2,1.439094543E-2,9.805898169E-2
4.769182953E0,-1.268712282E-1,6.194956601E-2,-2.390098572E-2,1.431967681E-1
4.779149619E0,-3.304214180E-1,1.432118118E-1,1.245479584E-1,3.810513488E-1
4.789116285E0,9.395687282E-2,1.722773463E-1,-2.151203156E-2,1.974085750E-1
4.799082951E0,9.407142550E-2,1.723868251E-1,-2.151393890E-2,1.975588523E-1
4.809049617E0,-2.052665502E-1,2.334728837E-3,2.637290955E-2,2.069669972E-1
4.819016283E0,-1.070389599E-1,1.437786222E-2,1.679420471E-2,1.092982487E-1
4.828982949E0,-2.506816387E-1,-2.169226110E-2,5.271148682E-2,2.570804135E-1
4.838982949E0,-2.290139794E-1,-1.465997100E-2,8.623409271E-2,2.451502320E-1
4.848982949E0,1.772571914E-2,3.539730608E-2,8.623790741E-2,9.489018427E-2
4.858982949E0,1.292894781E-2,5.667445064E-2,8.624362946E-2,1.040053588E-1
4.868982949E0,-3.484725207E-2,4.946462810E-2,7.187938690E-2,9.395598263E-2
4.878982949E0,-2.740894444E-2,1.342968643E-2,5.512142181E-2,6.300776028E-2
4.888982949E0,-2.728998475E-2,1.345700026E-2,5.512046814E-2,6.296110014E-2
4.898982949E0,-1.524574589E-2,3.730930388E-2,5.512142181E-2,6.828461076E-2
4.908983415E0,2.090867795E-2,3.732016683E-2,4.793834686E-2,6.424992425E-2
4.918983415E0,3.783719242E-2,5.158570409E-2,6.709480286E-2,9.270625959E-2
4.928983415E0,3.079319932E-2,1.112784296E-1,5.751991272E-2,1.289947688E-1
4.938983415E0,4.056938365E-2,4.652586579E-2,6.470584869E-2,8.942806010E-2
4.948983415E0,4.069918394E-2,4.653629661E-2,6.470489502E-2,8.949175333E-2
4.958982948E0,3.123541735E-2,4.174785316E-2,4.315662384E-2,6.768329721E-2
4.968982948E0,2.170409262E-2,4.410202801E-2,5.752277374E-2,7.566324081E-2
4.978982948E0,2.425165847E-2,3.206360340E-2,4.794692993E-2,6.257096524E-2
4.988982948E0,2.188987099E-2,6.332372129E-2,6.709861755E-2,9.482238453E-2
4.998982948E0,2.268142998E-4,3.017674387E-2,5.761432648E-2,6.503920303E-2
5.008982948E0,-2.382319421E-2,3.103372455E-2,5.530548096E-2,6.774461503E-2
5.018983448E0,-3.297599405E-2,2.055890858E-2,6.016540527E-2,7.162374535E-2
5.028983448E0,-1.790878177E-2,3.690904379E-2,3.628349304E-2,5.476763501E-2
5.038983448E0,-9.819319472E-3,2.950851619E-2,6.028366089E-2,6.783281900E-2
5.048983448E0,-1.870862208E-3,2.941149473E-2,5.794429779E-2,6.500829020E-2
5.058983448E0,8.401405998E-3,3.422075510E-2,8.194160461E-2,8.919680638E-2
5.068982981E0,1.847168617E-2,5.503326654E-3,5.326461792E-2,5.664458771E-2
5.078982981E0,2.084603533E-2,2.046738565E-2,5.330657959E-2,6.078702569E-2
5.088982981E0,3.005518392E-2,2.845013142E-2,5.334472656E-2,6.751580489E-2
5.098982981E0,1.508181635E-2,2.459241450E-2,6.056404114E-2,6.708391099E-2
5.108982981E0,1.910383254E-2,-9.315758944E-4,4.863166809E-2,5.225766348E-2
5.118982981E0,1.348532271E-2,2.546757460E-4,4.147815704E-2,4.361600967E-2
5.128982981E0,7.414761931E-4,1.860095561E-2,6.544113159E-2,6.803739443E-2
5.138982981E0,-1.670535281E-2,1.996570826E-2,6.546783447E-2,7.045378392E-2
5.148982981E0,-4.968582653E-3,1.651525497E-2,4.873466492E-2,5.169630572E-2
5.158983447E0,-1.217179187E-2,1.268520951E-3,5.354404449E-2,5.492473362E-2
5.168983447E0,-9.679070674E-3,-6.496012211E-3,5.595397949E-2,5.715531825E-2
5.178983447E0,9.690012783E-3,-4.612758756E-3,7.272624969E-2,7.351381697E-2
5.188983447E0,-4.656064324E-3,-2.709344029E-3,4.400634766E-2,4.433484086E-2
5.198983913E0,9.722800925E-3,9.315997362E-3,5.118751526E-2,5.292903157E-2
5.208983446E0,4.973458126E-3,-2.722665668E-3,4.400634766E-2,4.437011188E-2
5.218983446E0,1.899014041E-2,1.127293706E-2,7.514095306E-2,7.831901027E-2
5.228983446E0,2.106674574E-2,3.854423761E-3,8.711910248E-2,8.971288857E-2
5.238983446E0,3.474592045E-2,-1.163423061E-3,7.994365692E-2,8.717580411E-2
5.248983446E0,1.225801744E-2,1.316452026E-2,5.839729309E-2,6.110488872E-2
5.258983446E0,2.341507934E-2,8.207142353E-3,7.516288757E-2,7.915227599E-2
5.268983912E0,5.592113361E-3,-6.294131279E-3,7.038021088E-2,7.088202807E-2
5.278983912E0,7.138445973E-3,7.882490754E-3,5.602169037E-2,5.702210855E-2
5.288983912E0,3.983773291E-3,5.420133471E-3,3.687000275E-2,3.747859921E-2
5.298983912E0,-6.068523973E-3,1.966111362E-2,6.081771851E-2,6.420421525E-2
5.308983912E0,-2.040430903E-2,1.493643224E-2,5.842113495E-2,6.365894944E-2
5.318983412E0,-1.317171752E-2,1.438707113E-4,4.406642914E-2,4.599309751E-2
5.328983412E0,-2.031441778E-2,9.768217802E-3,5.603694916E-2,6.040060695E-2
5.338983412E0,-2.457404137E-2,1.158793271E-2,6.802082062E-2,7.324613117E-2
5.348983412E0,9.809806943E-5,1.352883875E-2,5.845355988E-2,5.999881468E-2
5.358983412E0,1.500552893E-2,-1.332885027E-2,3.931140900E-2,4.413854353E-2
5.368983412E0,2.729658037E-2,3.051459789E-3,6.086921692E-2,6.677931023E-2
5.378983412E0,3.380408511E-3,-1.743882895E-3,6.086826324E-2,6.098699664E-2
5.388983412E0,2.224868350E-2,7.661581039E-3,6.566238403E-2,6.975136141E-2
5.398983412E0,4.102574661E-2,7.526785135E-3,7.045459747E-2,8.187560494E-2
5.408983878E0,1.600565389E-2,-4.633948207E-3,6.327819824E-2,6.543534828E-2
5.418983878E0,2.939495072E-2,4.814669490E-3,8.004474640E-2,8.540729241E-2
5.428983878E0,-4.460345954E-4,-2.463147044E-3,6.089496613E-2,6.094639398E-2
5.438983878E0,-3.573155031E-3,-2.948939800E-5,6.568431854E-2,6.578144122E-2
5.448983878E0,-1.306731533E-2,-1.195015013E-2,4.652881622E-2,4.978445096E-2
5.458983411E0,-5.831006914E-3,-9.569302201E-3,4.652881622E-2,4.785919896E-2
5.468983411E0,-1.092976518E-2,-1.909211278E-3,5.609607697E-2,5.718281827E-2
5.478983411E0,-1.569116116E-2,-6.590083241E-3,4.891014099E-2,5.178651975E-2
5.488983411E0,-2.750466019E-2,2.214489877E-2,5.369758606E-2,6.426767167E-2
5.498982944E0,-2.695325390E-2,2.217884362E-2,5.369567871E-2,6.404377341E-2
5.508982944E0,-6.935615093E-3,7.669523358E-3,4.411983490E-2,4.531538565E-2
5.518983444E0,-1.815342344E-2,-9.278073907E-3,5.130577087E-2,5.520789403E-2
5.528983444E0,9.051110595E-3,-6.842523813E-3,6.566810608E-2,6.664115013E-2
5.538983444E0,1.894846559E-3,2.727836370E-3,5.130290985E-2,5.141031116E-2
5.548983444E0,1.453511603E-2,2.832621336E-3,5.608654022E-2,5.800856261E-2
5.558983444E0,2.647867799E-2,5.233675241E-3,6.566429138E-2,7.099514707E-2
5.568982977E0,-7.074989378E-3,-1.154632866E-2,4.411697388E-2,4.614846221E-2
5.578982977E0,-9.496617131E-3,7.728874683E-3,2.017021179E-2,2.359573446E-2
5.588982977E0,-2.345092595E-3,-6.700545549E-3,9.439468384E-2,9.466125452E-2
5.598982977E0,-1.894114166E-2,-2.110093832E-3,4.411983490E-2,4.806016204E-2
5.608982977E0,-1.412415039E-2,1.471385360E-2,8.242607117E-2,8.491199161E-2
5.618982977E0,3.261715174E-4,7.467076182E-3,5.609130859E-2,5.658708788E-2
5.628982977E0,-9.283202700E-3,3.348886967E-4,9.918594360E-2,9.961998500E-2
5.638982977E0,5.590386689E-3,9.828373790E-3,6.566715240E-2,6.663350703E-2
5.648982977E0,-3.956142813E-3,1.228660345E-2,2.017498016E-2,2.395081449E-2
5.658983443E0,3.252334893E-3,-2.085760236E-3,4.411792755E-2,4.428678820E-2
5.668983443E0,3.238635138E-3,3.691762686E-4,7.045364380E-2,7.052900803E-2
5.678983443E0,1.051536575E-2,-6.894320250E-3,5.848312378E-2,5.981956482E-2
5.688983443E0,8.089983836E-3,2.177309990E-2,5.848503113E-2,6.292864677E-2
5.698983443E0,-3.726279363E-3,9.734630585E-3,6.567001343E-2,6.649209618E-2
5.708982976E0,1.305956393E-2,2.659484744E-3,6.087779999E-2,6.231959243E-2
5.718982976E0,7.927259430E-3,2.201929688E-3,6.328392029E-2,6.381649084E-2
5.728982976E0,8.069837466E-3,2.266168594E-3,2.736854553E-2,2.862333107E-2
5.738982976E0,1.243378781E-2,1.943096519E-3,6.329059601E-2,6.452963851E-2
5.748982976E0,1.414508373E-2,-6.098598242E-4,6.329631805E-2,6.486045946E-2
5.758982976E0,1.850626431E-2,-3.169357777E-3,6.090831757E-2,6.373656561E-2
5.768983442E0,-1.545813773E-2,1.124985516E-2,5.851364136E-2,6.155777358E-2
5.778983442E0,-2.305126004E-2,1.337483525E-2,7.288646698E-2,7.760595258E-2
5.788983442E0,-1.822349243E-2,1.450762153E-3,6.570243835E-2,6.819831957E-2
5.798983442E0,-2.014425769E-2,8.415430784E-3,5.373573303E-2,5.800120342E-2
5.808983442E0,-1.458364818E-2,3.291249275E-3,3.458881378E-2,3.768157580E-2
5.818982942E0,-1.406714972E-2,3.076702356E-3,3.459262848E-2,3.746999792E-2
5.828982942E0,-2.307767421E-2,3.120943904E-3,6.332111359E-2,6.746764235E-2
5.838982942E0,-1.504743844E-2,-8.889988065E-3,9.684085846E-2,9.840533095E-2
5.848982942E0,2.403022349E-2,1.270960271E-2,6.092357635E-2,6.671332549E-2
5.858982942E0,9.761689231E-3,-6.340324879E-3,5.134391785E-2,5.264682513E-2
5.868982942E0,1.697447151E-2,-1.596790552E-2,6.571006775E-2,6.972029614E-2
5.878982942E0,-9.265201166E-3,-6.400674582E-3,6.331634521E-2,6.430996936E-2
5.888982942E0,7.521292195E-3,3.169655800E-3,5.134487152E-2,5.198954112E-2
5.898982942E0,5.154278129E-3,-4.019826651E-3,6.571102142E-2,6.603532332E-2
5.908983408E0,-4.312127829E-3,2.464090288E-2,7.289505005E-2,7.706787179E-2
5.918983408E0,1.206097938E-2,4.658997059E-4,6.332492828E-2,6.446495814E-2
5.928983408E0,-4.730252549E-3,-1.156926155E-2,5.374908447E-2,5.518321469E-2
5.938983408E0,4.869196564E-3,1.947899163E-2,5.375099182E-2,5.737864857E-2
5.948983408E0,-1.339720339E-1,-2.076059580E-3,2.980804443E-2,1.372637439E-1
5.958982941E0,1.649893373E-1,2.648183703E-2,6.093502045E-2,1.778646841E-1
5.968982941E0,1.297913492E-3,1.649437845E-2,6.573581696E-2,6.778603640E-2
5.978950107E0,1.756028086E-2,1.366615295E-2,8.011341095E-2,8.314617138E-2
5.988917207E0,2.640758641E-2,3.584474325E-3,7.533836365E-2,7.991294084E-2
5.998883873E0,-1.023260877E-3,-6.534755230E-3,6.577777863E-2,6.610950196E-2
6.008850539E0,1.216915436E-2,-6.828159094E-3,2.747917175E-2,3.081910048E-2
6.018817205E0,2.094620466E-2,2.398192883E-4,3.945541382E-2,4.467136312E-2
6.028783871E0,3.211118281E-3,-2.168834209E-3,3.466987610E-2,3.488574825E-2
6.038751037E0,9.765500203E-3,1.225346327E-2,2.509212494E-2,2.958254705E-2
6.048717703E0,-3.410194814E-2,-3.100854158E-2,1.136865616E-1,1.226748010E-1
6.058684369E0,-2.677092329E-3,-3.689065576E-3,5.619812012E-2,5.638266341E-2
6.068650569E0,-5.209093913E-3,6.193712354E-3,6.816196442E-2,6.864073226E-2
6.078617235E0,-9.960819036E-3,-1.298384368E-2,4.900836945E-2,5.166834997E-2
6.088583901E0,-2.636234090E-2,6.752297282E-3,3.462791443E-2,4.404155985E-2
6.098550567E0,-1.208903547E-2,-6.220042706E-4,4.181480408E-2,4.353170693E-2
6.108517233E0,-6.604667753E-3,1.623588800E-2,5.856990814E-2,6.113640352E-2
6.118483899E0,-8.972154930E-3,-7.827773690E-3,7.533264160E-2,7.626782084E-2
6.128451032E0,-1.345679164E-3,-6.985217333E-4,7.054519653E-2,7.056148765E-2
6.138417698E0,6.511282176E-3,1.827493310E-3,8.730030060E-2,8.756185820E-2
6.148384364E0,1.611916907E-2,-1.726286113E-2,4.180717468E-2,4.801743268E-2
6.158351030E0,1.628305763E-3,9.662583470E-3,4.179286957E-2,4.292622562E-2
6.168317696E0,3.988752142E-3,7.248267531E-3,4.179286957E-2,4.260389035E-2
6.178284362E0,-3.280958161E-3,9.635657072E-3,6.094837189E-2,6.179251257E-2
6.188251028E0,3.872010857E-3,7.177501917E-3,5.855560303E-2,5.912078863E-2
6.198217694E0,1.115540229E-2,1.191227138E-2,6.813335419E-2,7.006068200E-2
6.208183894E0,6.507692859E-3,-2.345725894E-3,5.376434326E-2,5.420753732E-2
6.218150560E0,1.809472404E-2,4.561245441E-3,6.334972382E-2,6.604098353E-2
6.228117226E0,-1.105460618E-2,1.156234741E-2,4.898929596E-2,5.153487474E-2
6.238084326E0,-6.497479975E-3,-8.005663753E-3,5.139541626E-2,5.241943066E-2
6.248050992E0,-6.525309756E-3,-1.039320230E-2,6.097221375E-2,6.219492882E-2
6.258017658E0,-6.240673363E-3,1.645866036E-2,5.138111115E-2,5.431254079E-2
6.267984324E0,6.043290719E-3,3.966286778E-3,7.533645630E-2,7.568245795E-2
6.277983824E0,-1.781291142E-2,1.833878458E-2,5.618190765E-2,6.172533986E-2
6.287983390E0,6.640352309E-3,-1.097723842E-2,5.140781403E-2,5.298450137E-2
6.297983390E0,4.342652857E-3,1.098513603E-3,5.858707428E-2,5.875806871E-2
6.307983390E0,9.217536077E-3,-1.804871857E-2,5.858612061E-2,6.199236034E-2
6.317983390E0,1.648329012E-2,-6.026655436E-3,6.337356567E-2,6.575886446E-2
6.327983390E0,7.003394887E-3,5.934655666E-3,5.140304565E-2,5.221628846E-2
6.337982890E0,9.609211236E-3,-6.046742201E-3,7.295036316E-2,7.382855489E-2
6.347982890E0,2.148475498E-3,-1.103460789E-3,5.139923096E-2,5.145594733E-2
6.357982890E0,1.384879649E-2,-1.277893782E-2,5.857467651E-2,6.153115588E-2
6.367982890E0,8.824244142E-3,-4.916191101E-4,5.138492584E-2,5.213942441E-2
6.377983356E0,1.384541392E-3,-9.833261371E-3,4.180240631E-2,4.296569745E-2
6.387983356E0,-5.951108411E-3,2.504646778E-3,6.094741821E-2,6.128847146E-2
6.397983356E0,3.437118605E-3,1.235735416E-2,7.051849365E-2,7.167549046E-2
6.407983356E0,-4.113463685E-3,-1.930981874E-3,6.333351135E-2,6.349632221E-2
6.417983356E0,-6.293701008E-3,7.592424750E-3,5.615234375E-2,5.701176453E-2
6.427982889E0,-1.338339597E-2,9.906217456E-3,8.488559723E-2,8.650325456E-2
6.437982889E0,-1.764873415E-2,2.700090408E-5,7.531452179E-2,7.735473960E-2
6.447982889E0,-1.755207777E-2,1.700222492E-5,7.531452179E-2,7.733274155E-2
6.457982889E0,4.432229325E-3,-1.408603787E-2,5.136489868E-2,5.344542952E-2
6.467982889E0,-1.725070179E-4,-1.363185048E-2,7.050609589E-2,7.181202311E-2
6.477982889E0,1.191592030E-2,3.656163812E-3,6.091594696E-2,6.217804504E-2
6.487983322E0,9.614827111E-3,5.855590105E-3,7.289218903E-2,7.375638316E-2
6.497983322E0,1.409926265E-2,3.736928105E-3,7.767391205E-2,7.903157883E-2
6.507983322E0,1.653298363E-2,1.336117089E-2,7.048988342E-2,7.362529525E-2
6.517983322E0,1.702109352E-3,1.812271774E-2,5.612564087E-2,5.900353919E-2
6.527983322E0,-8.351018652E-3,1.009598374E-3,5.374145508E-2,5.439579759E-2
6.537982888E0,-1.316999085E-2,3.340095282E-3,5.134963989E-2,5.311676207E-2
6.547982888E0,1.104537398E-3,2.241684496E-2,6.811141968E-2,7.171401838E-2
6.557982888E0,-1.082753669E-2,-8.775785565E-3,6.332302094E-2,6.483868401E-2
6.567982888E0,-3.240805119E-2,-8.839651942E-3,5.374908447E-2,6.338284713E-2
6.577982888E0,-1.275021210E-2,-1.696854830E-3,5.614280701E-2,5.759741317E-2
6.587982888E0,-9.680111893E-3,1.508040726E-2,5.135250092E-2,5.438936109E-2
6.597982888E0,-1.147260331E-2,5.338758230E-3,7.290363312E-2,7.399366654E-2
6.607982888E0,1.071744598E-2,-9.144201875E-3,4.656791687E-2,4.865234792E-2
6.617982888E0,1.561676525E-2,-9.100273252E-3,4.656696320E-2,4.995178066E-2
6.627983354E0,8.684735745E-3,-6.325840950E-3,5.852794647E-2,5.950597799E-2
6.637983354E0,8.829113096E-3,-6.261721253E-3,5.852603912E-2,5.951856556E-2
6.647983354E0,8.490664884E-3,-1.103520393E-3,5.851745605E-2,5.914052596E-2
6.657983354E0,-6.199155003E-3,-3.188341856E-3,6.569385529E-2,6.606267985E-2
6.667983354E0,-1.328309532E-2,-5.521818995E-3,3.935527802E-2,4.190189750E-2
6.677982887E0,-2.988287807E-2,9.375154972E-3,5.610179901E-2,6.425178429E-2
6.687982887E0,-5.848966539E-4,2.350956202E-3,6.327819824E-2,6.332455663E-2
6.697982887E0,-1.971665397E-2,7.176682353E-3,8.003807068E-2,8.274263696E-2
6.707982887E0,-7.716081105E-3,-2.336665988E-3,6.088161469E-2,6.141310057E-2
6.717982887E0,-4.747733474E-3,1.434981823E-5,5.369853973E-2,5.390801748E-2
6.727982887E0,-1.371292025E-2,2.456158400E-3,5.848503113E-2,6.012134198E-2
6.737983320E0,1.456400380E-3,1.327097416E-4,4.650974274E-2,4.653272916E-2
6.747983320E0,6.258230656E-3,2.466589212E-3,4.411792755E-2,4.462780573E-2
6.757983320E0,1.157441922E-2,-4.605039954E-3,6.087398529E-2,6.213546216E-2
6.767983320E0,2.080861479E-3,5.769878626E-4,5.846881866E-2,5.850868017E-2
6.777983320E0,-2.134218812E-4,3.031894565E-3,6.086158752E-2,6.093743324E-2
6.787982886E0,4.602460191E-3,5.166083574E-4,4.889297485E-2,4.911183680E-2
6.797982886E0,6.962012500E-3,1.725646853E-2,6.086540222E-2,6.364630792E-2
6.807982886E0,2.142263576E-3,5.470365286E-4,5.846977234E-2,5.851156142E-2
6.817982886E0,2.373323217E-2,-1.843914390E-3,6.325817108E-2,6.758892319E-2
6.827982886E0,1.633018255E-3,5.190819502E-3,6.565761566E-2,6.588272801E-2
6.837982886E0,1.779043674E-2,5.012363195E-3,5.848026276E-2,6.133159509E-2
6.847982886E0,1.725538075E-2,4.874154925E-3,5.848407745E-2,6.117101329E-2
6.857982886E0,9.726125747E-3,6.854698062E-3,7.286167145E-2,7.382687569E-2
6.867982886E0,5.034789443E-3,2.056047320E-3,4.652404785E-2,4.684083116E-2
6.877983352E0,-1.214316767E-2,-1.260560751E-2,6.808185577E-2,7.029578186E-2
6.887983352E0,1.668533497E-2,4.144236445E-3,6.329250336E-2,6.558594422E-2
6.897983352E0,2.301773056E-3,6.528556347E-3,4.174423218E-2,4.231431350E-2
6.907983352E0,-1.199344825E-2,-3.051713109E-3,7.287025452E-2,7.391366414E-2
6.917983352E0,2.411499619E-3,-5.513072014E-3,6.568908691E-2,6.596412232E-2
6.927982885E0,4.888594151E-3,-6.740689278E-4,6.329250336E-2,6.348459422E-2
6.937982885E0,1.167408936E-2,-1.240353286E-2,5.849933624E-2,6.092868233E-2
6.947982885E0,1.773621887E-3,9.454190731E-3,5.849170685E-2,5.927737534E-2
6.957982885E0,6.518991664E-3,4.662171006E-3,7.525253296E-2,7.567811313E-2
6.967982885E0,-1.503301784E-2,-7.379695773E-3,4.891681671E-2,5.170402782E-2
6.977982885E0,-1.506433450E-2,-7.443442941E-3,4.173564911E-2,4.499114828E-2
6.987983318E0,-1.510841213E-2,2.130210400E-3,5.610179901E-2,5.813960583E-2
6.997983318E0,-7.771939971E-3,-5.119651556E-3,6.328582764E-2,6.396647452E-2
7.007983318E0,1.859165169E-2,9.239256382E-3,5.370903015E-2,5.758188336E-2
7.017983318E0,6.589774042E-3,1.407839358E-2,5.131340027E-2,5.361614808E-2
7.027983318E0,-2.832975239E-3,-2.401620150E-4,5.370521545E-2,5.378042017E-2
7.037982884E0,1.402748749E-2,-2.573937178E-3,6.328105927E-2,6.486823583E-2
7.047982884E0,1.597001590E-2,-2.671033144E-4,7.046699524E-2,7.225448201E-2
7.057982884E0,8.140152320E-3,1.414532959E-2,5.610275269E-2,5.842834319E-2
7.067982884E0,-1.854121685E-3,4.386559129E-3,6.089591980E-2,6.108185260E-2
7.077982884E0,-7.049178705E-3,8.862242103E-3,5.132865906E-2,5.256292892E-2
7.087982884E0,-9.359675460E-3,-7.788240910E-4,6.808948517E-2,6.873418423E-2
7.097982884E0,-2.363137156E-2,-1.511065662E-2,4.893398285E-2,5.640308806E-2
7.107982884E0,-1.590834744E-2,8.997112513E-3,6.089973450E-2,6.358302614E-2
7.117982884E0,-1.751029491E-2,8.970662951E-3,4.413986206E-2,4.832608658E-2
7.127983350E0,7.041070610E-3,1.362170279E-2,3.695774078E-2,4.001252387E-2
7.137983350E0,7.067646831E-3,4.037827253E-3,6.569004059E-2,6.619242489E-2
7.147983350E0,1.919598319E-2,1.361852884E-2,4.414081573E-2,5.002361155E-2
7.157983350E0,1.197863370E-2,-1.319594681E-2,4.894161224E-2,5.208552665E-2
7.167983350E0,2.165223472E-2,5.948022008E-3,7.527828217E-2,7.855582728E-2
7.177982916E0,9.327335283E-3,-2.288064361E-2,6.091594696E-2,6.573641023E-2
7.187982916E0,6.374239922E-3,1.103577018E-2,7.048416138E-2,7.162706306E-2
7.197982916E0,-1.346757542E-2,3.967195749E-3,6.090545654E-2,6.250271087E-2
7.207982916E0,-3.791389987E-3,1.633554697E-3,2.977752686E-2,3.006233931E-2
7.217982916E0,-8.496235125E-3,-7.103085518E-4,5.371952057E-2,5.439188763E-2
7.227982916E0,-1.563975960E-2,1.119399071E-2,7.766437531E-2,8.001039120E-2
7.237983349E0,-1.081171818E-2,6.338223815E-3,7.766532898E-2,7.867000481E-2
7.247983349E0,-7.900488563E-3,-5.848035216E-3,6.330394745E-2,6.406252413E-2
7.257983349E0,-1.511376351E-2,3.665298223E-3,5.133533478E-2,5.363932191E-2
7.267983349E0,-1.449917443E-2,-5.908206105E-3,6.569957733E-2,6.753937681E-2
7.277983349E0,5.343470722E-3,3.739595413E-3,6.569576263E-2,6.601871311E-2
7.287982915E0,6.068278104E-3,6.181448698E-3,5.611705780E-2,5.678167383E-2
7.297982915E0,-3.552230075E-3,-1.286171377E-2,4.653644562E-2,4.841159768E-2
7.307982915E0,-5.590193905E-3,4.066303372E-3,7.047462463E-2,7.081283647E-2
7.317982915E0,1.639525779E-2,-5.739629269E-4,6.328678131E-2,6.537851788E-2
7.327982915E0,-5.835611373E-4,-7.052421570E-4,5.371379852E-2,5.372159772E-2
7.337982915E0,-7.555838674E-4,-3.051459789E-4,5.370330811E-2,5.370949006E-2
7.347982915E0,-3.308147192E-3,1.166296005E-2,5.609893799E-2,5.739389618E-2
7.357982915E0,-8.183579892E-3,1.165610552E-2,5.849266052E-2,6.020155406E-2
7.367982915E0,-1.059357356E-2,2.068743110E-3,5.849266052E-2,5.948020540E-2
7.377983415E0,-3.611313179E-3,2.062007785E-3,4.891681671E-2,4.909326243E-2
7.387983415E0,6.384341046E-3,1.900613308E-3,7.525730133E-2,7.555152907E-2
7.397983415E0,-3.279102966E-3,6.682217121E-3,-6.147384644E-3,9.653749524E-3
7.407983415E0,1.123195328E-2,-5.568116903E-3,3.695583344E-2,3.902427866E-2
7.417983415E0,-7.886698470E-3,1.326313615E-2,1.590719223E-1,1.598186074E-1
7.427982948E0,1.591352932E-2,-3.789618611E-3,2.499961853E-2,2.987612009E-2
7.437982948E0,-8.952245116E-2,3.204691410E-2,8.725261688E-2,1.290515134E-1
7.447982948E0,-3.422768414E-1,-3.560805321E-2,7.529544830E-2,3.522652043E-1
7.457982948E0,-1.992697567E-1,1.957656443E-2,1.255645752E-1,2.363432680E-1
7.467982948E0,-1.913483441E-1,1.950941980E-2,1.255607605E-1,2.296961271E-1
7.477982914E0,7.491854019E-3,6.803318858E-3,5.805015564E-3,1.166667175E-2
7.487983347E0,6.931141764E-2,1.277771592E-2,-1.407623291E-3,7.049343262E-2
7.497983347E0,1.007148102E-1,4.628834128E-2,1.254892349E-1,1.674324688E-1
7.507983347E0,8.267325908E-2,5.545347929E-2,1.087388992E-1,1.474249108E-1
7.517983347E0,4.686204344E-2,1.362715662E-2,5.609321594E-2,7.435186203E-2
7.527983347E0,2.028104663E-2,-1.563832164E-3,1.040000916E-1,1.059706821E-1
7.537982913E0,-1.065387949E-2,-1.166000962E-2,4.176330566E-2,4.465013631E-2
7.547982913E0,-2.179136127E-2,1.689273119E-2,9.444332123E-2,9.838581563E-2
7.557982913E0,-2.511760965E-2,2.036362886E-3,1.065635681E-2,2.736053780E-2
7.567982913E0,-2.534558252E-2,1.872852445E-3,1.066112518E-2,2.756021987E-2
7.577982913E0,-3.004964814E-2,1.864492893E-3,9.924888611E-2,1.037149897E-1
7.587982913E0,-9.118717909E-2,1.619249582E-3,7.531166077E-2,1.182775120E-1
7.597982913E0,-7.699735463E-2,-2.735643089E-2,5.616283417E-2,9.915256362E-2
7.607982913E0,-6.450119615E-2,-1.970158517E-2,4.896736145E-2,8.334482137E-2
7.617982913E0,-9.944717586E-2,-2.374517918E-2,1.063919067E-2,1.027947795E-1
7.627983413E0,-4.741208255E-2,3.454677761E-2,8.244800568E-2,1.011882358E-1
7.637983413E0,-2.425592579E-2,2.992869914E-2,5.850315094E-2,7.004780966E-2
7.647983413E0,1.514593977E-2,3.918965161E-2,5.851554871E-2,7.203678036E-2
7.657983413E0,3.238561563E-3,4.555188119E-2,8.966541290E-2,1.006247903E-1
7.667983413E0,5.135801621E-3,4.425585270E-2,8.970165253E-2,1.001565945E-1
7.677982913E0,-7.979008555E-2,2.593755722E-2,4.185771942E-2,9.376184353E-2
7.687982913E0,-1.230465621E-1,-3.083561361E-2,6.106090546E-2,1.407825475E-1
7.697982913E0,-6.758937240E-2,-5.219306052E-2,3.950786591E-2,9.409203099E-2
7.707982913E0,-2.633603662E-2,-3.050099313E-2,5.865955353E-2,7.116769370E-2
7.717982913E0,4.598274827E-2,3.176581860E-2,6.823825836E-2,8.820396972E-2
7.727982913E0,4.155888408E-2,6.537014246E-2,7.781410217E-2,1.097972261E-1
7.737983346E0,3.845991567E-2,4.296585917E-2,8.262825012E-2,1.007603984E-1
7.747983346E0,-3.258746117E-2,3.440889716E-2,6.351089478E-2,7.924360280E-2
7.757983346E0,-3.621925041E-2,5.227601528E-2,4.678726196E-2,7.895355442E-2
7.767983346E0,-6.821396202E-2,3.136727214E-2,4.923248291E-2,8.978244678E-2
7.777983812E0,-8.016392589E-2,8.014082909E-3,5.647087097E-2,9.838414408E-2
7.787983378E0,-2.112105936E-1,4.243773222E-2,7.088565826E-2,2.267942956E-1
7.797983378E0,-2.987639010E-1,-2.380973101E-2,9.010410309E-2,3.129624917E-1
7.807983378E0,-3.686118126E-1,-5.572134256E-2,7.101154327E-2,3.795025371E-1
7.817983378E0,-3.630911112E-1,-9.129172564E-2,4.473590851E-2,3.770552157E-1
7.827983378E0,-2.758308649E-1,-1.062695533E-1,6.394958496E-2,3.024325270E-1
7.837983378E0,-2.262472361E-1,-5.528664589E-2,6.161117554E-2,2.409156741E-1
7.847983378E0,-9.076397866E-2,2.912285924E-2,3.535652161E-2,1.016677155E-1
7.857983378E0,-6.775568426E-2,7.403671741E-2,2.588844299E-2,1.036459346E-1
7.867983378E0,3.221695870E-2,6.945368648E-2,7.152175903E-2,1.047716995E-1
7.877983878E0,1.192964539E-1,7.591181993E-2,5.728912354E-2,1.525656973E-1
7.887983878E0,1.212019995E-1,1.508858204E-1,6.457614899E-2,2.040258182E-1
7.897983878E0,1.680476069E-1,1.521196961E-1,4.314136505E-2,2.307413650E-1
7.907983878E0,1.690621376E-1,9.426695108E-2,4.325962067E-2,1.983422779E-1
7.917983878E0,8.403145522E-2,3.629502654E-2,5.292892456E-2,1.057359233E-1
7.927983378E0,-2.051365376E-2,-8.065938950E-2,7.454299927E-2,1.117291629E-1
7.937983378E0,-1.260104030E-1,-8.986319602E-2,6.977653503E-2,1.697727319E-1
7.947983378E0,-2.287997007E-1,-3.492884338E-2,6.020450592E-2,2.391524821E-1
7.957983378E0,-3.423392177E-1,-8.449359238E-2,1.009407043E-1,3.667755893E-1
7.967983378E0,-8.990767598E-2,-1.520235240E-1,7.706356049E-2,1.927001153E-1
7.977983378E0,-7.021209598E-2,-1.265485585E-1,6.270885468E-2,1.577234178E-1
7.987983811E0,6.152093410E-3,-1.481039524E-1,5.071830750E-2,1.566683621E-1
7.997983811E0,-2.212829888E-2,-1.182841510E-1,3.628349304E-2,1.256872859E-1
8.007983811E0,2.539797127E-2,-7.346871495E-2,6.970977783E-2,1.044134194E-1
8.017983811E0,-1.271987706E-1,-5.791948736E-2,3.609085083E-2,1.443493810E-1
8.027983811E0,-1.968721598E-1,-6.432107091E-2,1.030731201E-1,2.313437174E-1
8.037983377E0,-2.453422546E-1,-7.334452868E-2,1.208400726E-2,2.563557392E-1
8.047983377E0,-9.385147691E-2,-1.825278997E-2,1.688480377E-2,9.708944669E-2
8.057983377E0,-7.164177299E-2,1.543214917E-2,6.238365173E-2,9.624144049E-2
8.067983377E0,2.736889720E-1,9.437598288E-2,8.155059814E-2,3.007706428E-1
8.077982910E0,5.038135052E-1,1.633971632E-1,4.325675964E-2,5.314111668E-1
8.087982910E0,5.449061990E-1,2.587099373E-1,-2.215385437E-3,6.032068512E-1
8.097982910E0,2.794779241E-1,1.026360840E-1,9.357261658E-2,3.120863829E-1
8.107982910E0,2.797892094E-1,1.029527485E-1,9.357070923E-2,3.124687948E-1
8.117982910E0,3.364995122E-2,-7.165944576E-2,5.526733398E-2,9.654985028E-2
8.127983376E0,-1.190744936E-1,-8.104147017E-2,4.808902740E-2,1.518519328E-1
8.137983376E0,-1.403355449E-1,-1.000033468E-1,7.203292847E-2,1.867711898E-1
8.147983376E0,-2.381200194E-1,-5.195856094E-2,-1.894569397E-2,2.444581253E-1
8.157983376E0,-2.376238257E-1,-5.167849362E-2,-1.894283295E-2,2.439151085E-1
8.167983376E0,-3.278676867E-1,-2.693210542E-2,6.964111328E-2,3.362624614E-1
8.177982876E0,-5.979061723E-1,-1.057568491E-1,7.682895660E-2,6.120285864E-1
8.187982876E0,-1.324683279E-1,-7.924307883E-2,6.487178802E-2,1.674385628E-1
8.197982876E0,-1.274471432E-1,-4.782652855E-2,1.295156479E-1,1.878947955E-1
8.207982876E0,-2.806872129E-3,-1.231236756E-2,1.007957458E-1,1.015837354E-1
8.217982876E0,1.820116639E-1,9.016652405E-2,1.701736450E-2,2.038328692E-1
8.227982876E0,-5.908349156E-2,-3.192521632E-2,-2.127647400E-2,7.044690737E-2
8.237983309E0,-3.002744913E-2,-8.272249997E-2,1.223974228E-1,1.507507506E-1
8.247983309E0,-1.467302889E-1,-8.014902472E-2,3.621292114E-2,1.710702180E-1
8.257983309E0,-3.299182057E-1,-1.020924002E-1,6.737041473E-2,3.518631175E-1
8.267983309E0,-3.098441362E-1,-7.333707809E-2,-2.359390259E-2,3.192779166E-1
8.277983309E0,-2.013120651E-1,-2.570304275E-2,9.853649139E-2,2.256028238E-1
8.287982875E0,-2.352525294E-2,2.938677371E-2,2.672004700E-2,4.616254874E-2
8.297982875E0,1.707115024E-1,9.325207770E-2,6.984138489E-2,2.066789445E-1
8.307982875E0,1.708862931E-1,2.030367851E-1,5.548763275E-2,2.711179423E-1
8.317982875E0,5.386431515E-2,2.072534710E-1,1.033945084E-1,2.377935871E-1
8.327982875E0,-4.864653945E-2,7.074396312E-2,7.706642151E-2,1.153708258E-1
8.337982875E0,-1.027117670E-2,-4.472622275E-2,7.229232788E-2,8.562775685E-2
8.347982875E0,1.363381743E-1,-2.327665687E-2,5.075836182E-2,1.473306208E-1
8.357982875E0,2.207377553E-1,-2.839052677E-2,9.148025513E-2,2.406238054E-1
8.367982875E0,2.954270840E-1,-1.078792959E-1,8.431911469E-2,3.256145229E-1
8.377983375E0,3.241139352E-1,-1.028310508E-1,7.458972931E-2,3.481202317E-1
8.387983375E0,2.968843579E-1,-1.295854151E-1,1.198301315E-1,3.453866851E-1
8.397983375E0,2.360388637E-1,-1.305582225E-1,6.922435760E-2,2.784812495E-1
8.407983375E0,6.876076013E-2,-6.594422460E-2,6.444072723E-2,1.150186516E-1
8.417983375E0,-1.703599095E-2,-4.667791724E-2,5.008029938E-2,7.054848922E-2
8.427982908E0,-3.302108645E-1,-1.089278162E-1,-2.652835846E-2,3.487237273E-1
8.437982908E0,-5.255733728E-1,-1.662194580E-1,1.769981384E-1,5.789513101E-1
8.447982908E0,-6.823152900E-1,-2.543045580E-1,6.926727295E-2,7.314526084E-1
8.457982908E0,-6.284517646E-1,-2.418911010E-1,1.363172531E-1,6.870555426E-1
8.467982908E0,-3.597583771E-1,-2.082525045E-1,2.129402161E-1,4.670532423E-1
8.477982908E0,-2.852485180E-1,-2.254726440E-1,-7.316589355E-3,3.636731536E-1
8.487983341E0,-1.337302923E-1,-1.517753899E-1,4.538249969E-2,2.073140886E-1
8.497983341E0,-2.648273706E-1,-1.497137845E-1,4.300594330E-2,3.072413785E-1
8.507983341E0,5.229142308E-2,-1.188323498E-1,1.196489334E-1,1.765542057E-1
8.517983341E0,2.133226097E-1,5.576103926E-3,3.346824646E-2,2.160040561E-1
8.527983341E0,2.887958288E-1,1.342900246E-1,2.130756378E-1,3.831945575E-1
8.537982907E0,2.773656845E-1,2.066031545E-1,1.196975708E-1,3.659837358E-1
8.547982907E0,3.374749124E-1,3.528499007E-1,4.786872864E-2,4.905953364E-1
8.557982907E0,4.005658627E-1,3.911432028E-1,-2.394294739E-2,5.603742322E-1
8.567982907E0,4.403275251E-1,2.715410590E-1,7.903480530E-2,5.233253066E-1
8.577982907E0,3.836769462E-1,2.714514434E-1,2.637863159E-2,4.707331700E-1
8.587982907E0,-7.588009536E-2,1.988332719E-1,-2.331733704E-3,2.128330234E-1
8.597982907E0,-3.025769591E-1,2.148082852E-2,5.515003204E-2,3.083111549E-1
8.607982907E0,-2.917377353E-1,-1.001973301E-1,2.643299103E-2,3.095950810E-1
8.617982907E0,-1.289531142E-1,-1.314340830E-1,8.389759064E-2,2.023428515E-1
8.627983407E0,-2.476707250E-1,-1.094937027E-1,1.447296143E-2,2.711809830E-1
8.637983407E0,3.564593196E-2,-7.370495796E-2,1.222333908E-1,1.471191868E-1
8.647983407E0,1.965139061E-1,2.412213385E-2,4.802703857E-2,2.037306778E-1
8.657983407E0,4.744561315E-1,1.246985048E-1,1.773223877E-1,5.216335562E-1
8.667983407E0,5.971650481E-1,3.453702927E-1,1.246500015E-1,7.010166593E-1
8.677982907E0,5.503895283E-1,4.725448489E-1,-6.208801270E-2,7.280674340E-1
8.687982907E0,6.514874101E-1,4.861143231E-1,3.610706329E-2,8.136625226E-1
8.697982907E0,8.653160930E-1,4.432728291E-1,5.287551880E-2,9.736829886E-1
8.707982907E0,3.447572291E-1,2.929415703E-1,5.767917633E-2,4.560692908E-1
8.717982907E0,1.424065828E-1,1.168372929E-1,3.612899780E-2,1.877122594E-1
8.727982907E0,-3.903223574E-2,-2.872946858E-2,5.528068542E-2,7.351769837E-2
8.737983340E0,1.023663580E-2,-9.027823806E-3,5.290222168E-2,5.463456208E-2
8.747983340E0,9.266825020E-2,-3.943975270E-2,1.127624512E-1,1.511895138E-1
8.757983340E0,1.757165790E-1,-6.975224614E-2,-1.412010193E-2,1.895812998E-1
8.767983340E0,2.124980241E-1,-2.374508977E-2,9.841728210E-2,2.353830940E-1
8.777983340E0,8.425062895E-2,2.243812382E-2,4.814147949E-2,9.959538105E-2
8.787982906E0,1.622812897E-1,-5.114023387E-2,4.815578461E-2,1.768318979E-1
8.797982906E0,1.823803782E-1,3.810378909E-2,1.415367126E-1,2.339810722E-1
8.807982906E0,3.882316947E-1,2.110090852E-1,1.439189911E-1,4.647164284E-1
8.817982906E0,2.927879691E-1,2.256837934E-1,5.532932281E-2,3.737904539E-1
8.827982906E0,4.326651692E-1,2.323927581E-1,6.493854523E-2,4.954014103E-1
8.837982906E0,3.616533875E-1,1.315584928E-1,-4.517364502E-2,3.874809259E-1
8.847982906E0,4.604710937E-1,5.207790434E-2,3.865051270E-2,4.650156969E-1
8.857982906E0,3.985398412E-1,5.213487148E-2,2.668380737E-2,4.028201527E-1
8.867982906E0,3.218343854E-1,-1.977576315E-2,3.147220612E-2,3.239736906E-1
8.877983406E0,2.405953109E-1,-1.371341944E-1,1.200656891E-1,3.018404555E-1
8.887983406E0,2.262001038E-1,-2.181721628E-1,1.032962799E-1,3.308106724E-1
8.897983406E0,1.020820886E-1,-1.795677245E-1,2.737998962E-3,2.065739991E-1
8.907983406E0,2.455750108E-1,-1.458890289E-1,9.913444519E-3,2.858128252E-1
8.917983406E0,4.490575492E-1,-1.024880409E-1,-9.247779846E-3,4.606973003E-1
8.927982906E0,5.763863325E-1,-4.917901754E-2,7.933425903E-2,5.838952858E-1
8.937982906E0,3.756972551E-1,-6.545941532E-2,6.017780304E-2,3.860760683E-1
8.947982906E0,8.903522789E-2,-1.107648462E-1,1.200447083E-1,1.860291777E-1
8.957982906E0,-1.333211362E-2,-1.416966468E-1,1.607551575E-1,2.147042282E-1
8.967982906E0,3.585904837E-3,-1.270107329E-1,1.176538467E-1,1.731675854E-1
8.977982906E0,6.154134870E-3,-7.915218174E-2,-6.909465790E-2,1.052473895E-1
8.987983339E0,1.863156259E-2,-1.238270104E-2,-4.034614563E-2,4.613326215E-2
8.997983339E0,1.531467736E-1,2.834622562E-2,-1.097717285E-1,1.905446802E-1
9.007983339E0,2.566511929E-1,8.111573756E-2,1.057224274E-1,2.891830378E-1
9.017983339E0,2.831825912E-1,1.147671640E-1,2.431869507E-2,3.065212567E-1
9.027983339E0,2.522027493E-1,1.288476735E-1,-2.008438110E-3,2.832172020E-1
9.037982905E0,3.508868814E-1,4.775859416E-2,1.512279510E-1,3.850615275E-1
9.047982905E0,2.258019745E-1,1.206136197E-1,5.264186859E-2,2.613529095E-1
9.057982905E0,2.556724548E-1,2.154882252E-1,4.994964600E-2,3.380806805E-1
9.067982905E0,1.309468150E-1,2.005239129E-1,3.779029846E-2,2.424562119E-1
9.077982905E0,4.305826873E-2,6.164751947E-2,5.449199677E-2,9.286446508E-2
9.087982905E0,4.927900434E-2,1.015812159E-4,-2.452468872E-2,5.504444517E-2
9.097982905E0,1.648304164E-1,5.085557699E-3,1.335000992E-1,2.121725844E-1
9.107982905E0,1.342684478E-1,-4.081219435E-3,9.758281708E-2,1.660333659E-1
9.117982905E0,-7.594128698E-2,-3.275054693E-2,1.857566833E-2,8.476280344E-2
9.127983405E0,-8.706916124E-2,-1.237761676E-1,5.450248718E-2,1.608480638E-1
9.137983405E0,-2.158422768E-2,-1.374060214E-1,8.561992645E-2,1.633311526E-1
9.147983405E0,-1.363503188E-1,-1.107974797E-1,1.933574677E-1,2.612558157E-1
9.157983405E0,-2.197595835E-1,-1.198238432E-1,-6.523323059E-2,2.586646522E-1
9.167983405E0,-7.307119668E-2,-3.870415688E-2,7.604408264E-2,1.123392810E-1
9.177982905E0,-8.585900068E-2,-2.314709127E-2,3.772640228E-2,9.659625905E-2
9.187982905E0,-1.187230796E-1,1.548503339E-2,-1.107187271E-1,1.630754194E-1
9.197982905E0,-2.140726298E-1,-5.098372698E-2,7.123756409E-2,2.313033112E-1
9.207982905E0,-3.635101914E-1,-1.364399046E-1,9.039211273E-2,3.986555416E-1
9.217982905E0,-2.639601231E-1,-1.979384124E-1,8.320903778E-2,3.402621132E-1
9.227982905E0,-2.535800338E-1,-1.975408942E-1,1.143360138E-1,3.411714561E-1
9.237983338E0,-1.353705674E-1,-1.900888979E-1,1.358890533E-1,2.700459488E-1
9.247983338E0,-3.069917262E-1,-2.160005271E-1,8.321475983E-2,3.844799656E-1
9.257983338E0,-2.533635497E-1,-2.373522073E-1,-5.769729614E-4,3.471735755E-1
9.267983338E0,-6.306055188E-2,-1.624846309E-1,7.125091553E-2,1.882938699E-1
9.277983338E0,7.528796792E-3,-7.576024532E-2,-1.972770691E-2,7.864782243E-2
9.287982904E0,1.593943536E-1,9.935711324E-2,1.191463470E-1,2.224280736E-1
9.297982904E0,1.146593913E-1,7.622703910E-2,1.406860352E-1,1.968499378E-1
9.307982904E0,1.447831988E-1,4.793979228E-2,6.886672974E-2,1.673410434E-1
9.317982904E0,3.038734794E-1,4.344055057E-2,1.598577499E-1,3.460934456E-1
9.327982904E0,3.187361062E-1,1.515802294E-1,-3.168773651E-2,3.543633502E-1
9.337982904E0,1.661434025E-1,1.423977464E-1,1.047859192E-1,2.426125249E-1
9.347982904E0,1.328589618E-1,-4.101082683E-2,1.617813110E-2,1.399825831E-1
9.357982904E0,1.333252937E-1,-1.028606147E-1,-3.171062469E-2,1.713519877E-1
9.367982904E0,-1.223307848E-2,-8.321876824E-2,9.278678894E-2,1.252373738E-1
9.377983404E0,-1.885598302E-1,-1.305321008E-1,-1.495647430E-2,2.298197881E-1
9.387983404E0,-3.699363470E-1,-2.711060643E-1,1.430587769E-1,4.804343999E-1
9.397983404E0,-6.081991792E-1,-3.946518898E-1,9.995460510E-2,7.318792788E-1
9.407983404E0,-7.817614079E-1,-4.564653039E-1,4.250049591E-2,9.062658355E-1
9.417983404E0,-5.723264217E-1,-4.390662909E-1,1.502437592E-1,7.368242178E-1
9.427982904E0,-3.247833252E-1,-1.158800721E-1,2.575778961E-2,3.457974308E-1
9.437982904E0,-3.310359120E-1,7.870662212E-2,2.005376816E-1,3.949618579E-1
9.447982904E0,-7.177944481E-2,1.961467564E-1,-3.169918060E-2,2.112597378E-1
9.457982904E0,-1.674637198E-3,1.916613430E-1,4.731559753E-2,1.974224926E-1
9.467982904E0,-1.353609860E-1,2.202917635E-2,2.005462646E-1,2.429540809E-1
9.477982904E0,-1.848818809E-1,-4.697594047E-2,1.981534958E-1,2.750506440E-1
9.487983337E0,-1.102320403E-1,-7.032757998E-2,7.843303680E-2,1.524756127E-1
9.497983337E0,-2.187356353E-3,-6.714349985E-2,1.694011688E-1,1.822355347E-1
9.507983337E0,-4.734863639E-1,-1.812126786E-1,-3.000259399E-3,5.069875474E-1
9.517983337E0,-2.934042811E-1,-1.570215970E-1,1.646013260E-1,3.712619704E-1
9.527983337E0,-2.804654241E-1,-1.492380798E-1,-1.107397079E-1,3.364463426E-1
9.537982903E0,-1.789197326E-1,-5.368869007E-2,-8.438110352E-2,2.049754053E-1
9.547982903E0,1.116947830E-1,1.889682114E-1,-4.368400574E-2,2.238146595E-1
9.557982903E0,3.110713661E-1,3.235599399E-1,-7.959842682E-2,4.558424498E-1
9.567982903E0,7.085900307E-1,4.722932577E-1,-1.496028900E-2,8.516951116E-1
9.577982903E0,8.984096646E-1,5.465341806E-1,6.166839600E-2,1.053395713E0
9.587982903E0,1.063067436E0,5.062036514E-1,4.967880249E-2,1.178483133E0
9.597982903E0,9.894802570E-1,4.393328726E-1,1.358795166E-1,1.091122264E0
9.607982903E0,7.892184258E-1,8.313025534E-2,1.646127701E-1,8.104774685E-1
9.617982903E0,5.768883228E-1,-1.753293723E-1,2.575397491E-2,6.034929934E-1
9.627983403E0,1.367876530E-1,-3.135966063E-1,1.617050171E-2,3.425130342E-1
9.637983403E0,-9.488968551E-2,-3.177533150E-1,-2.932643890E-2,3.329132944E-1
9.647983403E0,-4.414263368E-1,-3.505527973E-1,4.249572754E-2,5.652878571E-1
9.657983403E0,-6.198561788E-1,-3.258948028E-1,1.071443558E-1,7.084553746E-1
9.667983403E0,-4.536058307E-1,-3.319148123E-1,3.051757812E-2,5.629005372E-1
9.677982903E0,-4.532896280E-1,-3.311458230E-1,3.050613403E-2,5.621918420E-1
9.687982903E0,-8.092570305E-2,1.510606706E-1,-1.737880707E-2,1.722507433E-1
9.697982903E0,2.962150574E-1,3.114497066E-1,2.220697403E-1,4.837967026E-1
9.707982903E0,2.966768742E-1,4.079076648E-1,-1.018238068E-2,5.044893572E-1
9.717982903E0,5.037500858E-1,3.765950799E-1,1.143436432E-1,6.392671366E-1
9.727982903E0,8.378562331E-1,2.263561338E-1,1.263246536E-1,8.770393861E-1
9.737983336E0,6.470358968E-1,1.549752355E-1,-1.849288940E-1,6.905588108E-1
9.747983336E0,2.362579703E-1,8.775146306E-2,4.733753204E-2,2.564351570E-1
9.757983336E0,6.456124783E-2,-6.244167686E-2,1.620960236E-2,9.126811567E-2
9.767983336E0,-1.865356565E-1,-1.237997189E-1,-2.690219879E-2,2.254897998E-1
9.777983336E0,-1.947651505E-1,-6.851871312E-2,1.766309738E-1,2.717108368E-1
9.787982902E0,-4.650450945E-1,-2.161757648E-2,2.412500381E-1,5.243432468E-1
9.797982902E0,-4.043768048E-1,-3.985816240E-2,3.178615570E-1,5.158926660E-1
9.807982902E0,-1.427506953E-1,1.184367836E-1,1.742105484E-1,2.544687562E-1
9.817982902E0,-1.315581799E-2,1.572754383E-1,-2.930927277E-2,1.605231214E-1
9.827982902E0,3.468814194E-1,2.868398428E-1,4.013538361E-2,4.519011657E-1
9.837982902E0,5.266557932E-1,2.945967913E-1,-1.015281677E-2,6.035368039E-1
9.847982902E0,7.407659292E-1,2.636425197E-1,1.430959702E-1,7.991983463E-1
9.857982902E0,6.337170601E-1,2.424814850E-1,1.000013351E-1,6.858533734E-1
9.867982902E0,6.229817867E-1,2.236299068E-1,2.628297806E-1,7.121770393E-1
9.877983368E0,4.392227232E-1,1.069370806E-1,-4.842948914E-2,4.546400282E-1
9.887983368E0,-2.579092979E-4,-4.136832058E-2,-5.080699921E-2,6.551912418E-2
9.897983368E0,-2.604030967E-1,-9.858137369E-2,5.933952332E-2,2.846914804E-1
9.907983368E0,-4.707859755E-1,-2.984077334E-1,3.298091888E-2,5.583675770E-1
9.917983368E0,-6.520785689E-1,-3.984958529E-1,-1.657409668E-1,7.819689719E-1
9.927982868E0,-8.239334822E-1,-4.835001528E-1,6.631851196E-3,9.553443161E-1
9.937982868E0,-6.632441282E-1,-4.869538546E-1,-3.170108795E-2,8.234207849E-1
9.947982868E0,-2.526115179E-1,-3.260809779E-1,-1.059103012E-1,4.258619202E-1
9.957982868E0,9.003464133E-2,-2.290547788E-1,2.388448715E-1,3.429565585E-1
9.967982868E0,4.224625230E-2,-2.117343396E-1,-1.256370544E-2,2.162730290E-1
9.977982868E0,-1.486300826E-1,-2.374905497E-1,1.167268753E-1,3.035091861E-1
9.987983301E0,-1.511161625E-1,-3.105232120E-1,2.459907532E-1,4.239955311E-1
9.997983734E0,-1.504288018E-1,-3.094829917E-1,2.459831238E-1,4.229849214E-1
1.000798373E1,-4.392443001E-1,-2.471136153E-1,-9.398937225E-2,5.126740642E-1
1.001798373E1,-2.325561494E-1,-8.198460937E-2,-1.017189026E-2,2.467940561E-1
1.002798373E1,-1.659435928E-1,1.298759729E-1,-7.006263733E-2,2.220671463E-1
1.003798330E1,-6.955820322E-2,7.324203849E-2,1.142921448E-1,1.525301091E-1
1.004798330E1,2.535830140E-1,1.354336143E-1,5.380783081E-1,6.100613695E-1
1.005798330E1,7.634940743E-2,9.245437384E-2,-1.490821838E-1,1.913179051E-1
1.006798330E1,1.312032342E-1,1.693206131E-1,-3.861236572E-1,4.415600043E-1
1.007798330E1,3.822501302E-1,2.591208816E-1,3.284263611E-2,4.629659081E-1
1.008798330E1,7.770074010E-1,4.464052916E-1,1.764822006E-1,9.133258743E-1
1.009798330E1,7.075334191E-1,4.593107402E-1,-4.141616821E-2,8.445621317E-1
1.010798330E1,4.973191619E-1,1.840170175E-1,-6.774520874E-2,5.345821030E-1
1.011798330E1,5.170897245E-1,1.698018312E-1,1.884517670E-1,5.759587777E-1
1.012798380E1,6.686526537E-2,3.649057448E-2,3.041172028E-2,8.202071975E-2
1.013798380E1,-3.466114402E-1,-2.292239517E-1,1.309843063E-1,4.357063220E-1
1.014798380E1,-1.673328280E-1,-3.073513508E-1,2.578573227E-1,4.346901506E-1
1.015798380E1,-3.106615841E-1,-3.083379865E-1,-8.454418182E-2,4.457921628E-1
1.016798380E1,-3.797948956E-1,-2.863233089E-1,-1.324338913E-1,4.937245544E-1
1.017798333E1,-1.001601815E-1,-2.352186590E-1,2.841444016E-1,3.822275768E-1
1.018798333E1,2.181844264E-1,-5.299958587E-2,2.194919586E-1,3.139906367E-1
1.019795000E1,3.046388030E-1,-5.293294787E-3,-3.668689728E-2,3.068855612E-1
1.020791666E1,7.186080813E-1,2.121475339E-2,-4.866695404E-2,7.205665221E-1
1.021788333E1,8.950887322E-1,1.296980679E-1,1.931285858E-1,9.248265124E-1
1.022785000E1,7.101166248E-1,5.350761116E-2,9.973049164E-2,7.190791725E-1
1.023781666E1,6.934845448E-1,5.150057375E-2,3.986930847E-2,6.965362049E-1
1.024778333E1,6.933322549E-1,5.197115242E-2,3.985691071E-2,6.964188321E-1
1.025775000E1,5.282143354E-1,-6.977617741E-3,4.223537445E-2,5.299461276E-1
1.026771666E1,2.334896624E-1,-1.353637576E-1,4.460811615E-2,2.735519208E-1
1.027768333E1,-5.596135557E-2,-2.161547989E-1,-6.792926788E-2,2.333858518E-1
1.028764956E1,-1.448238045E-1,-2.897072136E-1,-9.189033508E-2,3.366720031E-1
1.029761579E1,-2.002434880E-1,-2.816995084E-1,1.810340881E-1,3.901607471E-1
1.030758246E1,-4.526172578E-2,-1.487326920E-1,1.618432999E-1,2.244176713E-1
1.031754913E1,-9.114968777E-2,-7.921753824E-2,1.714115143E-1,2.096797348E-1
1.032751579E1,4.209605753E-1,9.574407339E-2,9.957408905E-2,4.430459714E-1
1.033748246E1,4.570643306E-1,1.028331965E-1,-6.083679199E-2,4.724230983E-1
1.034744962E1,7.110100985E-1,1.672001928E-1,1.546564102E-1,7.465988681E-1
1.035741629E1,6.197935343E-1,1.772370189E-1,8.760261536E-2,6.505622216E-1
1.036738296E1,3.686265945E-1,4.607138038E-2,1.450605392E-1,3.988116076E-1
1.037734962E1,3.088431358E-1,4.450473189E-2,1.594133377E-1,3.503960130E-1
1.038731629E1,-1.533501595E-1,-6.051354110E-2,1.019420624E-1,1.938307101E-1
1.039728295E1,-2.106795013E-1,-1.101510525E-1,9.474945068E-2,2.559229670E-1
1.040724962E1,-2.539982796E-1,-1.260337532E-1,1.306428909E-1,3.121973701E-1
1.041721628E1,-2.537425756E-1,-1.264418066E-1,1.306562424E-1,3.121600212E-1
1.042718245E1,-9.629371762E-2,-1.113981009E-2,2.479572296E-1,2.662317846E-1
1.043714912E1,-1.905090213E-1,-2.657930553E-2,7.313537598E-2,2.057885563E-1
1.044711578E1,-1.042551696E-1,9.736746550E-3,1.305913925E-1,1.673859505E-1
1.045708245E1,-1.284787208E-1,-2.079285681E-2,1.564979553E-2,1.310879121E-1
1.046704912E1,1.283494830E-1,7.029822469E-2,2.143850327E-1,2.595695907E-1
1.047701578E1,-5.364845693E-2,4.202994704E-2,1.042385101E-1,1.245405170E-1
1.048698245E1,-1.707552820E-1,-7.534772158E-4,2.762126923E-2,1.729764972E-1
1.049698245E1,-9.005136788E-2,-6.976440549E-3,2.280139923E-2,9.315483555E-2
1.050698245E1,-1.069740504E-1,-3.508576751E-2,1.233463287E-1,1.669993274E-1
1.051698245E1,-2.628415227E-1,-1.420945823E-1,-7.539653778E-2,3.081577101E-1
1.052698245E1,-1.614919305E-2,-1.394157559E-1,3.234291077E-2,1.440264326E-1
1.053698245E1,-3.113663197E-2,-1.295887679E-1,8.739471436E-2,1.593755775E-1
1.054698245E1,-1.007402539E-1,-2.135321349E-1,5.387496948E-2,2.421715998E-1
1.055698245E1,8.604871482E-2,-1.893547624E-1,1.316833496E-2,2.084058839E-1
1.056698245E1,2.175912261E-2,-9.359392524E-2,-5.978584290E-3,9.627577955E-2
1.057698245E1,-2.131125629E-1,-1.555343866E-1,6.105041504E-2,2.708044739E-1
1.058698245E1,-2.304401845E-1,-2.509315610E-1,1.280727386E-1,3.639669673E-1
1.059698291E1,-3.258304298E-2,-2.842234373E-1,1.615724564E-1,3.285578726E-1
1.060698291E1,5.199033022E-1,-5.379840732E-2,4.183769226E-2,5.243511274E-1
1.061698291E1,5.765670538E-1,7.098247111E-2,3.510475159E-3,5.809306346E-1
1.062698291E1,3.076488376E-1,-3.396402299E-2,9.686565399E-2,3.243213176E-1
1.063698291E1,1.632402241E-1,-1.562738717E-1,-1.309394836E-3,2.259880710E-1
1.064698241E1,2.342493832E-1,-1.304018199E-1,-1.568317413E-2,2.685579456E-1
1.065698241E1,3.389204741E-1,-7.255860418E-2,1.207714081E-1,3.670389241E-1
1.066698241E1,4.221290350E-1,2.104216814E-2,-1.785268784E-1,4.588110083E-1
1.067698241E1,5.227039456E-1,5.902440846E-2,1.303405762E-1,5.419335396E-1
1.068698241E1,8.548054695E-1,1.365848184E-1,-8.996200562E-2,8.703108443E-1
1.069698241E1,1.110102892E0,3.332037330E-1,4.888534546E-2,1.160061608E0
1.070698241E1,8.572744131E-1,3.220511973E-1,1.470098495E-1,9.274957083E-1
1.071698241E1,8.822184205E-1,2.842627764E-1,1.493701935E-1,9.388429699E-1
1.072698241E1,4.820915759E-1,7.809729874E-2,5.713462830E-3,4.884097862E-1
1.073698241E1,2.975714803E-1,3.005017340E-2,1.493692398E-1,3.343096897E-1
1.074698241E1,-1.366445273E-1,-1.515376568E-1,-2.782821655E-2,2.059363929E-1
1.075698241E1,-3.646624088E-2,-2.304666936E-1,7.511806488E-2,2.451273287E-1
1.076698241E1,2.517776191E-2,-2.085036933E-1,1.763725281E-2,2.107576393E-1
1.077698241E1,2.257849276E-2,-1.341432780E-1,-8.706092834E-3,1.363084862E-1
1.078698241E1,4.724156857E-1,4.785056412E-2,1.205787659E-1,4.899035572E-1
1.079698241E1,5.533930659E-1,1.083282232E-1,3.676128387E-2,5.650931617E-1
1.080698241E1,8.572180271E-1,2.471091449E-1,-1.548767090E-3,8.921255933E-1
1.081698241E1,9.451186657E-1,2.544250190E-1,7.265949249E-2,9.814584986E-1
1.082698241E1,8.606593609E-1,1.872248501E-1,-1.572608948E-3,8.807895055E-1
1.083698241E1,6.634795666E-1,1.367774159E-1,1.253137589E-1,6.889243318E-1
1.084698291E1,3.943850994E-1,9.623777866E-2,3.910064697E-2,4.078359686E-1
1.085698291E1,2.402910739E-1,9.182748199E-2,7.020473480E-2,2.666473166E-1
1.086698291E1,1.364150196E-1,4.912103713E-2,5.821037292E-2,1.562382200E-1
1.087698291E1,1.814192533E-1,8.019119501E-2,9.411811829E-2,2.195490684E-1
1.088698291E1,1.494282782E-1,1.720651984E-3,7.493972778E-2,1.671757571E-1
1.089698245E1,2.397207618E-1,4.555150867E-3,7.013225555E-2,2.498105808E-1
1.090698245E1,1.361479461E-1,-5.019056797E-2,9.166431427E-2,1.716324645E-1
1.091698245E1,1.858599633E-1,-1.127342880E-2,1.981639862E-2,1.872530529E-1
1.092698245E1,2.213344574E-1,4.183447361E-2,5.092811584E-2,2.309388192E-1
1.093698245E1,1.250340939E-1,5.904610455E-2,5.330562592E-2,1.481939838E-1
1.094698245E1,4.556064308E-2,8.843627572E-2,8.920097351E-2,1.336172172E-1
1.095698245E1,8.102224767E-2,1.033563167E-1,1.735496521E-2,1.324701009E-1
1.096698245E1,3.298936784E-1,1.588073075E-1,5.805015564E-2,3.707012551E-1
1.097698245E1,1.884690076E-1,1.498790383E-1,5.085468292E-2,2.461107306E-1
1.098698245E1,-1.397754550E-1,-1.935744286E-2,5.323123932E-2,1.508159582E-1
1.099698245E1,-4.391450286E-1,-9.296119213E-2,1.730537415E-2,4.492099903E-1
1.100698245E1,-6.233443022E-1,-1.403585374E-1,7.236862183E-2,6.430364340E-1
1.101698245E1,-5.870969892E-1,-1.397079527E-1,3.644943237E-2,6.045905622E-1
1.102698245E1,-4.932358861E-1,-1.678914726E-1,7.475662231E-2,5.263627442E-1
1.103698245E1,-2.775937021E-1,-8.087746799E-2,3.404426575E-2,2.911330285E-1
1.104698245E1,-5.694095790E-2,-4.233483970E-2,4.122829437E-2,8.206268090E-2
1.105698245E1,-3.776423633E-2,-2.752113342E-2,6.276893616E-2,7.825272952E-2
1.106698245E1,-7.392407954E-2,-6.055278331E-2,1.226148605E-1,1.554535723E-1
1.107698245E1,-1.698502302E-1,-1.322738826E-1,-9.074211121E-3,2.154711629E-1
1.108698245E1,-1.152271926E-1,-1.702614278E-1,1.225976944E-1,2.393667779E-1
1.109698291E1,9.272576869E-2,-1.220458746E-1,1.034326553E-1,1.849096479E-1
1.110698291E1,1.309055090E-1,-6.417303532E-2,1.752529144E-1,2.279649420E-1
1.111698291E1,2.887073457E-1,-3.504298627E-2,1.704549789E-1,3.370976746E-1
1.112698291E1,3.242623210E-1,-5.165189505E-2,3.876018524E-2,3.306301908E-1
1.113698291E1,5.950058699E-1,-1.573544741E-2,7.467746735E-2,5.998802494E-1
1.114698241E1,5.010824203E-1,3.990231454E-2,-2.350521088E-2,5.032179266E-1
1.115698241E1,2.779756784E-1,6.979286671E-3,1.057691574E-1,2.975000889E-1
1.116698241E1,1.860263944E-2,-9.310109168E-2,1.703948975E-1,1.950597153E-1
1.117698241E1,-2.960832417E-2,-1.023515239E-1,-1.397514343E-2,1.074606530E-1
1.118698241E1,2.962252796E-1,1.718437672E-2,2.673339844E-2,2.979251477E-1
1.119698241E1,2.716760635E-1,2.704848349E-2,6.742191315E-2,2.812209422E-1
1.120698241E1,2.998037934E-1,1.313494146E-2,4.346179962E-2,3.032223100E-1
1.121698241E1,3.640374541E-1,3.248891234E-2,5.063533783E-2,3.689752497E-1
1.122698241E1,2.169414759E-1,3.889384866E-2,6.224822998E-2,2.290222206E-1
1.123698241E1,2.611066997E-1,7.552991807E-2,5.958652496E-2,2.782661156E-1
1.124698241E1,1.481567919E-1,1.156505197E-1,8.093833923E-2,2.046374659E-1
1.125698241E1,1.717066467E-1,8.954010904E-2,3.054428101E-2,1.960447825E-1
1.126698241E1,1.415178031E-1,-4.041458666E-2,6.400299072E-2,1.604899069E-1
1.127698241E1,2.159805000E-1,-7.576532662E-2,6.395721436E-2,2.376520279E-1
1.128698241E1,5.967097282E-1,4.164357483E-2,6.629276276E-2,6.018234106E-1
1.129698241E1,6.915223598E-1,5.770368874E-2,6.386566162E-2,6.968584595E-1
1.130698241E1,7.587347031E-1,5.885829031E-2,-1.512050629E-2,7.611644222E-1
1.131698241E1,1.095545173E0,1.310975850E-1,7.359886169E-2,1.105813092E0
1.132698241E1,1.085360289E0,8.223499358E-2,6.675624847E-2,1.090516367E0
1.133698241E1,8.767039776E-1,1.260994822E-1,6.498241425E-2,8.881067829E-1
1.134698291E1,3.525075912E-1,-9.840726852E-4,5.392265320E-2,3.566093420E-1
1.135698291E1,1.009467691E-1,-1.545048952E-1,5.393028259E-2,1.922771131E-1
1.136698291E1,-5.472622812E-2,-1.642913967E-1,7.069587708E-2,1.870415198E-1
1.137698291E1,-1.240749732E-1,-1.332897693E-1,5.633068085E-2,1.906145513E-1
1.138698291E1,-9.287498146E-2,-1.837158203E-1,5.154323578E-2,2.122120872E-1
1.139698244E1,-1.260419786E-1,-1.529389769E-1,6.830310822E-2,2.096240101E-1
1.140698244E1,-1.784776151E-1,-1.197059974E-1,7.069683075E-2,2.262340089E-1
1.141698244E1,-2.718082070E-1,-5.766947567E-2,2.760410309E-2,2.792265323E-1
1.142698244E1,-2.811572552E-1,-4.603816569E-2,5.154895782E-2,2.895275633E-1
1.143698244E1,-2.905085683E-1,-2.950252593E-2,6.112480164E-2,2.983318097E-1
1.144698245E1,-2.661250830E-1,-1.758006215E-2,1.802062988E-2,2.673132273E-1
1.145698245E1,-2.537857294E-1,-2.716073394E-2,2.358922958E-1,3.475486688E-1
1.146698245E1,-3.066694736E-1,-4.813237488E-2,9.462451935E-2,3.245253322E-1
1.147698244E1,-4.149183035E-1,4.436671734E-4,7.786178589E-2,4.221609327E-1
1.148698244E1,-2.807956636E-1,-8.559236676E-2,-5.942344666E-3,2.936112556E-1
1.149698244E1,-3.212184906E-1,-4.220338166E-2,9.221172333E-2,3.368463241E-1
1.150698244E1,-2.827152610E-1,-5.172570050E-2,6.587123871E-2,2.948601142E-1
1.151698244E1,-3.015623391E-1,-6.371383369E-2,6.586551666E-2,3.151786212E-1
1.152698245E1,-3.010957241E-1,-6.372825801E-2,6.585693359E-2,3.147333183E-1
1.153698245E1,-2.721430361E-1,-8.051372319E-2,5.148887634E-2,2.884361214E-1
1.154698245E1,-3.126180768E-1,-1.575231552E-2,6.105899811E-2,3.189144064E-1
1.155698245E1,-2.789317369E-1,-4.677514732E-2,4.908180237E-2,2.870537434E-1
1.156698244E1,-2.738585472E-1,-3.702493012E-2,4.667949677E-2,2.802647405E-1
1.157698244E1,-2.352353930E-1,-3.951130807E-2,5.810642242E-2,2.455059876E-1
1.158698244E1,-2.112411708E-1,-2.576701343E-2,4.571056366E-2,2.176608068E-1
1.159698294E1,-2.018101811E-1,-1.741337776E-2,5.256748199E-2,2.092699575E-1
1.160698294E1,-1.848371327E-1,-3.589497507E-2,5.231761932E-2,1.954235097E-1
1.161698294E1,-1.791927367E-1,-9.095728397E-3,6.169986725E-2,1.897357183E-1
1.162698294E1,-1.535454541E-1,-1.629209518E-2,6.873607635E-2,1.690156414E-1
1.163698295E1,-1.626882553E-1,-9.409368038E-3,5.905056000E-2,1.733290895E-1
1.164698244E1,-1.490044296E-1,-2.203385532E-2,4.460716248E-2,1.570910875E-1
1.165698244E1,-1.338340342E-1,-2.517181635E-2,6.131172180E-2,1.493462295E-1
1.166698244E1,-1.053304151E-1,-2.587506175E-2,4.930305481E-2,1.191419589E-1
1.167698244E1,-1.164669022E-1,-1.228435338E-2,4.688453674E-2,1.261491357E-1
1.168698244E1,-7.798925042E-2,-6.026595831E-3,4.687309265E-2,9.119062371E-2
1.169698245E1,-6.214915216E-2,-2.167761326E-2,5.405712128E-2,8.517398894E-2
1.170698245E1,-5.225870386E-2,1.194611192E-3,5.166435242E-2,7.349560895E-2
1.171698245E1,-4.324147850E-2,-9.751945734E-3,6.124973297E-2,7.560724633E-2
1.172698244E1,-2.567917109E-2,-4.127159715E-3,4.929161072E-2,5.573254132E-2
1.173698244E1,-6.731983274E-3,-2.008795738E-2,4.930114746E-2,5.366049545E-2
1.174698244E1,-4.875177145E-2,2.390518785E-3,6.845855713E-2,8.407748714E-2
1.175698244E1,-4.265616834E-2,-2.575296164E-2,4.213428497E-2,6.525382518E-2
1.176698244E1,-3.696581349E-2,-3.288760781E-3,3.256416321E-2,4.937319151E-2
1.177698245E1,-4.579526186E-2,-1.406073570E-4,5.651473999E-2,7.274023381E-2
1.178698245E1,-5.218898505E-2,4.318356514E-4,5.413436890E-2,7.519578804E-2
1.179698245E1,-5.856203288E-2,-2.548065782E-2,3.978347778E-2,7.524294467E-2
1.180698245E1,-2.869988233E-2,1.351547241E-2,6.613731384E-2,7.335186107E-2
1.181698244E1,-3.994188458E-2,6.662711501E-3,4.460620880E-2,6.024499757E-2
1.182698244E1,-2.275835723E-2,2.121947706E-2,4.941558838E-2,5.839614204E-2
1.183698244E1,-3.967580944E-2,-3.638037294E-2,4.943466187E-2,7.308547861E-2
1.184698294E1,-4.418930411E-2,2.387565374E-2,5.424022675E-2,7.392390437E-2
1.185698294E1,-1.735728234E-2,-4.799316823E-2,4.229450226E-2,6.628306246E-2
1.186698294E1,-1.716427505E-2,1.969397068E-2,6.625080109E-2,7.121540187E-2
1.187698294E1,-8.285120130E-4,-1.359726489E-2,4.232311249E-2,4.446142030E-2
1.188698295E1,-2.354222536E-2,3.954471648E-2,6.866455078E-2,8.266100356E-2
1.189698244E1,1.136732846E-2,-3.489176184E-2,4.713249207E-2,5.973376774E-2
1.190698244E1,-2.123566717E-2,8.621975780E-3,5.671215057E-2,6.116829284E-2
1.191698244E1,-3.362752497E-3,-3.295242786E-3,5.672264099E-2,5.691770138E-2
1.192698244E1,-9.651534259E-3,1.644164324E-3,5.672836304E-2,5.756702670E-2
1.193698244E1,-1.641795039E-3,6.543084979E-3,4.955291748E-2,5.000998983E-2
1.194698245E1,1.333568245E-2,-1.016771793E-2,5.913543701E-2,6.146725002E-2
1.195698245E1,1.331837475E-2,-1.006369293E-2,5.913448334E-2,6.144545663E-2
1.196698245E1,1.311644167E-2,-2.443690598E-2,6.392002106E-2,6.967763277E-2
1.197694911E1,1.122780144E-3,1.698568463E-2,5.912208557E-2,6.152393941E-2
1.198691578E1,3.443716466E-2,2.656340599E-3,5.433082581E-2,6.438022280E-2
1.199688244E1,7.551543415E-3,-2.615469694E-2,3.517246246E-2,4.447691644E-2
1.200684911E1,7.237300277E-3,1.244491339E-2,7.107925415E-2,7.252251206E-2
1.201681578E1,9.600915015E-3,4.091262817E-4,5.432033539E-2,5.516379057E-2
1.202678244E1,-2.868950367E-3,7.657051086E-3,5.670833588E-2,5.729482233E-2
1.203674911E1,-2.013728023E-2,4.418790340E-4,4.952144623E-2,5.346100400E-2
1.204671577E1,-1.053348929E-2,1.491542161E-2,7.106876373E-2,7.337706302E-2
1.205668244E1,-2.012751997E-2,-1.854822040E-3,5.430889130E-2,5.794836580E-2
1.206664960E1,-5.277276039E-3,-1.155139506E-2,5.670928955E-2,5.811392167E-2
1.207661627E1,-5.250036716E-3,-1.155784726E-2,5.670928955E-2,5.811273733E-2
1.208658294E1,-4.802502692E-3,-1.404836774E-2,5.671501160E-2,5.862604548E-2
1.209654960E1,-6.676718593E-3,5.305647850E-3,5.911159515E-2,5.972360632E-2
1.210651627E1,-4.242405295E-3,5.352854729E-3,6.389999390E-2,6.426398895E-2
1.211648294E1,-1.625762880E-2,-1.833662391E-3,6.389999390E-2,6.596121612E-2
1.212644960E1,-1.848414540E-3,2.958223224E-3,6.629467010E-2,6.638637665E-2
1.213641627E1,5.845531821E-3,-9.024932981E-3,6.630039215E-2,6.716667073E-2
1.214638243E1,-5.565397441E-3,1.037631929E-2,4.954242706E-2,5.092242856E-2
1.215634910E1,-1.517270505E-2,7.349997759E-4,5.672550201E-2,5.872421802E-2
1.216631576E1,-1.917853951E-4,1.738561690E-2,5.673217773E-2,5.933663663E-2
1.217628243E1,7.091574371E-3,2.223502100E-2,7.109928131E-2,7.483177392E-2
1.218624910E1,-4.853002727E-3,7.862553000E-3,4.476165771E-2,4.570533204E-2
1.219621576E1,-1.887355000E-2,2.274215221E-3,5.435371399E-2,5.758219489E-2
1.220618290E1,-2.073198557E-3,1.417843997E-2,6.872081757E-2,7.019883959E-2
1.221614956E1,-3.033432364E-2,3.900110722E-3,5.915832520E-2,6.659646758E-2
1.222611623E1,-5.708523095E-3,-3.694951534E-3,6.635379791E-2,6.670132233E-2
1.223608289E1,-2.970106900E-3,8.662194014E-4,5.199337006E-2,5.208533768E-2
1.224604956E1,1.436570287E-2,-4.192903638E-3,4.242610931E-2,4.498809411E-2
1.225601623E1,-9.540125728E-3,1.493784785E-2,4.482078552E-2,4.819809241E-2
1.226598289E1,1.209212095E-2,7.805585861E-3,5.200386047E-2,5.395876262E-2
1.227598289E1,1.930437237E-2,1.744627953E-2,7.355213165E-2,7.801889215E-2
1.228598289E1,-9.701915085E-3,1.532584429E-4,5.679607391E-2,5.761896091E-2
1.229598289E1,1.412500441E-2,-1.234640181E-2,5.440902710E-2,5.755251182E-2
1.230598289E1,-1.490905881E-2,1.836240292E-3,5.919647217E-2,6.107269545E-2
1.231598339E1,1.384902745E-2,-5.353420973E-3,7.356166840E-2,7.504514464E-2
1.232598339E1,-2.813488245E-3,-1.972901821E-2,6.159114838E-2,6.473499389E-2
1.233598339E1,-5.282163620E-4,-2.599477768E-3,6.398010254E-2,6.403506710E-2
1.234598339E1,6.677947938E-3,2.111256123E-3,6.158638000E-2,6.198334126E-2
1.235598339E1,-4.613250494E-4,2.126893401E-2,4.722213745E-2,5.179295937E-2
1.236598289E1,-2.885513008E-3,9.233728051E-3,7.116603851E-2,7.182056082E-2
1.237598289E1,-3.005154431E-3,-8.011117578E-3,4.962253571E-2,5.035479131E-2
1.238598289E1,-2.833664417E-3,1.120100915E-2,6.398868561E-2,6.502341229E-2
1.239598289E1,4.362352192E-3,6.351590157E-3,5.680656433E-2,5.732677006E-2
1.240598289E1,-7.499121130E-3,1.357772946E-2,6.399059296E-2,6.584365985E-2
1.241598289E1,-2.182683349E-2,1.788501441E-2,5.920886993E-2,6.558944031E-2
1.242598289E1,-2.149538696E-2,1.737502217E-2,5.921936035E-2,6.535193720E-2
1.243598289E1,-1.610986888E-2,-2.082750201E-3,4.965305328E-2,5.224262076E-2
1.244598289E1,-1.564823836E-2,-2.239122987E-3,4.965972900E-2,5.211496638E-2
1.245598336E1,-1.217968762E-2,-7.478266954E-3,5.446624756E-2,5.631022456E-2
1.246598336E1,-1.402968913E-2,-2.796173096E-3,6.165504456E-2,6.329293231E-2
1.247598336E1,1.562682539E-2,-1.010718942E-2,6.406116486E-2,6.670971288E-2
1.248598336E1,2.345740050E-2,4.397690296E-3,6.167125702E-2,6.612815785E-2
1.249598336E1,6.733432412E-3,-7.597953081E-3,6.406688690E-2,6.486627784E-2
1.250598289E1,9.100303054E-3,-1.956306398E-2,4.491233826E-2,4.982616898E-2
1.251598289E1,-5.384109914E-3,4.651546478E-3,6.645584106E-2,6.683565168E-2
1.252598289E1,-4.275217652E-4,1.182144880E-2,5.927562714E-2,6.044443232E-2
1.253598289E1,6.852731109E-3,-1.213127375E-2,5.448722839E-2,5.624042838E-2
1.254598289E1,-2.428069711E-4,9.424030781E-3,4.251766205E-2,4.355023418E-2
1.255598289E1,1.844078302E-3,-9.526401758E-3,5.208873749E-2,5.298480469E-2
1.256598339E1,-7.963493466E-3,-1.397305727E-2,4.250431061E-2,4.544535155E-2
1.257598339E1,-3.133952618E-3,3.246650100E-3,4.489135742E-2,4.511758379E-2
1.258598339E1,-5.559772253E-3,9.019225836E-4,4.249763489E-2,4.286926058E-2
1.259598339E1,-5.473308265E-3,-6.274536252E-3,5.686283112E-2,5.746919584E-2
1.260598339E1,1.372094452E-2,8.138164878E-3,5.446910858E-2,5.675718312E-2
1.261598289E1,6.508804858E-3,-1.387760043E-3,6.165027618E-2,6.200844275E-2
1.262598289E1,-5.421735346E-3,-8.522793651E-3,4.728507996E-2,4.835195976E-2
1.263598289E1,1.845613122E-3,-1.588381827E-2,5.686473846E-2,5.907030092E-2
1.264598289E1,4.094310105E-3,-8.307695389E-3,5.685806274E-2,5.760746893E-2
1.265598289E1,-8.539482951E-4,1.722782850E-3,6.642818451E-2,6.645600730E-2
1.266598289E1,-2.961594611E-2,1.658350229E-3,5.685138702E-2,6.412436819E-2
1.267598289E1,-4.519149661E-4,9.148642421E-3,6.642913818E-2,6.705767879E-2
1.268598289E1,4.434071481E-3,-1.001556218E-2,5.445861816E-2,5.554919953E-2
1.269598289E1,-3.814622760E-4,1.165415347E-2,4.727363586E-2,4.869046574E-2
1.270598336E1,9.165428579E-3,1.398421824E-2,5.685138702E-2,5.925912290E-2
1.271598336E1,2.117683738E-2,4.454329610E-3,5.445671082E-2,5.859891506E-2
1.272598336E1,1.647273451E-2,1.996606588E-3,5.924701691E-2,6.152679443E-2
1.273598336E1,1.183896512E-2,-1.004174352E-2,4.967308044E-2,5.204241183E-2
1.274598336E1,1.591689885E-3,2.051383257E-3,5.445289612E-2,5.451476447E-2
1.275598289E1,-1.249857247E-3,-2.869814634E-3,5.684375763E-2,5.692987582E-2
1.276598289E1,-1.809764653E-2,1.388253272E-2,5.923652649E-2,6.347610255E-2
1.277598289E1,3.477118909E-3,-4.901736975E-4,5.444908142E-2,5.456219473E-2
1.278598289E1,-2.515678108E-2,-4.999786615E-4,6.881523132E-2,7.327106984E-2
1.279598289E1,-1.561369747E-2,-5.208253860E-4,5.205535889E-2,5.434904964E-2
1.280598289E1,4.044979811E-3,-2.953886986E-3,6.403255463E-2,6.422815085E-2
1.281598339E1,-5.491763353E-3,1.882091165E-3,5.445575714E-2,5.476432432E-2
1.282598339E1,6.509050727E-3,-1.481427252E-2,4.966735840E-2,5.223673901E-2
1.283598339E1,1.139198244E-2,-4.144608974E-4,6.882095337E-2,6.975867447E-2
1.284598339E1,2.340692282E-2,-2.805441618E-3,4.248428345E-2,4.858671504E-2
1.285598339E1,-1.027226448E-3,-4.992529750E-3,6.402492523E-2,6.422749877E-2
1.286598289E1,-3.334239125E-3,2.197131515E-3,5.923748016E-2,5.937190913E-2
1.287598289E1,6.339348853E-3,2.186521888E-3,6.163215637E-2,6.199589439E-2
1.288598289E1,-7.999084890E-3,6.968826056E-3,5.445098877E-2,5.547485983E-2
1.289598289E1,-1.118965447E-3,-2.562150359E-3,4.965877533E-2,4.973741716E-2
1.290598289E1,-1.096002758E-3,4.657357931E-3,4.486846924E-2,4.512285160E-2
1.291598289E1,-2.254353464E-2,-4.973426461E-3,6.881332397E-2,7.258250120E-2
1.292598289E1,-2.658331394E-2,1.198707521E-2,4.966449738E-2,5.759274999E-2
1.293598289E1,-4.934750497E-3,-9.501114488E-3,5.205821991E-2,5.314772995E-2
1.294598289E1,-9.065017104E-3,1.684406400E-2,4.967212677E-2,5.322797389E-2
1.295598336E1,-1.191131771E-3,-1.945446432E-2,3.771400452E-2,4.245281043E-2
1.296598336E1,1.628411561E-2,9.571701288E-3,6.165885925E-2,6.448724534E-2
1.297598336E1,1.644205302E-2,9.575381875E-3,5.447864532E-2,5.770573491E-2
1.298598336E1,1.396016777E-2,1.435689628E-2,5.926609039E-2,6.255778309E-2
1.299598336E1,9.255409241E-3,-2.352505922E-3,5.926704407E-2,6.003148671E-2
1.300598289E1,1.131332666E-2,-7.344365120E-3,6.884193420E-2,7.015085861E-2
1.301598289E1,2.331149578E-2,2.225935459E-3,6.644916534E-2,7.045475285E-2
1.302598289E1,-3.758698702E-3,-2.639144659E-3,6.644248962E-2,6.660103098E-2
1.303598289E1,5.447760224E-3,2.154558897E-3,5.446624756E-2,5.478040104E-2
1.304598289E1,1.447555423E-2,-2.052336931E-4,5.446052551E-2,5.635186448E-2
1.305598289E1,-7.692083716E-3,1.180435717E-2,6.402969360E-2,6.556151816E-2
1.306598339E1,-9.699836373E-4,-7.422119379E-3,7.120895386E-2,7.160128374E-2
1.307598339E1,-1.063436270E-2,-1.461176574E-2,4.726505280E-2,5.060215987E-2
1.308598339E1,1.793146133E-2,2.460688353E-3,5.923080444E-2,6.193448545E-2
1.309598339E1,-5.916997790E-3,-1.916842163E-2,5.923271179E-2,6.253761585E-2
1.310598339E1,2.028378844E-2,4.762560129E-4,5.922508240E-2,6.260406759E-2
1.311598289E1,3.560781479E-3,1.481844485E-2,6.401348114E-2,6.580266894E-2
1.312598289E1,-4.005864263E-3,-1.875609159E-3,6.161403656E-2,6.177260201E-2
1.313598289E1,-1.834785938E-2,-4.347354174E-3,5.203819275E-2,5.534904639E-2
1.314598289E1,3.227375448E-3,-1.632539928E-2,5.682754517E-2,5.921405664E-2
1.315598289E1,-3.797233105E-3,-6.744250655E-3,5.204010010E-2,5.261250720E-2
1.316598289E1,1.088432968E-3,4.284083843E-4,6.640815735E-2,6.641845815E-2
1.317598289E1,1.057855785E-3,4.785656929E-4,6.640720367E-2,6.641735303E-2
1.318598289E1,3.434717655E-3,-1.389764249E-2,6.880092621E-2,7.027452739E-2
1.319598289E1,-1.327067614E-3,4.611909389E-4,4.485893250E-2,4.488092724E-2
1.320598336E1,-1.342296600E-3,-1.415342093E-3,6.400585175E-2,6.403556833E-2
1.321598336E1,8.275352418E-3,2.257482708E-2,7.118892670E-2,7.513965371E-2
1.322598336E1,6.035014987E-3,-1.320764422E-3,5.442905426E-2,5.477853386E-2
1.323598336E1,-1.060545444E-3,-1.089090109E-2,5.921840668E-2,6.022089482E-2
1.324598336E1,-1.055619121E-2,9.464174509E-4,8.076953888E-2,8.146193767E-2
1.325598289E1,-1.045609266E-2,-6.176128983E-3,4.724979401E-2,4.878542279E-2
1.326598289E1,-1.484891772E-2,-5.845308304E-3,5.203819275E-2,5.443006055E-2
1.327598289E1,9.235419333E-3,-8.245646954E-3,5.682849884E-2,5.816151601E-2
1.328598289E1,6.884709001E-3,-8.242338896E-3,5.922317505E-2,6.018903415E-2
1.329598289E1,-7.398597896E-3,-7.734209299E-3,4.964065552E-2,5.078141318E-2
1.330598289E1,3.105130047E-2,-6.722211838E-4,9.992313385E-2,1.046387491E-1
1.331598339E1,1.180982590E-2,6.503790617E-3,2.570056915E-2,2.902224207E-2
1.332598339E1,-1.788139343E-4,-1.505523920E-2,2.570056915E-2,2.978609502E-2
1.333598339E1,1.655368507E-2,6.614059210E-3,6.640052795E-2,6.875173002E-2
1.334598339E1,-1.041334122E-2,-5.073577166E-3,4.963016510E-2,5.096402799E-2
1.335598339E1,3.038324416E-2,2.143025398E-3,6.639099121E-2,7.304449190E-2
1.336598289E1,-1.084925234E-2,4.652351141E-3,6.398868561E-2,6.506844499E-2
1.337598289E1,1.797819138E-2,-3.246963024E-5,5.201721191E-2,5.503641299E-2
1.338598289E1,-1.608252525E-3,4.861220717E-3,5.440521240E-2,5.464563184E-2
1.339598289E1,2.676524222E-3,1.921994984E-2,4.242897034E-2,4.665605832E-2
1.340598289E1,-2.647338808E-2,-5.022034049E-3,5.200576782E-2,5.857184468E-2
1.341594955E1,-7.238350809E-3,-1.455081999E-2,5.679416656E-2,5.907366114E-2
1.342591672E1,-1.943558455E-3,-1.171399653E-2,4.003429413E-2,4.175811107E-2
1.343588339E1,3.141687810E-2,-2.590167522E-2,4.481792450E-2,6.055215410E-2
1.344585005E1,1.669255644E-2,-1.346045732E-2,8.790588379E-2,9.048353307E-2
1.345581672E1,1.765415072E-3,2.097976208E-2,5.436801910E-2,5.830221787E-2
1.346578338E1,1.611017436E-2,6.600812078E-3,4.000091553E-2,4.362547055E-2
1.347575055E1,5.420178548E-2,-9.144435823E-2,2.323818207E-2,1.088113841E-1
1.348571722E1,9.318684787E-2,-3.715067357E-2,5.671787262E-2,1.152426928E-1
1.349568388E1,9.497297555E-2,2.704222500E-2,6.863403320E-2,1.202571351E-1
1.350565008E1,-6.597280502E-3,4.715718329E-2,5.422306061E-2,7.216276289E-2
1.351561675E1,-7.602296025E-2,8.290769160E-2,4.941463470E-2,1.228616374E-1
1.352558341E1,-7.174149156E-3,4.948496819E-3,5.660915375E-2,5.727610606E-2
1.353555035E1,2.128670365E-2,6.869441271E-2,6.380081177E-2,9.613838813E-2
1.354551701E1,2.047109604E-2,6.682632864E-2,6.381797791E-2,9.464437794E-2
1.355548368E1,7.282333821E-2,1.673774421E-2,5.184078217E-2,9.094425416E-2
1.356545034E1,1.968733668E-1,1.671276987E-2,4.944419861E-2,2.036741712E-1
1.357541701E1,2.059937418E-1,2.856443822E-2,3.746986389E-2,2.113133679E-1
1.358538368E1,1.674299687E-1,1.891905069E-2,4.225635529E-2,1.737133399E-1
1.359535034E1,1.410199404E-1,-1.709228754E-2,4.465103149E-2,1.489042796E-1
1.360531701E1,1.311888397E-1,1.901879907E-3,4.465007782E-2,1.385920570E-1
1.361528318E1,3.763792291E-2,-3.902750462E-2,3.746986389E-2,6.590713207E-2
1.362524984E1,5.892034248E-2,-1.534256339E-2,7.338428497E-2,9.535331295E-2
1.363521651E1,1.807198226E-1,-3.584891558E-3,5.183601379E-2,1.880411606E-1
1.364518317E1,1.516631544E-1,2.508315444E-2,3.986263275E-2,1.588077659E-1
1.365514984E1,1.729752272E-1,3.446829319E-2,3.507518768E-2,1.798298119E-1
1.366511650E1,3.475807607E-1,2.478155494E-2,6.380653381E-2,3.542566646E-1
1.367508364E1,4.648404121E-1,3.659954667E-2,7.577896118E-2,4.723966411E-1
1.368505030E1,3.474214673E-1,-1.369665563E-2,4.704761505E-2,3.508600182E-1
1.369501697E1,2.609972358E-1,-3.542844206E-2,6.141281128E-2,2.704556618E-1
1.370498364E1,4.404238760E-1,-2.828646451E-2,6.380653381E-2,4.459199350E-1
1.371498364E1,5.119166970E-1,-5.723947287E-2,4.704666138E-2,5.172508582E-1
1.372498314E1,6.386327744E-1,-5.497561395E-2,7.817268372E-2,6.457438401E-1
1.373498314E1,5.593846440E-1,-5.044130981E-2,5.423069000E-2,5.642663143E-1
1.374498314E1,4.584421813E-1,-1.714727283E-2,6.859588623E-2,4.638627579E-1
1.375498314E1,4.532833695E-1,-6.283372641E-4,4.465293884E-2,4.554778731E-1
1.376498314E1,6.108975410E-1,5.187372863E-2,6.141185760E-2,6.161640249E-1
1.377498264E1,5.506412983E-1,3.241616488E-2,1.092987061E-1,5.623191747E-1
1.378498290E1,4.280276299E-1,4.885572195E-2,9.014415741E-2,4.401369135E-1
1.379498290E1,4.325554967E-1,6.062801182E-2,1.308469772E-1,4.559615609E-1
1.380498290E1,7.196624875E-1,6.016533077E-2,1.113796234E-2,7.222589682E-1
1.381498290E1,3.914753199E-1,-6.719627976E-2,1.832580566E-2,3.976230643E-1
1.382498290E1,1.686444134E-1,-7.962711900E-2,1.332569122E-1,2.292134832E-1
1.383498264E1,3.313443363E-1,-5.123332143E-2,-1.758003235E-2,3.357424310E-1
1.384498264E1,3.672385216E-1,-6.141319871E-2,6.383419037E-2,3.777704549E-1
1.385498264E1,1.368433535E-1,-9.739683568E-2,6.143569946E-2,1.788479582E-1
1.386498264E1,1.846890748E-1,4.138006270E-2,1.069278717E-1,2.173842995E-1
1.387498264E1,3.517949283E-1,1.540758461E-1,2.791023254E-2,3.850688497E-1
1.388498264E1,3.419860005E-1,1.919060946E-1,3.988647461E-2,3.941742058E-1
1.389498310E1,1.173731387E-1,1.879878044E-1,3.810882568E-3,2.216537640E-1
1.390498310E1,-3.214196265E-1,2.180302739E-1,1.857671738E-1,4.305313223E-1
1.391498310E1,1.216549277E-1,3.735575080E-1,1.043624878E-1,4.064931267E-1
1.392498360E1,2.411713153E-1,2.532692552E-1,9.718799591E-2,3.629799244E-1
1.393498360E1,1.189648509E-1,9.237459302E-2,1.578998566E-2,1.514431406E-1
1.394498360E1,3.611597121E-1,3.095626831E-3,-6.081581116E-2,3.662574005E-1
1.395498360E1,-1.268848181E-1,-1.269800663E-1,1.102447510E-2,1.798478061E-1
1.396498360E1,-2.247198373E-1,-1.032342464E-1,4.694271088E-2,2.517139905E-1
1.397498313E1,-3.323904872E-1,-2.228945494E-2,-2.008914948E-2,3.337421605E-1
1.398498313E1,-2.319488488E-2,1.856135577E-1,7.808303833E-2,2.027001637E-1
1.399498313E1,1.392612457E-1,1.588473618E-1,2.541446686E-2,2.127723526E-1
1.400498313E1,-1.384943426E-1,2.778306603E-3,9.485530853E-2,1.678866626E-1
1.401498313E1,-1.146493629E-1,1.078206599E-1,6.373405457E-2,1.697992957E-1
1.402498313E1,2.015768439E-1,1.790172458E-1,1.107025146E-2,2.698202156E-1
1.403498340E1,1.702675223E-1,1.330713481E-1,-1.765537262E-2,2.168195679E-1
1.404498340E1,-1.097053736E-1,7.478192449E-2,-8.064270020E-3,1.330136748E-1
1.405498340E1,1.247319393E-2,1.843844205E-1,1.116580963E-1,2.159183308E-1
1.406498340E1,-3.876185715E-1,1.336368471E-1,1.547613144E-1,4.382442565E-1
1.407498340E1,-4.518847764E-1,1.473304033E-1,3.745365143E-2,4.767692050E-1
1.408498313E1,-1.357665062E-1,7.029402256E-2,9.013366699E-2,1.774763977E-1
1.409498313E1,-3.317121565E-1,-4.997700453E-2,1.284523010E-1,3.592083649E-1
1.410498313E1,1.739427596E-1,6.684440374E-2,1.021242142E-1,2.124937953E-1
1.411498313E1,2.151904851E-1,-1.266716421E-2,-3.912830353E-2,2.190854310E-1
1.412498313E1,-1.842260659E-1,-1.593093574E-1,7.820129395E-2,2.558010107E-1
1.413498313E1,6.046573073E-2,2.462054789E-2,1.763744354E-1,1.880697143E-1
1.414498313E1,3.289880157E-1,7.211883366E-2,-1.037216187E-2,3.369596747E-1
1.415498313E1,3.939454257E-1,6.974561512E-2,9.018802643E-2,4.101113622E-1
1.416498313E1,4.610636830E-1,-5.235810578E-2,-4.628562927E-2,4.663297659E-1
1.417498363E1,3.175074458E-1,-1.293650866E-1,1.596279144E-1,3.781896017E-1
1.418498363E1,7.785727829E-2,-1.940882206E-1,1.452646255E-1,2.546248311E-1
1.419498317E1,-2.296155132E-2,-2.831866145E-1,7.823181152E-2,2.946898502E-1
1.420498317E1,1.089761853E-1,-2.240319550E-1,1.476774216E-1,2.896113718E-1
1.421498317E1,2.166710943E-1,-1.838295013E-1,-5.547523499E-3,2.842013787E-1
1.422498267E1,4.177594781E-1,-1.167239845E-1,2.078819275E-2,4.342575492E-1
1.423498267E1,7.788877189E-2,-1.578320265E-1,5.910396576E-2,1.856633732E-1
1.424498267E1,3.084239922E-2,-7.735188305E-2,-7.735252380E-2,1.136572934E-1
1.425498267E1,9.640987962E-3,-2.119095623E-2,-5.502700806E-3,2.392247878E-2
1.426498267E1,-5.228371173E-2,-4.535509646E-2,3.759956360E-2,7.876800410E-2
1.427498267E1,2.280196398E-1,2.307742834E-3,1.908378601E-1,2.973505855E-1
1.428498293E1,-4.984483868E-2,-5.744978786E-2,7.591056824E-2,1.074588314E-1
1.429498293E1,1.505990978E-2,8.835871518E-2,5.197238922E-2,1.036107749E-1
1.430498293E1,-1.310632825E-1,1.574985683E-1,1.845645905E-2,2.057280339E-1
1.431498293E1,-2.913660109E-1,1.524632424E-1,5.676937103E-2,3.337093857E-1
1.432498293E1,4.663105309E-2,7.089380920E-2,-6.054687500E-2,1.042416009E-1
1.433498266E1,-5.159210041E-2,1.330523193E-2,1.645174026E-1,1.729298985E-1
1.434498267E1,1.384348571E-1,8.414590359E-2,6.158256531E-2,1.733123051E-1
1.435498267E1,7.656788826E-2,9.347933531E-2,-5.094242096E-2,1.311341218E-1
1.436498267E1,-1.340512186E-1,7.621262968E-2,-2.699089050E-2,1.565458473E-1
1.437498267E1,-2.119080424E-1,6.816457212E-2,-7.725238800E-2,2.356254630E-1
1.438498266E1,1.068281531E-1,5.101093650E-2,1.023254395E-1,1.564764056E-1
1.439498266E1,3.846286833E-1,1.701530218E-1,1.095180511E-1,4.346095701E-1
1.440498266E1,1.137751937E-1,4.328235984E-3,7.361412048E-2,1.355823258E-1
1.441498266E1,-1.233761162E-1,1.697480679E-3,9.755992889E-2,1.572974482E-1
1.442498316E1,1.882819831E-1,1.160897762E-1,2.095413208E-2,2.221846461E-1
1.443498316E1,1.764109433E-1,9.166860580E-2,-1.729736328E-1,2.635219760E-1
1.444498316E1,1.290625483E-1,-4.708021879E-4,3.774452209E-2,1.344693719E-1
1.445498317E1,-2.260632813E-1,-1.650660783E-1,-1.035308838E-1,2.984460776E-1
1.446498317E1,-2.288911492E-1,-1.082965806E-1,1.790046692E-1,3.100999502E-1
1.447498266E1,3.915531933E-2,-8.952218294E-2,1.833915710E-3,9.772780320E-2
1.448498266E1,-3.088239729E-1,-3.366721869E-1,1.646509171E-1,4.856236528E-1
1.449498266E1,-3.733868301E-1,-3.801764250E-1,1.048021317E-1,5.430794839E-1
1.450498267E1,6.770002097E-2,-1.915247440E-1,2.221317291E-1,3.010108395E-1
1.451498267E1,4.505875111E-1,-8.863215148E-2,-8.912372589E-2,4.677903397E-1
1.452498267E1,4.581837952E-1,-1.158805117E-1,-3.882598877E-2,4.742026366E-1
1.453498293E1,6.514890194E-1,-3.417046368E-2,-5.254745483E-4,6.523847324E-1
1.454498293E1,4.837917089E-1,-1.562944055E-2,1.000452042E-1,4.942749639E-1
1.455498293E1,6.157756448E-1,4.384046793E-2,9.047508240E-2,6.239289798E-1
1.456498293E1,4.648121297E-1,9.991198778E-3,3.780746460E-2,4.664542254E-1
1.457498293E1,1.319049448E-1,-8.396599442E-2,-3.401184082E-2,1.600187739E-1
1.458498266E1,-2.368458211E-1,-5.817620456E-2,1.599349976E-1,2.916498195E-1
1.459498266E1,-3.326125741E-1,-5.186320841E-2,1.623449326E-1,3.737335869E-1
1.460498266E1,-2.536014020E-1,-3.567492962E-2,1.623554230E-1,3.032254196E-1
1.461498266E1,-2.583260834E-1,-1.005793512E-1,1.336288452E-1,3.077421641E-1
1.462498266E1,-4.704363644E-2,-1.295981705E-1,2.828693390E-2,1.407442367E-1
1.463498266E1,-2.428972572E-1,-2.593784332E-1,2.725133896E-1,4.478166999E-1
1.464498266E1,2.936547399E-1,-2.046510279E-1,-7.943820953E-2,3.666409396E-1
1.465498266E1,1.098806038E-1,-2.697931528E-1,-1.238727570E-2,2.915742393E-1
1.466498266E1,1.460720599E-2,-2.270663530E-1,-7.223606110E-2,2.387269311E-1
1.467498273E1,2.608706951E-1,-1.555723250E-1,-1.823682785E-1,3.542801954E-1
1.468498273E1,3.324588537E-1,-7.193087041E-2,2.246618271E-1,4.076467540E-1
1.469498273E1,1.924442053E-1,-8.857428282E-2,2.007131577E-1,2.918320534E-1
1.470498273E1,1.889468879E-1,3.476649523E-3,-2.779006958E-3,1.889993026E-1
1.471498273E1,1.793473959E-1,-1.402199268E-3,-4.826831818E-2,1.857344478E-1
1.472498223E1,4.336331487E-1,1.199280471E-1,-1.057157516E-1,4.621647588E-1
1.473498223E1,3.443961442E-1,7.170185447E-3,-6.740474701E-2,3.510035834E-1
1.474498223E1,1.488054395E-1,-3.344669938E-2,3.063297272E-2,1.555638761E-1
1.475498223E1,6.387472898E-2,-5.807770789E-2,1.502761841E-1,1.733087784E-1
1.476498223E1,1.855575591E-1,-2.799625695E-2,1.376342773E-2,1.881617126E-1
1.477498223E1,2.935421765E-1,2.084040642E-2,2.292375565E-1,3.730297431E-1
1.478498250E1,-1.574972123E-1,-9.953894466E-2,1.406936646E-1,2.334696568E-1
1.479498250E1,-2.571123838E-2,-1.984412968E-2,6.647777557E-2,7.398751183E-2
1.480498250E1,-2.140863091E-1,1.357364655E-1,-2.950668335E-3,2.535074796E-1
1.481498250E1,1.848197728E-2,2.526522875E-1,8.805274963E-2,2.681940502E-1
1.482498250E1,-8.215889335E-3,2.521057725E-1,2.317218781E-1,3.425198536E-1
1.483498223E1,-1.134038195E-1,2.272404134E-1,1.479349136E-1,2.939104803E-1
1.484498223E1,-2.424421608E-1,1.995793730E-1,8.570384979E-2,3.255077224E-1
1.485498223E1,-2.836687565E-1,1.175343245E-1,-8.666896820E-2,3.190513923E-1
1.486498223E1,-4.057629406E-1,8.075213432E-2,4.209308624E-1,5.902095070E-1
1.487498223E1,-2.482138425E-1,1.165836900E-1,1.001033783E-1,2.919290235E-1
1.488498223E1,-2.793129086E-1,7.542625070E-3,1.959800720E-3,2.794216043E-1
1.489498223E1,-5.066572428E-1,-1.958765090E-2,8.337783813E-2,5.138454063E-1
1.490498223E1,-8.826469779E-1,-8.102715015E-3,8.817481995E-2,8.870773024E-1
1.491498223E1,-9.927542210E-1,-6.147667766E-3,8.099937439E-2,9.960721037E-1
1.492498273E1,-8.563799858E-1,2.678209543E-2,4.030704498E-2,8.577462437E-1
1.493498273E1,-7.201754451E-1,1.217354834E-1,-1.272754669E-1,7.413981684E-1
1.494498273E1,-6.463650465E-1,8.679154515E-2,-2.014884949E-1,6.825819798E-1
1.495498273E1,-2.990131974E-1,1.554901302E-1,-2.182369232E-1,4.015139194E-1
1.496498273E1,-6.303055286E-1,2.330218256E-2,1.983814240E-1,6.611983367E-1
1.497498266E1,-4.081305861E-1,6.657451391E-3,-2.735137939E-3,4.081940445E-1
1.498498266E1,-1.616064608E-1,-3.717792034E-2,-4.102993011E-2,1.708282796E-1
1.499498266E1,-4.723089561E-2,-6.823249906E-2,1.553039551E-1,1.760844965E-1
1.500498266E1,1.048002318E-1,-1.887337267E-1,7.631492615E-2,2.289704700E-1
1.501498266E1,1.565691084E-2,-2.415888608E-1,-2.902603149E-2,2.438295040E-1
1.502498266E1,-1.691189110E-1,-2.999441624E-1,-1.559028625E-1,3.779859907E-1
1.503498293E1,-8.284725994E-2,-2.186466008E-1,1.170454025E-1,2.614758704E-1
1.504498293E1,-3.225325346E-1,-2.096143067E-1,7.874870300E-2,3.926407412E-1
1.505498293E1,-4.284149408E-1,-1.363466382E-1,-9.361743927E-2,4.592319591E-1
1.506498293E1,-3.316023946E-1,6.420080364E-2,-7.206821442E-2,3.453631694E-1
1.507498293E1,-4.874960780E-1,1.430991292E-1,-4.093742371E-2,5.097113492E-1
1.508498266E1,-3.436100483E-1,3.122586012E-1,-2.588033676E-1,5.315566596E-1
1.509498266E1,-4.841484129E-1,2.566502690E-1,4.287910461E-2,5.496432152E-1
1.510498266E1,-3.236728609E-1,2.174036056E-1,2.296495438E-1,4.525122778E-1
1.511498266E1,-3.480578661E-1,2.360122353E-1,1.865653992E-1,4.600572807E-1
1.512498266E1,-1.926598847E-1,1.704593152E-1,-1.692962646E-2,2.577999642E-1
1.513498266E1,-1.023241729E-1,2.007786930E-1,-6.719017029E-2,2.351527990E-1
1.514498266E1,-3.875973225E-1,8.506776392E-2,2.262115479E-3,3.968290892E-1
1.515498266E1,-3.515661955E-1,7.500863075E-2,-6.955814362E-2,3.661467190E-1
1.516498266E1,-3.515292406E-1,9.145395458E-2,1.794519424E-1,4.051414968E-1
1.517498316E1,-4.105199128E-2,1.437129676E-1,3.820323944E-2,1.542665568E-1
1.518498316E1,-4.319258332E-1,-4.614424706E-2,2.130031586E-1,4.837970261E-1
1.519498316E1,-3.099967837E-1,2.543045580E-2,-2.402400970E-2,3.119645285E-1
1.520498316E1,-5.631259084E-2,8.482143283E-2,-9.649276733E-3,1.022687239E-1
1.521498316E1,-4.028754681E-2,5.091843009E-2,1.191234589E-2,6.601270284E-2
1.522498266E1,-2.228015065E-1,-2.140796185E-2,1.220626831E-1,2.549472705E-1
1.523498266E1,-1.849426329E-1,-7.688209414E-3,9.548187256E-3,1.853484662E-1
1.524498266E1,-1.539341509E-1,2.795948088E-2,3.782720566E-1,4.093497333E-1
1.525498266E1,-3.577902913E-1,-3.226388991E-2,2.633571625E-1,4.454344466E-1
1.526498266E1,-6.194056869E-1,-6.150037050E-3,-2.585859299E-1,6.712435556E-1
1.527498266E1,-4.523214102E-1,1.659203470E-1,2.400398254E-3,4.817986940E-1
1.528498293E1,-6.615524888E-1,2.956368327E-1,9.098815918E-2,7.302956096E-1
1.529498293E1,-6.452218890E-1,2.785488367E-1,1.819801331E-1,7.259597161E-1
1.530498293E1,-2.414714247E-1,1.680137515E-1,7.664775848E-2,3.039933363E-1
1.531498293E1,-1.414115578E-1,7.193689048E-2,1.436977386E-1,2.140588353E-1
1.532498293E1,-1.498910785E-2,3.130787611E-2,2.438545227E-3,3.479659414E-2
1.533498266E1,1.106689870E-2,-4.894033074E-3,1.441764832E-2,1.882276254E-2
1.534498266E1,1.854974180E-1,-9.560655802E-2,1.680850983E-2,2.093619642E-1
1.535498266E1,1.393873543E-1,-1.359401643E-1,-2.389431000E-2,1.961619251E-1
1.536498266E1,-7.670788467E-2,-1.861778945E-1,2.418746948E-1,3.147215848E-1
1.537498266E1,-8.009961247E-2,-1.052856147E-1,1.628818512E-1,2.098368558E-1
1.538498266E1,4.886220396E-2,3.085654974E-2,1.205158234E-2,5.903289146E-2
1.539498316E1,-5.201812088E-2,6.406514347E-2,1.269855499E-1,1.514448989E-1
1.540498316E1,-1.844638288E-1,4.226583242E-2,1.030540466E-1,2.154842019E-1
1.541498316E1,-3.891560808E-2,1.017123610E-1,-1.904106140E-2,1.105549228E-1
1.542498366E1,2.631056309E-1,1.704038084E-1,7.913589478E-2,3.233025220E-1
1.543498366E1,4.064124227E-1,1.002150774E-1,-3.337764740E-2,4.199144989E-1
1.544498366E1,-1.177007407E-1,-1.449070722E-1,1.509971619E-1,2.401076151E-1
1.545498366E1,-1.270950735E-1,-1.695925891E-1,1.701641083E-1,2.717915152E-1
1.546498366E1,2.056700140E-1,-1.223196834E-1,1.414451599E-1,2.779730075E-1
1.547498316E1,-5.532057583E-2,-2.014790326E-1,9.835052490E-2,2.309263789E-1
1.548498316E1,-2.142896354E-1,-2.256149352E-1,5.047798157E-2,3.152303498E-1
1.549498316E1,-8.531198651E-2,-1.754027009E-1,1.079435349E-1,2.229261071E-1
1.550498316E1,1.720887423E-2,-6.506083906E-2,2.653980255E-2,7.234237521E-2
1.551498316E1,-6.396555901E-2,-7.234649360E-2,-3.571224213E-2,1.029610223E-1
1.552498316E1,-6.447906792E-2,6.191074848E-3,2.610206604E-3,6.482817895E-2
1.553498343E1,9.400375187E-3,2.932131290E-2,1.127662659E-1,1.168945557E-1
1.554498343E1,7.617611438E-2,6.747113168E-2,1.008005142E-1,1.432337170E-1
1.555498343E1,1.281983405E-1,4.765494168E-2,1.319446564E-1,1.900399967E-1
1.556498343E1,-1.951362193E-1,-6.086640060E-2,-3.324317932E-2,2.070941133E-1
1.557498343E1,-1.003911048E-1,-1.905068755E-3,7.452583313E-2,1.250444042E-1
1.558498316E1,9.342946857E-2,-4.287815094E-2,-1.644992828E-2,1.041066836E-1
1.559498316E1,8.570938557E-2,-1.271117032E-1,1.469039917E-2,1.540106869E-1
1.560498316E1,-1.044103056E-1,-2.354389578E-1,3.386592865E-2,2.597689664E-1
1.561498316E1,1.720727980E-2,-1.924135089E-1,1.176710129E-1,2.261979579E-1
1.562498316E1,-1.849440932E-1,-2.332228273E-1,1.799345016E-1,3.478126359E-1
1.563498316E1,-3.934054971E-1,-1.949180663E-1,1.392335892E-1,4.605941055E-1
1.564498316E1,-3.340217471E-1,-8.038334548E-2,1.536111832E-1,3.763354958E-1
1.565498316E1,-2.253533006E-1,5.323113501E-2,-1.408605576E-1,2.710338733E-1
1.566498316E1,-4.753650427E-1,1.243275404E-2,2.996988297E-1,5.620906383E-1
1.567498366E1,-4.212208688E-1,1.735246181E-2,-2.352237701E-2,4.222338576E-1
1.568498366E1,4.043858051E-1,1.871989667E-1,1.345071793E-1,4.654712814E-1
1.569498316E1,-9.953242540E-2,3.908212483E-2,3.634643555E-2,1.129388311E-1
1.570498316E1,-1.916747093E-1,-1.959751546E-2,4.596042633E-2,1.980798263E-1
1.571498316E1,2.390416712E-2,2.565281093E-2,3.399372101E-2,4.883696328E-2
1.572498266E1,-2.408390343E-1,-5.364248157E-2,6.992816925E-2,2.564583887E-1
1.573498266E1,-2.509616315E-1,-6.611599028E-2,1.393775940E-1,2.945830585E-1
1.574498266E1,-3.902962506E-1,-8.621384203E-2,1.561622620E-1,4.291277687E-1
1.575498266E1,-3.665240705E-1,-5.293042958E-2,-4.247665405E-3,3.703506005E-1
1.576498266E1,-4.366009235E-1,-2.477909625E-2,-3.535366058E-2,4.387302718E-1
1.577498266E1,-8.371567130E-1,-8.771105111E-2,1.633930206E-1,8.574507973E-1
1.578498293E1,-8.785670996E-1,1.031079888E-2,7.242107391E-2,8.816072101E-1
1.579498293E1,-6.894896030E-1,5.287037790E-2,-7.361888885E-2,6.954214049E-1
1.580498293E1,-3.142155409E-1,1.339102089E-1,1.538524628E-1,3.746117063E-1
1.581498292E1,-5.320614576E-1,1.072248816E-1,2.400531769E-1,5.934745973E-1
1.582498292E1,-2.735888958E-1,1.405778229E-1,-2.810192108E-2,3.088733173E-1
1.583498266E1,-3.692023754E-1,1.281968057E-1,1.011972427E-1,4.037148708E-1
1.584498266E1,-3.403906822E-1,4.182744026E-2,7.486152649E-2,3.510264939E-1
1.585498266E1,1.861252785E-1,8.966784179E-2,-9.273242950E-2,2.264558337E-1
1.586498266E1,-3.719725013E-1,-5.249471962E-2,1.060132980E-1,3.903307017E-1
1.587498266E1,-1.208971068E-1,-5.335912108E-3,3.180885315E-2,1.251254792E-1
1.588498266E1,-9.259121120E-2,-1.075789332E-3,4.140186310E-2,1.014317701E-1
1.589498266E1,-5.957496539E-2,5.603197217E-2,6.535816193E-2,1.046921570E-1
1.590498266E1,-1.218555942E-1,1.250938773E-1,2.705764771E-2,1.767183643E-1
1.591498266E1,-1.652394533E-1,8.657534420E-2,5.100822449E-2,1.933939144E-1
1.592498312E1,-1.344259083E-1,-4.082608223E-2,-4.953670502E-2,1.489663686E-1
