"Time (s)","Linear Acceleration x (m/s^2)","Linear Acceleration y (m/s^2)","Linear Acceleration z (m/s^2)","Absolute acceleration (m/s^2)"
0.000000000E0,-3.223439455E-1,-3.816721439E-1,1.483392715E0,1.565258187E0
1.000000000E-2,-3.078216314E-1,-3.840377927E-1,1.484230042E0,1.563706494E0
2.000000000E-2,-3.052525222E-1,-3.767935038E-1,1.483977318E0,1.561198619E0
3.000000000E-2,-2.997675240E-1,-3.679901958E-1,1.483798027E0,1.557861976E0
4.000000000E-2,-2.977114320E-1,-3.610002697E-1,1.483546257E0,1.555590816E0
5.000000000E-2,-2.992252707E-1,-3.592068851E-1,1.483378410E0,1.555306033E0
6.000000000E-2,-2.992488444E-1,-3.582616448E-1,1.483329773E0,1.555046138E0
7.000214200E-2,-2.984356582E-1,-3.588999808E-1,1.483403206E0,1.555107105E0
8.000214200E-2,-2.991592884E-1,-3.591491580E-1,1.483378410E0,1.555280009E0
9.000214200E-2,-3.000432551E-1,-3.588527441E-1,1.483319283E0,1.555325477E0
1.000021420E-1,-3.006522059E-1,-3.590130806E-1,1.483296394E0,1.555458239E0
1.100021420E-1,-3.013697863E-1,-3.598269224E-1,1.483301163E0,1.555789671E0
1.200021420E-1,-3.025490642E-1,-3.604984581E-1,1.483275414E0,1.556149423E0
1.300021420E-1,-3.033846617E-1,-3.606362939E-1,1.483241081E0,1.556311310E0
1.400021420E-1,-3.040902019E-1,-3.601142466E-1,1.483179092E0,1.556269045E0
1.500021420E-1,-3.044897318E-1,-3.603009284E-1,1.483168602E0,1.556380370E0
1.600021420E-1,-3.053252995E-1,-3.611485362E-1,1.483169556E0,1.556741383E0
1.700021420E-1,-3.063808084E-1,-3.621542454E-1,1.483166695E0,1.557179611E0
1.800029190E-1,-3.075606823E-1,-3.626860678E-1,1.483135223E0,1.557505970E0
1.900029190E-1,-3.084259927E-1,-3.627921939E-1,1.483098030E0,1.557666375E0
2.000029190E-1,-3.092538416E-1,-3.626682162E-1,1.483050346E0,1.557756240E0
2.100029190E-1,-3.095465899E-1,-3.176253438E-1,1.480852127E0,1.545842156E0
2.200036910E-1,-3.096104264E-1,-2.770711482E-1,1.479061127E0,1.536310142E0
2.300036910E-1,-3.096700013E-1,-2.402988374E-1,1.477582932E0,1.528689099E0
2.400036910E-1,-3.096573949E-1,-2.070893049E-1,1.476368904E0,1.522642054E0
2.500036910E-1,-3.096495271E-1,-1.769196391E-1,1.475364685E0,1.517855178E0
2.600036910E-1,-3.094792366E-1,-1.495610178E-1,1.474541664E0,1.514073649E0
2.700036910E-1,-3.093526661E-1,-1.246007979E-1,1.473856926E0,1.511118350E0
2.800036910E-1,-3.093252778E-1,-1.022170931E-1,1.473292351E0,1.508880649E0
2.900036910E-1,-3.091133833E-1,-8.233788610E-2,1.472844124E0,1.507182943E0
3.000036910E-1,-3.090887964E-1,-6.431098282E-2,1.472463608E0,1.505928572E0
3.100036910E-1,-3.089395463E-1,-4.793356359E-2,1.472152710E0,1.504983346E0
3.200037570E-1,-3.083596826E-1,-3.290399909E-2,1.471914291E0,1.504227392E0
3.300037570E-1,-3.077917397E-1,-1.915463805E-2,1.471716881E0,1.503679897E0
3.400037570E-1,-3.072155118E-1,-6.677702069E-3,1.471558571E0,1.503299900E0
3.500037570E-1,-3.069657385E-1,4.255071282E-3,1.471419334E0,1.503103765E0
3.600037570E-1,-3.067312539E-1,1.384650916E-2,1.471308708E0,1.503005357E0
3.700032570E-1,-3.064448535E-1,2.245487273E-2,1.471220970E0,1.502965007E0
3.800032570E-1,1.913169026E-2,-7.487532496E-2,-4.610500336E-1,4.674820524E-1
3.900032570E-1,1.944148540E-2,-6.759597361E-2,-4.611082077E-1,4.664418144E-1
4.000032570E-1,1.994052529E-2,-6.081930175E-2,-4.611473083E-1,4.655678812E-1
4.100032570E-1,8.023920655E-2,-9.313024580E-2,7.274436951E-2,1.428401773E-1
4.200032570E-1,3.818151355E-2,-7.040025294E-2,6.305122375E-2,1.019288007E-1
4.300037230E-1,4.855427146E-2,-7.191747427E-2,6.532287598E-2,1.086126996E-1
4.400037230E-1,6.824946404E-2,-8.088788390E-2,6.279850006E-2,1.230629543E-1
4.500037230E-1,4.646211863E-2,-7.545468956E-2,6.502723694E-2,1.099121476E-1
4.600037230E-1,5.058974028E-2,-7.729497552E-2,5.047988892E-2,1.052713363E-1
4.700037230E-1,3.777751327E-2,-6.007010117E-2,3.832149506E-2,8.064796679E-2
4.800032560E-1,3.014782071E-2,-7.439437509E-2,3.576660156E-2,8.787868869E-2
4.900032560E-1,2.267977595E-2,-4.561847448E-2,5.955886841E-2,7.837522732E-2
5.000037560E-1,2.009439468E-2,-6.748169661E-2,4.505157471E-2,8.358952361E-2
5.100037560E-1,2.029830217E-2,-4.628510773E-2,6.169223785E-2,7.975126632E-2
5.200031890E-1,3.496551514E-2,-3.736168146E-2,5.439662933E-2,7.468249978E-2
5.300031890E-1,2.794218063E-2,-3.129404411E-2,5.188751221E-2,6.672628102E-2
5.400031890E-1,1.378360391E-2,-3.529892117E-2,5.417156219E-2,6.611020892E-2
5.500031890E-1,2.392667532E-2,-3.951585293E-2,4.689788818E-2,6.582856781E-2
5.600031890E-1,2.202817798E-2,-3.427240998E-2,4.440975189E-2,6.026661409E-2
5.700036550E-1,1.064461470E-2,-3.632985428E-2,4.911041260E-2,6.200805399E-2
5.800036550E-1,1.621684432E-2,-2.894115821E-2,4.664039612E-2,5.723550671E-2
5.900036550E-1,1.955208182E-2,-2.879669890E-2,4.417610168E-2,5.624110357E-2
6.000036550E-1,1.576343179E-2,-1.922252402E-2,5.847644806E-2,6.354121646E-2
6.100036550E-1,1.920384169E-2,-2.674110048E-2,5.841350555E-2,6.705230512E-2
6.200035880E-1,1.014977694E-3,-1.750018448E-2,4.158878326E-2,4.513217843E-2
6.300035880E-1,2.179294825E-3,-2.060282603E-2,5.829238892E-2,6.186459708E-2
6.400035880E-1,-3.577411175E-3,-2.230581362E-3,3.430652618E-2,3.456459320E-2
6.500040880E-1,1.474234462E-2,-3.060100134E-3,4.623985291E-2,4.862946570E-2
6.600040880E-1,-3.457367420E-4,-2.155744471E-3,6.775569916E-2,6.779086617E-2
6.700040880E-1,-1.049655676E-2,-3.826664295E-3,4.618263245E-2,4.751480404E-2
6.800042210E-1,-1.204997301E-3,-1.771933399E-2,4.617023468E-2,4.946834731E-2
6.900042210E-1,3.381192684E-3,6.920803338E-3,4.855442047E-2,4.916158795E-2
7.000042210E-1,1.263481379E-2,-4.587510601E-3,5.811882019E-2,5.965300523E-2
7.100042210E-1,-4.738509655E-3,7.872258313E-3,4.372406006E-2,4.467907063E-2
7.200042210E-1,2.468317747E-3,-1.369163021E-2,5.090904236E-2,5.277578919E-2
7.300037540E-1,6.705731153E-3,-1.316700131E-3,2.933692932E-2,3.012234970E-2
7.400037540E-1,-8.606016636E-4,3.775929101E-3,2.692508698E-2,2.720217977E-2
7.500037540E-1,-1.034766436E-2,-8.153067902E-3,3.650569916E-2,3.880995677E-2
7.600037540E-1,-8.107721806E-4,-2.747947350E-3,4.608249664E-2,4.617147456E-2
7.700037540E-1,-6.655752659E-4,-2.528998069E-3,4.608917236E-2,4.616330394E-2
7.799704200E-1,-2.221581340E-2,-1.902198419E-3,3.651142120E-2,4.278135811E-2
7.899375530E-1,-1.698136330E-4,-2.287860028E-2,-4.167556763E-3,2.325570289E-2
7.999037190E-1,-1.135748625E-2,-1.474450249E-2,1.981163025E-2,2.718259628E-2
8.098703850E-1,-3.136962652E-3,-1.113176346E-2,6.295776367E-2,6.401122323E-2
8.198370510E-1,1.898407936E-5,-5.074107088E-3,7.735824585E-2,7.752448080E-2
8.298037170E-1,3.027647734E-3,-8.652093820E-3,1.037254333E-1,1.041296831E-1
8.397703830E-1,3.217285872E-2,-7.759071887E-3,7.740783691E-2,8.418592074E-2
8.497370490E-1,1.989045739E-2,1.203832962E-2,3.669261932E-2,4.343846208E-2
8.597037150E-1,-4.913717508E-3,-1.418048330E-2,4.383659363E-2,4.633441126E-2
8.696703810E-1,6.358057261E-3,-1.127953827E-2,5.338287354E-2,5.493072057E-2
8.796370470E-1,-6.336688995E-3,-5.973521620E-3,5.095767975E-2,5.169643811E-2
8.896037130E-1,5.229234695E-3,1.140882540E-2,4.615211487E-2,4.782806602E-2
8.995705790E-1,-2.102896571E-2,-4.012919962E-4,4.854965210E-2,5.290980205E-2
9.095372450E-1,-4.534184933E-3,-1.004787721E-2,3.896045685E-2,4.048994773E-2
9.195039110E-1,-1.659098268E-2,4.721648991E-3,7.008266449E-2,7.217433434E-2
9.294705770E-1,1.491880417E-2,1.058541238E-5,3.658008575E-2,3.950536044E-2
9.394372430E-1,1.255539060E-2,-1.455068961E-2,2.221584320E-2,2.937522919E-2
9.494034090E-1,1.969933510E-5,-2.280475572E-3,3.176784515E-2,3.184959878E-2
9.593700750E-1,2.005279064E-3,-1.137826592E-2,2.935695648E-2,3.154864456E-2
9.693367410E-1,4.440456629E-3,-1.180650666E-3,7.963943481E-2,7.977186953E-2
9.793037740E-1,-3.410175443E-2,-6.728488952E-4,1.107549667E-1,1.158880712E-1
9.892704400E-1,-3.438618779E-2,-7.445160300E-4,1.107425690E-1,1.159606864E-1
9.992371060E-1,3.157228231E-3,-3.620775416E-3,5.563831329E-2,5.584532219E-2
1.009203772E0,-2.404838800E-3,2.976079658E-2,7.718086243E-3,3.083921396E-2
1.019170438E0,-5.134940147E-4,-6.705900654E-3,-3.061389923E-2,3.134395645E-2
1.029137104E0,-5.524605513E-3,-9.642904624E-3,2.683830261E-2,2.904825920E-2
1.039103870E0,-5.919486284E-3,4.762629047E-3,4.358005524E-2,4.423736167E-2
1.049070536E0,-3.376185894E-3,-2.368912846E-2,3.401088715E-2,4.158501993E-2
1.059037202E0,6.958425045E-3,5.786100402E-3,5.319976807E-2,5.396400615E-2
1.069003868E0,-7.081687450E-3,1.223258674E-3,4.124450684E-2,4.186592890E-2
1.079003868E0,-6.751686335E-3,1.510724425E-3,4.125976562E-2,4.183581977E-2
1.088970534E0,-1.291692257E-3,9.458367713E-3,2.453041077E-2,2.632242848E-2
1.098937200E0,-2.216744423E-2,4.884911701E-3,5.568695068E-2,6.013563355E-2
1.108903866E0,1.198646426E-2,3.846436739E-4,1.012067795E-1,1.019148443E-1
1.118870532E0,-9.365916252E-3,3.111254424E-3,1.251602173E-1,1.255487168E-1
1.128837198E0,-2.873945236E-2,5.572456867E-3,1.227550507E-1,1.261975073E-1
1.138803864E0,1.515626907E-3,1.715445705E-2,6.046485901E-2,6.286948144E-2
1.148770997E0,-4.733115435E-3,3.306831419E-2,-1.621913910E-2,3.713456959E-2
1.158737663E0,-7.989108562E-3,1.703875884E-2,-4.978084564E-2,5.321914835E-2
1.168703863E0,-8.116245270E-3,3.614071757E-3,-9.087562561E-3,1.270900253E-2
1.178670529E0,6.284207106E-3,6.204787642E-4,4.837608337E-2,4.878649091E-2
1.188637195E0,-1.059174538E-2,-4.422739148E-3,8.428478241E-2,8.506274295E-2
1.198603295E0,-1.516833901E-2,7.281152532E-3,6.753349304E-2,6.959789058E-2
1.208569961E0,1.397049427E-2,-7.403993979E-3,3.163623810E-2,3.536729277E-2
1.218536627E0,-1.018404961E-2,1.976286992E-3,1.247310638E-2,1.622340777E-2
1.228503293E0,1.960366964E-3,1.375069562E-2,2.205753326E-2,2.606644284E-2
1.238469959E0,-5.440622568E-3,4.154690541E-3,3.641319275E-2,3.705107871E-2
1.248436625E0,1.646578312E-3,-5.367727950E-3,8.189964294E-2,8.209187072E-2
1.258403758E0,-5.575865507E-3,1.966869459E-3,8.908176422E-2,8.927776637E-2
1.268370424E0,3.786832094E-3,-5.172058940E-3,4.118728638E-2,4.168312428E-2
1.278336590E0,-1.213461161E-3,6.600713357E-3,3.399467468E-2,3.465082700E-2
1.288303256E0,1.778563857E-2,-7.949553430E-3,2.201652527E-2,2.939815851E-2
1.298269922E0,1.780548692E-2,-8.025441319E-3,3.159332275E-2,3.714271282E-2
1.308236588E0,-3.771901131E-3,6.373196840E-3,5.792999268E-2,5.840144628E-2
1.318203254E0,1.300147176E-2,-1.028470136E-2,6.990146637E-2,7.184029754E-2
1.328169920E0,2.512052655E-2,6.453003734E-3,4.117774963E-2,4.866507142E-2
1.338136486E0,5.207508802E-3,2.062080987E-2,3.874874115E-2,4.420181997E-2
1.348103152E0,1.215508580E-2,-6.363826804E-3,1.000499725E-2,1.698070589E-2
1.358069818E0,2.140015364E-3,-4.386590794E-3,4.350566864E-2,4.377859121E-2
1.368036484E0,-2.904057503E-3,2.976944670E-4,4.349422455E-2,4.359208347E-2
1.378003150E0,-7.869601250E-4,1.479357388E-2,4.826927185E-2,5.049150165E-2
1.388002683E0,1.669943333E-3,1.949674636E-2,5.066776276E-2,5.431513612E-2
1.398002749E0,-1.736122370E-2,7.131924853E-3,6.024837494E-2,6.310422429E-2
1.408002749E0,-1.961436868E-2,-1.472460944E-2,5.786132812E-2,6.284481581E-2
1.418002749E0,-1.205453277E-2,1.674126461E-2,5.787849426E-2,6.144511208E-2
1.428002749E0,-1.646798849E-2,1.152217761E-2,4.831695557E-2,5.233052089E-2
1.438002749E0,5.567669868E-4,1.406532340E-2,3.156852722E-2,3.456465279E-2
1.448002282E0,-1.307722926E-2,-1.027701888E-2,3.878307343E-2,4.219902637E-2
1.458002282E0,-1.475337148E-2,-1.031391695E-2,5.078697205E-2,5.388279301E-2
1.468002282E0,-1.444274187E-2,-7.637034170E-3,6.277370453E-2,6.486489855E-2
1.478002282E0,-1.178342104E-2,4.481821321E-3,4.123687744E-2,4.312094381E-2
1.488002282E0,-6.378293037E-3,-1.934198663E-2,6.999492645E-2,7.289776950E-2
1.498002648E0,8.988082409E-4,-1.444875170E-2,5.084609985E-2,5.286681523E-2
1.508003114E0,-5.969494581E-3,2.627419308E-4,5.086040497E-2,5.121020106E-2
1.518003114E0,5.802303553E-3,9.828215465E-3,6.282329559E-2,6.385160151E-2
1.528003114E0,1.946890354E-2,1.944402047E-2,6.518554688E-2,7.075495501E-2
1.538003114E0,1.864585280E-2,-1.163413376E-2,5.078411102E-2,5.533576445E-2
1.548003114E0,3.315627575E-3,-6.876269355E-3,1.003742218E-2,1.261056345E-2
1.558002647E0,-1.649910212E-2,2.669127658E-3,7.614135742E-3,1.836626462E-2
1.568002647E0,-2.149915695E-2,9.654629976E-3,6.267261505E-2,6.695731705E-2
1.578002647E0,-1.162701845E-2,-1.193956472E-2,6.268596649E-2,6.486348093E-2
1.588002647E0,-3.554826975E-2,-2.135323361E-3,7.944679260E-2,8.706337888E-2
1.598002647E0,-3.746852279E-2,2.775848843E-3,7.468032837E-2,8.359872596E-2
1.608002647E0,8.576989174E-3,-2.271818928E-3,4.357814789E-2,4.447224840E-2
1.618002647E0,8.224844933E-3,-2.710565925E-3,4.356193542E-2,4.441438348E-2
1.628002647E0,9.749740362E-3,4.001143388E-3,4.831123352E-2,4.944736464E-2
1.638002647E0,1.781225204E-3,-1.116647385E-3,4.588222504E-2,4.593036293E-2
1.648003113E0,1.767405868E-2,1.300100889E-2,5.781459808E-2,6.183790370E-2
1.658003113E0,1.159349084E-2,5.257956684E-3,4.099655151E-2,4.292752467E-2
1.668003113E0,1.318001747E-2,2.389397472E-3,4.574871063E-2,4.766934660E-2
1.678003113E0,3.482079506E-2,1.895189844E-2,1.941490173E-2,4.414295677E-2
1.688003113E0,-4.064017534E-2,-2.677092329E-3,9.888648987E-3,4.191152651E-2
1.698003046E0,-4.530015588E-2,1.898887008E-2,1.957798004E-2,5.287701402E-2
1.708003046E0,-6.846189499E-4,-4.720691592E-3,9.865665436E-2,9.877190431E-2
1.718003046E0,3.201520443E-2,1.903090067E-2,1.225633621E-1,1.280973311E-1
1.728003046E0,-7.208436728E-3,1.595425978E-2,-2.592372894E-2,3.128161901E-2
1.738003046E0,-3.239265084E-2,-8.679145947E-3,-4.742145538E-2,5.808102817E-2
1.748003046E0,-1.867115498E-3,3.092193976E-3,2.927589417E-2,2.949789421E-2
1.758003546E0,2.032300830E-2,7.906115614E-3,5.324649811E-2,5.753886418E-2
1.768003546E0,4.184076190E-2,1.049464289E-2,7.754325867E-3,4.382826092E-2
1.778003546E0,-1.514610648E-2,-2.785464376E-2,2.453517914E-2,4.009065647E-2
1.788003546E0,-3.252169490E-2,-3.043944016E-3,8.686923981E-2,9.280727913E-2
1.798003546E0,-2.390137315E-2,-1.384855807E-2,1.252431870E-1,1.282533199E-1
1.808003079E0,1.516729593E-3,-1.313883904E-2,8.939647675E-2,9.036957239E-2
1.818003079E0,-7.204473019E-3,-1.186862588E-3,4.394340515E-2,4.454588568E-2
1.828003079E0,-2.561092377E-2,1.541998889E-2,-2.545642853E-2,3.926480902E-2
1.838003079E0,1.606830955E-2,6.134411320E-3,-4.456520081E-2,4.776901398E-2
1.848003079E0,2.914279699E-2,-5.411275662E-3,-3.733253479E-2,4.766867603E-2
1.858003079E0,1.166316867E-2,1.751463860E-4,-2.767562866E-2,3.003332485E-2
1.868003079E0,-2.706611156E-2,-1.097989827E-2,5.860996246E-2,6.548480939E-2
1.878003079E0,-6.913530827E-2,-2.873698063E-2,1.210212708E-1,1.423083022E-1
1.888003079E0,-8.396202326E-2,-2.468552813E-2,2.169971466E-1,2.339802519E-1
1.898003545E0,-7.065907121E-2,-2.521820366E-2,2.459087372E-1,2.570987537E-1
1.908003545E0,-3.266015649E-2,-4.974683747E-3,2.148838043E-1,2.174085616E-1
1.918003545E0,-3.028887510E-2,-5.041046068E-3,1.071395874E-1,1.114527671E-1
1.928003545E0,-9.731918573E-3,1.495319419E-2,-1.036071777E-1,1.051320861E-1
1.938003545E0,-3.259390593E-3,2.050866187E-2,-1.467409134E-1,1.482029841E-1
1.948003078E0,3.935110569E-2,2.413341030E-2,-6.536006927E-2,8.001793341E-2
1.958003078E0,6.448736787E-2,-1.477655768E-2,6.410598755E-3,6.646851170E-2
1.968003078E0,2.745667100E-2,-1.438358612E-2,1.188888550E-1,1.228629976E-1
1.978003078E0,-1.564013958E-2,2.841405571E-3,1.500158310E-1,1.508556830E-1
1.988003078E0,-1.764941216E-2,-2.110342495E-2,1.236963272E-1,1.267187344E-1
1.998003078E0,1.978638768E-2,5.470777862E-3,8.055973053E-2,8.313423321E-2
2.008003544E0,2.526059747E-2,-2.382218838E-3,1.583290100E-2,2.990741555E-2
2.018003544E0,1.857584715E-2,-1.245448180E-2,-8.199691772E-3,2.382039377E-2
2.028003544E0,2.884551883E-2,4.308802076E-3,-2.743339539E-2,4.004024118E-2
2.038003544E0,1.499101520E-2,-7.586911321E-3,8.393287659E-3,1.878134813E-2
2.048003544E0,1.561811566E-2,2.317812294E-3,7.056427002E-2,7.230915567E-2
2.058003044E0,-2.481400967E-3,3.235507756E-4,6.810855865E-2,6.815451414E-2
2.068003044E0,-1.699236035E-2,-6.613500416E-3,4.415988922E-2,4.777629657E-2
2.078003044E0,-1.408663392E-2,1.707964763E-2,2.742290497E-2,3.524433763E-2
2.088003044E0,-4.067540169E-3,7.049279287E-3,2.983665466E-2,3.092673896E-2
2.098003044E0,-2.044823766E-2,-7.682828233E-3,6.337356567E-2,6.703256745E-2
2.108003044E0,-1.329481602E-2,-9.966108948E-3,7.773780823E-2,7.949366194E-2
2.118003044E0,-1.261183619E-2,-2.376709878E-2,3.946208954E-2,4.776180386E-2
2.128003044E0,1.639005542E-2,2.260450274E-4,2.510833740E-2,2.998522336E-2
2.138003044E0,9.218662977E-3,1.439117547E-2,2.271461487E-2,2.842610433E-2
2.148003510E0,1.822459698E-2,1.448355708E-2,6.339073181E-2,6.752995069E-2
2.158003510E0,-1.104044914E-2,1.219309866E-2,6.815528870E-2,7.011209988E-2
2.168003510E0,3.236621618E-3,-9.480070323E-3,8.491134644E-2,8.550020004E-2
2.178003510E0,2.132397890E-2,-1.610834152E-4,7.528400421E-2,7.824589008E-2
2.188003510E0,1.027983427E-2,-7.544817403E-3,-8.583068848E-3,1.537102251E-2
2.198003043E0,-1.111504436E-2,-5.272140726E-3,-3.970146179E-2,4.156375521E-2
2.208003043E0,8.591353893E-3,-8.229849860E-3,-3.762245178E-3,1.247783151E-2
2.218003043E0,-8.606344461E-3,3.788304515E-3,6.325626373E-2,6.395135118E-2
2.228003043E0,-1.121720672E-2,-7.895329967E-3,1.111326218E-1,1.119759866E-1
2.238003043E0,-1.365467906E-2,-1.460160315E-2,9.437084198E-2,9.646508638E-2
2.248003043E0,7.979363203E-3,-1.129330136E-2,2.973270416E-2,3.279089187E-2
2.258003109E0,-4.176944494E-3,1.544313226E-2,-1.576614380E-2,2.246126643E-2
2.268003109E0,5.425214767E-3,1.248651184E-2,-1.576614380E-2,2.083067986E-2
2.278003109E0,1.286858320E-2,2.168498561E-2,5.367755890E-2,5.930530637E-2
2.288003109E0,8.239448071E-4,-2.600002661E-2,9.437751770E-2,9.789686469E-2
2.298003109E0,8.462369442E-4,-2.299342863E-2,4.888916016E-2,5.403298861E-2
2.308002642E0,-5.560725927E-3,8.495623246E-3,-8.538246155E-3,1.326645901E-2
2.318002642E0,-2.134439349E-2,-6.042750552E-3,3.478050232E-3,2.245428247E-2
2.328002642E0,1.240462065E-3,-1.563131437E-2,1.112680435E-1,1.123674964E-1
2.338002642E0,-3.163975477E-2,-2.216241322E-2,1.136932373E-1,1.200766374E-1
2.348002642E0,-2.128157020E-2,2.978987992E-3,9.697246552E-2,9.932491464E-2
2.358002642E0,-6.842046976E-3,-4.019483924E-3,8.739852905E-2,8.775803518E-2
2.368002642E0,1.154056191E-2,3.326842561E-3,8.351325989E-3,1.462863960E-2
2.378002642E0,-4.239022732E-3,5.474522710E-3,-6.079673767E-3,9.214236036E-3
2.388002642E0,-9.516656399E-3,6.194915622E-4,3.474235535E-3,1.014991780E-2
2.398003108E0,1.430442929E-2,1.243915502E-2,-1.089668274E-2,2.186519997E-2
2.408002908E0,2.393037081E-3,-7.024867460E-3,2.980899811E-2,3.071891530E-2
2.418002908E0,7.752478123E-3,1.407228410E-4,3.941154480E-2,4.016703354E-2
2.428002908E0,-7.818639278E-4,-1.982295886E-3,8.016300201E-2,8.019131936E-2
2.438002908E0,7.010489702E-3,-6.390642375E-3,7.061386108E-2,7.124819052E-2
2.448002441E0,-1.814812422E-3,7.885063998E-3,5.628395081E-2,5.686256147E-2
2.458002441E0,-1.077678800E-2,-9.058134630E-3,5.391693115E-2,5.572454062E-2
2.468002441E0,-6.856620312E-4,7.672415115E-3,5.633544922E-2,5.685964232E-2
2.478002441E0,1.591926813E-2,7.719062269E-4,7.548332214E-2,7.714759140E-2
2.488002441E0,1.046666503E-2,1.303410809E-2,6.348133087E-2,6.564539908E-2
2.498002441E0,2.227425575E-4,-1.122481190E-2,3.711318970E-2,3.877415203E-2
2.508002907E0,4.258155823E-4,2.198370546E-2,2.514934540E-2,3.340590066E-2
2.518002907E0,-4.098296165E-3,2.166792378E-2,3.713321686E-2,4.318762261E-2
2.528002907E0,-4.690825939E-3,-1.005841605E-2,7.541370392E-2,7.622599504E-2
2.538002907E0,9.581565857E-3,-1.456732862E-2,4.189014435E-2,4.537397559E-2
2.548002907E0,-2.835810184E-3,1.647939906E-2,-8.411407471E-3,1.871801774E-2
2.558002840E0,-2.890780568E-2,1.796444878E-3,1.178741455E-3,2.898754689E-2
2.568002840E0,-1.667430997E-2,-1.264345460E-2,6.583499908E-2,6.908065331E-2
2.577969506E0,-1.216048002E-2,-1.708006114E-2,7.540035248E-2,7.826122230E-2
2.587936172E0,9.292393923E-3,-1.655931585E-2,6.581974030E-2,6.850399798E-2
2.597902838E0,-9.594649076E-3,-7.077310234E-3,5.146598816E-2,5.282890826E-2
2.607869504E0,-1.162272692E-2,1.207306143E-2,4.190635681E-2,4.513301823E-2
2.617836637E0,-2.697974443E-3,-2.665136009E-3,8.976078033E-2,8.984085764E-2
2.627803303E0,1.338428259E-2,-7.184989750E-3,7.536411285E-2,7.687985825E-2
2.637769969E0,-4.308968782E-3,9.736791253E-3,4.898452759E-2,5.012839773E-2
2.647736635E0,-4.940569401E-3,-1.187400520E-2,1.064682007E-2,1.669598763E-2
2.657703301E0,3.704130650E-3,2.106560394E-3,2.496910095E-2,2.533010428E-2
2.667669967E0,-1.154381037E-2,-5.264852196E-3,5.844879150E-2,5.981002804E-2
2.677636633E0,-1.422101259E-2,-1.461141557E-2,5.364704132E-2,5.739107689E-2
2.687603299E0,-4.443675280E-3,-7.030347362E-3,1.056098938E-2,1.344271292E-2
2.697569499E0,-1.611971855E-2,-1.819770783E-3,1.536273956E-2,2.234212744E-2
2.707536365E0,-1.112952828E-2,1.038682647E-2,4.410362244E-2,4.665706887E-2
2.717503031E0,-6.260007620E-3,1.038812287E-2,3.453063965E-2,3.659871400E-2
2.727470131E0,2.033448219E-2,7.552206516E-4,3.693580627E-2,4.217007600E-2
2.737436464E0,1.259207726E-3,2.485917695E-2,3.215122223E-2,4.066036613E-2
2.747403130E0,-7.449090481E-4,3.290984780E-3,2.498626709E-2,2.521307227E-2
2.757369796E0,8.974611759E-3,3.286391497E-3,6.090736389E-2,6.165266419E-2
2.767336462E0,1.357153058E-2,-1.777192578E-3,9.681224823E-2,9.777502883E-2
2.777303128E0,3.004434705E-2,5.573853850E-3,7.285690308E-2,7.900543628E-2
2.787269794E0,2.903518081E-2,-1.390481927E-2,8.164405823E-3,3.321209487E-2
2.797236460E0,-8.217096329E-3,-6.946871057E-3,-1.474380493E-3,1.086063936E-2
2.807202660E0,1.025268435E-2,1.219199505E-2,4.159164429E-2,4.453792939E-2
2.817169326E0,-1.445013285E-2,4.973076284E-3,5.831718445E-2,6.028624909E-2
2.827135992E0,-9.871780872E-3,-1.168105751E-2,5.591297150E-2,5.796688316E-2
2.837102658E0,-3.196299076E-4,1.475223713E-2,4.633522034E-2,4.862800949E-2
2.847069324E0,-7.486552000E-3,2.641690895E-3,2.718162537E-2,2.831726945E-2
2.857035990E0,-1.459676027E-2,1.209590491E-2,2.239704132E-2,2.934286601E-2
2.867003123E0,2.310544252E-3,4.889525473E-3,4.873943329E-2,4.903854027E-2
2.877003123E0,-2.425789833E-3,2.061598003E-3,6.789588928E-2,6.797048201E-2
2.887003123E0,2.333045006E-3,4.569709301E-3,4.874038696E-2,4.900969969E-2
2.897003123E0,3.109234571E-2,9.406108409E-3,4.634761810E-2,5.659779626E-2
2.907003123E0,4.292994738E-3,9.082548320E-3,3.914260864E-2,4.041121502E-2
2.917002656E0,1.371341944E-2,-5.303751677E-3,4.871273041E-2,5.088337409E-2
2.927002656E0,-1.554811001E-2,1.602378115E-2,3.671646118E-2,4.297212828E-2
2.937002656E0,8.480668068E-3,1.361041889E-2,3.193187714E-2,3.573247837E-2
2.947002656E0,5.820930004E-3,-6.081037223E-3,3.670787811E-2,3.766072962E-2
2.957002356E0,-1.331612468E-2,-8.307272568E-3,7.262325287E-2,7.429984395E-2
2.967002356E0,-2.287185192E-2,-5.684494972E-3,5.107593536E-2,5.625110014E-2
2.977002822E0,-1.309561729E-2,1.595361158E-2,5.108547211E-2,5.509753511E-2
2.987002822E0,-5.307912827E-3,-1.338861138E-2,5.350494385E-2,5.540945650E-2
2.997002822E0,8.711665869E-3,1.048569288E-2,3.672981262E-2,3.917808077E-2
3.007002822E0,-2.247196436E-2,5.108434707E-4,4.151630402E-2,4.721073652E-2
3.017002822E0,1.252382994E-3,-1.901358366E-3,2.474498749E-2,2.484950769E-2
3.027002388E0,2.282083035E-2,1.238744333E-2,3.192806244E-2,4.115386034E-2
3.037002721E0,8.479177952E-3,-1.992214471E-3,1.517009735E-2,1.749277653E-2
3.047002721E0,1.120969653E-2,1.966306940E-2,5.109977722E-2,5.588810989E-2
3.057002721E0,1.959383488E-3,2.459628880E-2,7.266235352E-2,7.673743692E-2
3.067002721E0,-5.584359169E-3,-4.614882171E-3,8.940601349E-2,8.969903819E-2
3.077002721E0,3.767579794E-3,4.660264589E-3,7.742404938E-2,7.765562533E-2
3.087002721E0,-1.109206676E-2,4.146232270E-3,5.824661255E-2,5.943814483E-2
3.097002721E0,4.862636328E-3,1.061464380E-2,4.863166809E-2,5.001354853E-2
3.107002721E0,1.116886735E-2,5.071165971E-3,1.507091522E-2,1.943174742E-2
3.117003187E0,-1.132994890E-3,-2.320553176E-3,1.984405518E-2,2.001137602E-2
3.127003187E0,3.928521276E-2,-1.676188782E-2,4.138088226E-2,5.946987676E-2
3.137003187E0,3.824976087E-2,-1.683077775E-2,4.133319855E-2,5.877714342E-2
3.147003187E0,1.308381557E-3,7.166394033E-3,2.452659607E-2,2.558560104E-2
3.157003187E0,-6.334543228E-3,-2.406002581E-2,3.647804260E-2,4.415494165E-2
3.167002720E0,-6.063163280E-3,-7.330579683E-3,4.846096039E-2,4.938586872E-2
3.177002286E0,1.520559192E-2,1.219643280E-2,5.323791504E-2,5.669425541E-2
3.187002286E0,-4.267454147E-3,-1.647866704E-2,2.928161621E-2,3.386990818E-2
3.197002286E0,-1.124596596E-2,9.849668480E-3,3.407859802E-2,3.721341912E-2
3.207002286E0,3.384411335E-3,-1.394289359E-2,6.042766571E-2,6.210765899E-2
3.217002286E0,-1.838767529E-2,-1.347436290E-2,7.478427887E-2,7.818154145E-2
3.227002719E0,-1.124942303E-2,-8.515069261E-3,7.238769531E-2,7.374980919E-2
3.237002719E0,-1.858896017E-2,1.780130342E-2,6.998634338E-2,7.456892184E-2
3.247002719E0,-6.370902061E-3,5.894739181E-3,3.408432007E-2,3.517210852E-2
3.257003019E0,-1.634553075E-2,-1.105002221E-2,4.124927521E-2,4.572507049E-2
3.267003019E0,7.601320744E-3,9.832205251E-4,2.448844910E-2,2.565990917E-2
3.277002552E0,1.457256079E-2,3.182018176E-3,1.968955994E-2,2.470148858E-2
3.287683380E0,9.799569845E-3,-8.929777890E-3,-9.040832520E-3,1.604709179E-2
3.297683380E0,-1.149305701E-2,1.219723374E-3,6.040573120E-2,6.150146703E-2
3.307683380E0,-3.809958696E-3,-1.042001694E-2,8.676624298E-2,8.747270122E-2
3.317683380E0,-2.024859190E-2,-7.860604674E-3,7.481002808E-2,7.789951785E-2
3.327683380E0,-1.252907515E-2,7.008699700E-3,4.610347748E-2,4.828695715E-2
3.337683380E0,-2.411007881E-2,-1.948289573E-4,3.654289246E-2,4.378032489E-2
3.347683380E0,-1.615989208E-2,-9.533928707E-3,2.221202850E-2,2.907597150E-2
3.357683380E0,1.330113411E-2,-9.304156527E-3,1.506328583E-2,2.214475281E-2
3.367683846E0,-3.084421158E-3,1.714820042E-2,1.268577576E-2,2.155233951E-2
3.377683846E0,1.454895735E-2,-1.861739904E-3,3.666782379E-2,3.949262636E-2
3.387683846E0,-1.817506552E-2,5.607218482E-3,6.543540955E-2,6.814372112E-2
3.397683846E0,-1.276066899E-2,-1.577915251E-2,7.025337219E-2,7.312559491E-2
3.407683846E0,-2.422583103E-2,-5.969831720E-3,6.309509277E-2,6.784924843E-2
3.417683379E0,-2.298206091E-3,3.705000505E-3,4.156303406E-2,4.179108254E-2
3.427683379E0,-1.867190003E-2,-1.313797012E-2,3.200340271E-2,3.931238857E-2
3.437683379E0,-5.966842175E-3,1.520713791E-3,5.119132996E-2,5.156033397E-2
3.447683379E0,-1.080125570E-3,-3.100367263E-3,6.795597076E-2,6.803523286E-2
3.457683379E0,-7.948994637E-3,-5.069430918E-3,6.557655334E-2,6.625081127E-2
3.467683379E0,-3.325939178E-4,2.468489110E-3,2.010631561E-2,2.026000949E-2
3.477684245E0,-2.399682999E-4,1.184538100E-2,9.565353394E-4,1.188636175E-2
3.487684245E0,7.019370794E-3,-2.582179382E-3,2.011299133E-2,2.145860287E-2
3.497684245E0,5.447864532E-5,-2.164041623E-2,4.406547546E-2,4.909253213E-2
3.507684245E0,5.590617657E-4,-1.167128608E-2,5.366706848E-2,5.492436352E-2
3.517684245E0,1.115500927E-3,-3.594690934E-3,5.848312378E-2,5.860411173E-2
3.527683811E0,4.209786654E-3,-8.568726480E-4,5.851650238E-2,5.867399411E-2
3.537683811E0,-2.892017365E-3,-5.179906264E-3,6.330966949E-2,6.358702261E-2
3.547683811E0,4.626870155E-3,-2.831816673E-4,5.853652954E-2,5.871978721E-2
3.557683811E0,6.733357906E-3,2.151483484E-2,7.049465179E-2,7.401163529E-2
3.567683811E0,1.679360867E-3,-1.207574084E-2,2.499103546E-2,2.780639537E-2
3.577683811E0,2.049827576E-2,-2.934113145E-4,3.426551819E-3,2.078476982E-2
3.587683811E0,1.070770621E-2,1.403578650E-2,8.205413818E-3,1.946759079E-2
3.597683811E0,-3.706419468E-2,4.487080500E-3,2.257728577E-2,4.363051972E-2
3.607683811E0,-2.931475639E-2,-4.699401557E-3,7.767200470E-2,8.315274879E-2
3.617684277E0,4.941195250E-3,1.929336786E-2,6.094551086E-2,6.411711744E-2
3.627684277E0,-4.267275333E-3,1.950842887E-2,3.223133087E-2,3.791631741E-2
3.637684277E0,-2.761533856E-2,-4.930315539E-3,6.098937988E-2,6.713135924E-2
3.647684277E0,-5.617320538E-3,-7.572490722E-3,1.065006256E-1,1.069171650E-1
3.657684277E0,-1.034137607E-2,-5.426272750E-3,1.256580353E-1,1.261995655E-1
3.667683810E0,1.155674458E-3,-1.033858396E-2,1.160583496E-1,1.165236560E-1
3.677683810E0,-6.970763206E-4,-1.344801858E-3,4.893207550E-2,4.895551471E-2
3.687683810E0,2.471208572E-4,1.692625508E-2,-6.845474243E-2,7.051674227E-2
3.697683810E0,3.852546215E-3,3.978054971E-3,-7.329940796E-2,7.350830049E-2
3.707683810E0,2.261579037E-2,-2.272442169E-2,-2.064514160E-2,3.813260006E-2
3.717683810E0,3.062605858E-3,-1.200042665E-3,4.637813568E-2,4.649463546E-2
3.727684243E0,1.169025898E-3,-1.283996366E-2,8.231449127E-2,8.331810585E-2
3.737684243E0,2.348506451E-2,-9.740876034E-3,6.798553467E-2,7.258419831E-2
3.747684243E0,4.680633545E-3,5.133096129E-4,6.560802460E-2,6.577677940E-2
3.757684243E0,-9.603440762E-3,1.287261490E-2,5.843067169E-2,6.059763760E-2
3.767684243E0,-1.651287079E-2,1.094361767E-3,8.163452148E-3,1.845303445E-2
3.777683809E0,3.316789865E-3,1.064651832E-2,8.193969727E-3,1.383801240E-2
3.787683809E0,3.880649805E-3,-1.159114763E-3,2.976894379E-2,3.004318565E-2
3.797683809E0,7.247090340E-3,-1.050261594E-2,3.939056396E-2,4.140581831E-2
3.807683809E0,-6.375849247E-3,-2.986660227E-3,5.379104614E-2,5.424986855E-2
3.817683809E0,3.555452824E-2,-1.940618083E-2,4.666709900E-2,6.179435623E-2
3.827683809E0,-2.513676882E-3,-1.390795968E-2,6.104469299E-2,6.265943230E-2
3.837683809E0,9.805500507E-3,-8.280145004E-3,7.063961029E-2,7.179598306E-2
3.847683809E0,-1.628786325E-2,-9.901365265E-3,5.628681183E-2,5.942673396E-2
3.857683809E0,-1.567250490E-2,-1.633596234E-2,8.744335175E-2,9.032624668E-2
3.867684275E0,-2.024284005E-2,1.095025986E-2,8.266639709E-2,8.581033722E-2
3.877684275E0,-1.285812259E-2,-1.754450612E-2,5.633926392E-2,6.039249680E-2
3.887684275E0,-2.283418179E-2,1.595356688E-2,3.477287292E-2,4.455411143E-2
3.897684275E0,-1.112595201E-2,-1.118183136E-3,1.800060272E-2,2.119100847E-2
3.907684275E0,1.475438476E-2,2.000610158E-2,6.586265564E-2,7.039762338E-2
3.917683808E0,-2.449059486E-2,7.587915286E-3,6.581878662E-2,7.063623976E-2
3.927683808E0,-1.731041074E-2,4.971522838E-3,2.750968933E-2,3.288083585E-2
3.937683808E0,-1.046657562E-4,-1.291986555E-4,2.752971649E-2,2.753021862E-2
3.947683808E0,1.428484917E-2,1.614786312E-2,8.375167847E-3,2.312906906E-2
3.957683808E0,-1.209887862E-2,2.280896716E-2,-1.205444336E-3,2.584733918E-2
3.967683808E0,-1.130583882E-2,2.240542695E-2,-1.170158386E-3,2.512358292E-2
3.977684241E0,6.471544504E-3,5.625154823E-3,5.394554138E-2,5.462274883E-2
3.987684241E0,1.192584634E-2,-6.338847801E-3,5.876541138E-2,6.029743259E-2
3.997684241E0,-4.011988640E-3,8.057205006E-3,4.443740845E-2,4.533980453E-2
4.007684241E0,8.997589350E-3,8.346607909E-3,4.448699951E-2,4.614884184E-2
4.017684241E0,1.204571128E-2,-8.669545874E-3,4.691219330E-2,4.920380134E-2
4.027683807E0,-1.411676407E-2,5.800729617E-3,6.128501892E-2,6.315682889E-2
4.037683807E0,-2.301162481E-2,1.269299537E-3,7.568359375E-2,7.911480494E-2
4.047683807E0,-2.965447307E-2,9.829010814E-4,6.134223938E-2,6.814120779E-2
4.057683807E0,-2.880015969E-2,3.051623702E-3,8.053588867E-2,8.558499267E-2
4.067683807E0,-6.588071585E-3,-1.400295459E-2,6.620025635E-2,6.798499367E-2
4.077683807E0,-6.226271391E-3,-1.646432094E-2,3.988075256E-2,4.359259965E-2
4.087683807E0,7.693558931E-3,-9.357482195E-3,-1.042079926E-2,1.597956129E-2
4.097683807E0,-6.941497326E-3,1.205694303E-2,-2.958774567E-2,3.269539653E-2
4.107683807E0,-1.092344522E-2,-4.533965141E-3,1.354789734E-2,1.798399338E-2
4.117683873E0,1.163908839E-2,1.252844185E-2,7.584762573E-2,7.775147949E-2
4.127683873E0,2.376735210E-3,-2.543614805E-2,9.501743317E-2,9.839186503E-2
4.137683873E0,-7.003843784E-3,-8.342780173E-3,7.347774506E-2,7.428078370E-2
4.147683873E0,-6.496965885E-3,-1.011828706E-2,2.801227570E-2,3.048405958E-2
4.157683873E0,-1.812636852E-2,7.116507739E-3,2.803039551E-2,3.413082171E-2
4.167683406E0,-2.563127875E-2,7.032271475E-3,6.632328033E-2,7.145063196E-2
4.177683406E0,3.223568201E-3,1.899447665E-2,7.829952240E-2,8.063495981E-2
4.187683406E0,-3.965139389E-3,-1.010353677E-2,8.069324493E-2,8.141992117E-2
4.197683406E0,5.332887173E-3,-1.259063929E-2,7.589149475E-2,7.711344149E-2
4.207683406E0,2.463340759E-3,-5.448795855E-3,1.361846924E-2,1.487347062E-2
4.217683406E0,-2.868264914E-3,1.577585191E-2,8.802413940E-3,1.829171775E-2
4.227683839E0,-6.258934736E-3,-4.063341767E-3,3.269672394E-2,3.353745319E-2
4.237683839E0,3.761053085E-5,7.656807080E-3,5.420303345E-2,5.474118143E-2
4.247683839E0,-1.729184389E-2,-1.988023520E-3,5.657100677E-2,5.918816529E-2
4.257683839E0,-3.029227257E-3,-4.530319944E-3,6.135368347E-2,6.159524732E-2
4.267683839E0,2.550971508E-2,-1.336075366E-5,2.542972565E-2,3.601967085E-2
4.277683405E0,1.991039515E-2,6.550362334E-3,2.060222626E-2,2.939018218E-2
4.287683405E0,-4.665106535E-3,1.313082874E-3,3.254318237E-2,3.290206870E-2
4.297683405E0,-1.709142327E-2,1.196105033E-3,3.491592407E-2,3.889304784E-2
4.307683405E0,-2.695742249E-2,1.542707719E-2,6.123924255E-2,6.866543648E-2
4.317683405E0,-1.242649555E-2,5.529614165E-3,5.166912079E-2,5.342932217E-2
4.327683405E0,2.327084541E-3,-9.158700705E-3,5.168628693E-2,5.254302406E-2
4.337683405E0,1.872986555E-3,-1.893551461E-2,4.448223114E-2,4.838109837E-2
4.347683405E0,1.571822166E-2,-2.432513982E-3,1.572704315E-2,2.236782294E-2
4.357683405E0,1.053249836E-2,9.353993461E-3,1.331329346E-2,1.938232437E-2
4.367683871E0,5.279600620E-3,-9.495357051E-3,5.160045624E-2,5.273180323E-2
4.377683871E0,2.833008766E-4,-2.447374165E-3,6.116771698E-2,6.121731373E-2
4.387683871E0,2.105936408E-2,2.585705370E-3,6.592082977E-2,6.925127064E-2
4.397683871E0,2.016037703E-2,-6.963931024E-3,6.109142303E-2,6.470779787E-2
4.407683871E0,-2.572715282E-3,1.470254362E-2,5.624771118E-2,5.819440408E-2
4.417684271E0,1.514375210E-3,1.541208476E-4,4.185009003E-2,4.187776404E-2
4.427684271E0,-1.500397921E-3,1.904660091E-2,4.182147980E-2,4.597891226E-2
4.437650937E0,1.690635085E-2,1.154595148E-2,4.417896271E-2,4.869203673E-2
4.447617603E0,3.695487976E-3,-1.060975716E-2,3.454494476E-2,3.632597950E-2
4.457584269E0,7.910430431E-3,1.080954541E-2,8.180618286E-3,1.569533998E-2
4.467550935E0,2.645522356E-3,-3.903482109E-3,-2.536201477E-2,2.579666169E-2
4.477517601E0,2.903610468E-3,3.141330555E-3,-6.195068359E-3,7.528464876E-3
4.487484267E0,-6.434440613E-3,-6.578749046E-3,3.691196442E-2,3.804175446E-2
4.497450933E0,8.669346571E-3,-6.226766855E-3,6.807231903E-2,6.890406965E-2
4.507417599E0,9.582191706E-3,-5.767423660E-3,6.811523438E-2,6.902728973E-2
4.517384265E0,8.237361908E-4,-1.499165595E-2,3.223896027E-2,3.556372939E-2
4.527350498E0,6.324887276E-3,-9.677326307E-3,2.269554138E-2,2.547042289E-2
4.537317164E0,-9.827345610E-3,5.230575800E-3,3.469657898E-2,3.643882871E-2
4.547283830E0,-4.512295127E-2,3.259794787E-3,9.458255768E-2,1.048454444E-1
4.557250496E0,-2.766817808E-2,4.089258611E-3,1.425018311E-1,1.452205976E-1
4.567217162E0,2.012252808E-2,-2.649912611E-3,9.461307526E-2,9.676555266E-2
4.577183828E0,2.361983061E-2,1.200965047E-2,6.103420258E-2,6.653797402E-2
4.587150994E0,1.580637693E-2,1.904805377E-2,-9.701728821E-2,1.001250424E-1
4.597117660E0,8.795678616E-3,-6.906855851E-4,-1.305303574E-1,1.308281896E-1
4.607084326E0,-4.309719801E-2,-1.038826816E-2,4.668140411E-2,6.437731030E-2
4.617050992E0,-3.132963181E-2,-1.897019148E-2,1.257963181E-1,1.310195696E-1
4.627017658E0,-3.443780541E-2,-2.738143504E-2,2.240428925E-1,2.283219724E-1
4.636984324E0,-1.414701343E-2,-2.051198855E-3,1.762132645E-1,1.767921378E-1
4.646950990E0,-2.062338591E-2,-3.817988560E-3,3.259086609E-2,3.875649152E-2
4.656917656E0,6.107121706E-3,1.545910537E-2,-1.048660278E-2,1.965323669E-2
4.666883856E0,7.632404566E-3,1.251419354E-2,-2.010631561E-2,2.488217368E-2
4.676850522E0,3.032925725E-2,1.687671617E-2,-8.194923401E-3,3.566292421E-2
4.686817188E0,2.895712852E-3,-9.608445689E-3,6.358242035E-2,6.436949246E-2
4.696783854E0,-6.712973118E-4,-2.406311408E-2,1.018362045E-1,1.046427095E-1
4.706750520E0,7.428467274E-3,6.512787193E-3,7.303524017E-2,7.370037198E-2
4.716716720E0,2.505061030E-2,4.525668919E-4,-1.083755493E-2,2.729817742E-2
4.726683386E0,-9.399205446E-3,-1.743230969E-4,5.878448486E-3,1.108745274E-2
4.736683386E0,-1.452365518E-2,-9.938880801E-3,4.656505585E-2,4.977973822E-2
4.746683386E0,8.672744036E-3,-1.234230027E-2,2.977180481E-2,3.337527867E-2
4.756683386E0,5.377322435E-2,2.560200356E-2,-3.767013550E-3,5.967589660E-2
4.766683386E0,-3.704965115E-3,1.330276858E-2,8.201599121E-3,1.606102881E-2
4.776683386E0,-1.404881477E-4,-5.516206846E-3,1.040287018E-1,1.041749445E-1
4.786683386E0,3.118664026E-2,2.159954607E-2,1.064329147E-1,1.129916469E-1
4.796683386E0,-2.747297287E-2,-1.685247011E-2,2.976131439E-2,4.386918989E-2
4.806683386E0,-1.966333389E-2,2.107373066E-2,-1.809692383E-2,3.403303507E-2
4.816683386E0,-4.979765415E-2,-2.465069667E-2,3.222751617E-2,6.423453903E-2
4.826683386E0,-4.223769903E-2,-5.018202215E-2,1.375951767E-1,1.524292991E-1
4.836683452E0,-2.842512727E-2,-1.316286810E-2,1.136293411E-1,1.178680454E-1
4.846683452E0,-5.311235785E-2,-9.040907025E-4,8.248329163E-3,5.375662630E-2
4.856683452E0,-1.203897297E-1,3.467986360E-3,-3.486061096E-2,1.253833169E-1
4.866683452E0,2.740055323E-2,3.414174169E-2,-1.018218994E-1,1.108338759E-1
4.876683452E0,6.548953056E-2,2.375581861E-2,2.985191345E-2,7.579151844E-2
4.886682952E0,2.722734213E-2,-9.169010445E-3,1.111497879E-1,1.148027624E-1
4.896682952E0,2.618008852E-2,6.801331416E-3,4.646110535E-2,5.376141231E-2
4.906682952E0,1.187652349E-3,5.454000086E-3,-9.473705292E-2,9.490134789E-2
4.916682952E0,-4.033657908E-2,1.054441929E-2,-6.103420258E-2,7.391480416E-2
4.926682952E0,-7.650426030E-2,7.294796407E-3,6.847095490E-2,1.029290414E-1
4.936682952E0,-2.665284276E-2,1.574363559E-4,8.783721924E-2,9.179202524E-2
4.946682952E0,1.063652635E-1,-2.494668588E-3,6.647109985E-2,1.254519819E-1
4.956682952E0,1.230357289E-1,-2.405132353E-2,7.855987549E-2,1.479456346E-1
4.966682952E0,5.208456516E-2,2.951752394E-3,1.073446274E-1,1.193498379E-1
4.976682952E0,-5.516755581E-2,1.319468021E-3,8.822631836E-2,1.040628822E-1
4.986682952E0,-1.727640629E-2,-1.988525689E-2,3.805255890E-2,4.628061035E-2
4.996682952E0,-1.439198852E-2,-1.752144471E-2,3.820228577E-2,4.442459900E-2
5.006682952E0,-4.497247934E-2,-3.160339594E-2,3.368568420E-2,6.446723085E-2
5.016682952E0,-7.274463773E-2,-1.513800025E-2,8.186531067E-2,1.105570914E-1
5.026682952E0,-5.799895525E-2,-2.805924043E-2,1.563529968E-1,1.691078336E-1
5.036682952E0,-2.994704247E-2,-2.062702924E-2,1.636219025E-1,1.676139214E-1
5.046682952E0,5.160290003E-2,-7.160601765E-2,-4.614000320E-1,4.697661872E-1
5.056682952E0,-5.659279227E-2,9.566196799E-2,-4.903936386E-1,5.028318576E-1
5.066682952E0,-9.242519736E-2,-4.162361100E-2,2.104406357E-1,2.335812562E-1
5.076682952E0,-1.936748624E-2,-8.616607636E-2,5.209817886E-1,5.284143415E-1
5.086683452E0,4.022678733E-2,-2.631282434E-2,3.840703964E-1,3.870666978E-1
5.096683452E0,5.351984501E-2,2.634846047E-2,1.492748260E-1,1.607531924E-1
5.106683452E0,7.261824608E-2,-9.013153613E-4,8.004188538E-3,7.306359605E-2
5.116683452E0,-1.441115141E-2,-1.574163139E-2,1.348609924E-1,1.365392527E-1
5.126683452E0,-1.225297749E-1,6.423065066E-2,1.203632355E-1,1.833751092E-1
5.136683385E0,-1.538341343E-1,1.207748055E-1,-1.861295700E-1,2.699920580E-1
5.146683385E0,8.674722910E-2,6.000965089E-2,-3.150625229E-1,3.322508590E-1
5.156683385E0,2.728242278E-1,-6.042902917E-2,-2.615213394E-1,3.827246240E-1
5.166683385E0,-2.952128649E-3,-2.008650154E-1,1.085033417E-1,2.283165448E-1
5.176683385E0,-1.876018643E-1,-9.719172120E-2,3.206043243E-1,3.839633094E-1
5.186683385E0,-2.656860352E-1,-2.028308809E-3,3.570909500E-1,4.450922712E-1
5.196683385E0,-2.631919980E-1,-5.306921154E-2,2.683401108E-1,3.795955533E-1
5.206683385E0,-1.815878153E-1,-1.733367518E-2,1.169576645E-1,2.166879928E-1
5.216683385E0,7.388377190E-2,-2.668342367E-2,4.935741425E-2,9.277376347E-2
5.226683385E0,-2.300721407E-2,-5.040745065E-2,-2.290725708E-2,5.995819716E-2
5.236683385E0,-3.513886034E-1,-4.439451545E-2,-1.455316544E-1,3.829155077E-1
5.246683385E0,-9.292703271E-1,-1.813672483E-1,-3.878993988E-1,1.023182957E0
5.256683385E0,-9.718167782E-1,-2.647161186E-1,-3.668174744E-1,1.071941012E0
5.266683385E0,-4.877402484E-1,-2.231491208E-1,-8.212375641E-2,5.426144040E-1
5.276683385E0,-9.964650869E-2,-1.599615812E-1,8.799076080E-2,2.079892020E-1
5.286683385E0,6.418032646E-1,4.730821401E-2,4.307966232E-1,7.744257409E-1
5.296683385E0,8.398744464E-1,1.801803559E-1,5.175485611E-1,1.002851215E0
5.306683385E0,1.041067123E0,4.170487821E-1,3.023004532E-1,1.161523141E0
5.316683385E0,1.078671455E0,4.560442567E-1,3.888607025E-2,1.171759617E0
5.326683385E0,-2.297621071E-1,-1.037168428E-1,-1.888732910E-1,3.149935387E-1
5.336683885E0,-6.995674968E-2,-9.231620282E-2,-2.515096664E-1,2.768995133E-1
5.346683885E0,-2.465721965E-2,-1.504259836E-2,1.401329041E-2,3.210343524E-2
5.356683885E0,-9.778770804E-2,1.427734494E-1,-9.379100800E-2,1.968335512E-1
5.366683885E0,-2.144532800E-1,-5.567670614E-2,-3.209848404E-1,3.900273999E-1
5.376683885E0,-1.480464637E-1,-6.587886810E-2,2.681732178E-3,1.620647166E-1
5.386683385E0,1.199871302E-2,-2.705744468E-2,5.538311005E-1,5.546214585E-1
5.396683385E0,8.625441790E-2,-4.185954109E-3,6.405258179E-1,6.463208725E-1
5.406683385E0,9.017112851E-2,-3.978987411E-2,3.750934601E-1,3.878262115E-1
5.416683385E0,1.852735877E-2,-9.163050354E-2,2.148084641E-1,2.342692648E-1
5.426683385E0,-2.537417412E-2,-5.547134951E-2,-8.035659790E-3,6.152634522E-2
5.436683385E0,1.537394524E-2,-5.347879976E-2,-4.911518097E-2,7.422022108E-2
5.446683385E0,9.935477376E-2,-9.479064494E-2,5.562973022E-2,1.481597257E-1
5.456683385E0,1.414360404E-1,-7.366830856E-2,3.583240509E-2,1.634476505E-1
5.466683385E0,9.978047013E-2,-2.851220407E-2,-1.346673965E-1,1.700129280E-1
5.476683385E0,-5.425274372E-2,3.858011961E-2,-2.499675751E-1,2.586804485E-1
5.486683385E0,-5.841782689E-2,3.468888253E-2,-2.501583099E-1,2.592202560E-1
5.496683385E0,-1.512575150E-1,1.794805974E-1,5.361366272E-2,2.407624254E-1
5.506683385E0,-3.259631991E-2,3.669199347E-2,2.733078003E-1,2.776796286E-1
5.516683385E0,-3.117200732E-2,8.764266968E-4,2.844181061E-1,2.861225633E-1
5.526683385E0,-1.141515374E-2,3.859286010E-2,3.686332703E-2,5.457673007E-2
5.536683385E0,-2.200558782E-2,4.286218807E-2,2.882289886E-2,5.614421217E-2
5.546683385E0,1.651203632E-2,5.315983295E-2,6.867694855E-2,8.840327169E-2
5.556683385E0,1.007855237E-1,2.491935343E-2,1.038026810E-1,1.468117588E-1
5.566683385E0,7.866352797E-2,2.336722985E-2,1.031093597E-1,1.317782916E-1
5.576683385E0,1.248897761E-1,-8.745631576E-2,2.031269073E-1,2.539815029E-1
5.586683851E0,4.025588930E-2,-1.265432686E-2,4.757137299E-1,4.775816385E-1
5.596683851E0,1.510692090E-1,7.196574658E-2,7.746925354E-1,7.925588300E-1
5.606683851E0,3.026199639E-1,1.074470580E-1,9.491891861E-1,1.002039831E0
5.616683851E0,2.902786136E-1,4.377668723E-2,9.035177231E-1,9.500117619E-1
5.626683851E0,1.559368223E-1,-3.969334066E-2,7.766237259E-1,7.931180653E-1
5.636683351E0,1.114106476E-1,1.071089134E-2,8.821830750E-1,8.892547629E-1
5.646683351E0,-1.125237346E-2,1.061518341E-1,1.105219841E0,1.110362880E0
5.656683351E0,-4.916250706E-3,1.118495911E-1,1.318899155E0,1.323642505E0
5.666683351E0,1.578701586E-1,1.487670839E-1,1.420356750E0,1.436825644E0
5.676683351E0,5.820484757E-1,2.096891999E-1,1.637142181E0,1.750138426E0
5.686683351E0,1.069092512E0,2.664343119E-1,1.650465012E0,1.984434629E0
5.696683351E0,1.153671861E0,2.478919923E-1,1.326302528E0,1.775242969E0
5.706683351E0,9.914772511E-1,1.039337963E-1,1.074164391E0,1.465489171E0
5.716683351E0,8.064582348E-1,-2.529540658E-2,1.257667542E0,1.494236389E0
5.726683351E0,3.120446801E-1,-2.293412983E-1,2.048759460E0,2.085038283E0
5.736683817E0,-6.386816502E-2,-1.707199812E-1,2.113905907E0,2.121749900E0
5.746683817E0,-3.636181653E-1,2.481415123E-1,2.197959900E0,2.241611051E0
5.756683817E0,-4.676498175E-1,3.720538616E-1,2.343802452E0,2.418786961E0
5.766683817E0,-5.005328655E-1,4.045576453E-1,2.551388741E0,2.631308523E0
5.776683817E0,-3.913277984E-1,3.677091002E-1,2.705958366E0,2.758724000E0
5.786683817E0,-1.194725633E-1,3.303829730E-1,2.879486084E0,2.900838967E0
5.796684317E0,1.411467791E-3,3.353331089E-1,2.890028000E0,2.909417833E0
5.806684317E0,2.254016250E-1,3.445219994E-1,2.974865913E0,3.003219689E0
5.816684317E0,2.411747873E-1,3.475125432E-1,3.033394814E0,3.062746209E0
5.826684317E0,3.283004165E-1,3.345330358E-1,3.245185852E0,3.278860279E0
5.836684783E0,3.205881715E-1,3.235372007E-1,3.392395973E0,3.422835599E0
5.846684783E0,2.517702281E-1,3.926477432E-1,3.551755905E0,3.582252156E0
5.856684783E0,1.535875797E-1,4.583850801E-1,3.591718674E0,3.624106656E0
5.866684783E0,-7.412526011E-2,4.211935103E-1,3.466832161E0,3.493110900E0
5.876684783E0,-1.412111372E-1,3.071393967E-1,3.325555801E0,3.342693013E0
5.886684316E0,-1.852613837E-1,-2.392895520E-2,3.067312241E0,3.072995079E0
5.896684316E0,-2.378579080E-1,-2.433625162E-1,2.950653076E0,2.970211318E0
5.906684316E0,-2.489957362E-1,-2.776137888E-1,2.951601982E0,2.975066815E0
5.916684316E0,-5.356844068E-1,-2.721165121E-1,2.809137344E0,2.872674329E0
5.926684316E0,-7.025346756E-1,2.334995270E-1,2.757836342E0,2.855475142E0
5.936684316E0,-7.773297429E-1,4.593263566E-1,2.618135452E0,2.769450393E0
5.946684316E0,-7.639750242E-1,4.769578278E-1,2.471432686E0,2.630423184E0
5.956684316E0,-6.782079935E-1,3.040549457E-1,2.370458603E0,2.484248273E0
5.966684316E0,-5.142455101E-1,-1.283038259E-1,2.490156174E0,2.545935601E0
5.976684316E0,-3.882438540E-1,-4.422865808E-1,2.605592728E0,2.671228963E0
5.986684316E0,-1.172660589E-1,-7.551838756E-1,2.195006371E0,2.324243314E0
5.996684316E0,-2.106764913E-2,-8.480424285E-1,1.845182419E0,2.030841689E0
6.006684316E0,-8.761614561E-2,-8.564404249E-1,1.192153931E0,1.470509362E0
6.016684316E0,-2.032524347E-1,-9.403352737E-1,9.969911575E-1,1.385472247E0
6.026684316E0,-5.582238436E-1,-1.189585686E0,7.469425201E-1,1.511506233E0
6.036683849E0,-8.075732589E-1,-1.290582418E0,6.859273911E-1,1.669812544E0
6.046683849E0,-1.094766140E0,-1.215619802E0,6.408290863E-1,1.756959397E0
6.056683849E0,-1.097409725E0,-1.161701798E0,6.622514725E-1,1.729865945E0
6.066683849E0,-9.567517638E-1,-7.246732116E-1,7.167701721E-1,1.397957324E0
6.076683849E0,-7.280198336E-1,-4.754478633E-1,6.704978943E-1,1.098012284E0
6.086684349E0,-1.452345848E-1,-2.658892870E-1,6.864309311E-1,7.503183463E-1
6.096684349E0,1.414599419E-1,-3.123525381E-1,7.144603729E-1,7.924825851E-1
6.106684349E0,4.649496377E-1,-5.233895779E-1,7.236824036E-1,1.006891770E0
6.116684349E0,6.150343418E-1,-6.594617367E-1,6.952562332E-1,1.138656337E0
6.126684349E0,7.071479559E-1,-7.249726057E-1,3.134508133E-1,1.060139105E0
6.136683882E0,7.409895062E-1,-6.324617863E-1,7.166481018E-2,9.768363243E-1
6.146683882E0,7.108978033E-1,-3.891504407E-1,-3.319969177E-1,8.758057465E-1
6.156683882E0,6.637018323E-1,-2.855880857E-1,-6.130933762E-1,9.475991583E-1
6.166683882E0,4.789849520E-1,-2.609105706E-1,-8.157224655E-1,9.812767453E-1
6.176683882E0,3.934003115E-1,-3.326495886E-1,-9.830799103E-1,1.109894438E0
6.186683882E0,8.588016033E-2,-4.972039461E-1,-1.184582710E0,1.287564897E0
6.196683882E0,-4.044699669E-2,-5.330651402E-1,-1.082724571E0,1.207512692E0
6.206683882E0,-2.786159515E-3,-3.998374343E-1,-6.727838516E-1,7.826339167E-1
6.216683882E0,1.076134443E-1,-3.426024318E-1,-4.691963196E-1,5.908487674E-1
6.226683882E0,3.052562475E-1,-1.674157381E-1,-4.878187180E-1,5.993133634E-1
6.236683882E0,5.313562155E-1,-1.013408899E-1,-6.198682785E-1,8.227065615E-1
6.246683882E0,1.148455858E0,8.887243271E-2,-1.015453339E0,1.535576325E0
6.256683882E0,1.329791427E0,1.763871908E-1,-1.253522873E0,1.835967667E0
6.266683882E0,1.425536156E0,1.951581240E-1,-1.499801636E0,2.078375561E0
6.276684382E0,1.402985692E0,9.582841396E-2,-1.544222832E0,2.088582316E0
6.286684382E0,1.119821191E0,-2.137004137E-1,-1.543128014E0,1.918570153E0
6.296684382E0,9.320827723E-1,-3.932753801E-1,-1.570910454E0,1.868476244E0
6.306684382E0,4.616138935E-1,-6.230481863E-1,-1.769131660E0,1.931606394E0
6.316684382E0,3.294513226E-1,-7.146543264E-1,-1.831875801E0,1.993749716E0
6.326684382E0,1.341495514E-1,-8.197812438E-1,-1.717019558E0,1.907404926E0
6.336684882E0,-1.075323820E-1,-8.830581307E-1,-1.626211643E0,1.853623258E0
6.346684882E0,-5.527417660E-1,-7.689087987E-1,-1.657398224E0,1.908851244E0
6.356684882E0,-7.405579090E-1,-6.697031260E-1,-1.661466599E0,1.938401288E0
6.366684882E0,-1.078581929E0,-4.999485016E-1,-1.444149017E0,1.870522351E0
6.376684882E0,-1.257279038E0,-5.301085711E-1,-1.467114449E0,2.003544480E0
6.386684382E0,-9.282506704E-1,-7.671756744E-1,-2.110106945E0,2.429559454E0
6.396683882E0,-4.569644928E-1,-9.560579658E-1,-2.598719597E0,2.806458075E0
6.406683882E0,3.016116619E-1,-1.047414303E0,-3.356537819E0,3.529078130E0
6.416683882E0,5.800923705E-1,-8.325810432E-1,-3.674358845E0,3.811903891E0
6.426683882E0,3.583568335E-1,-5.417913198E-1,-3.880743980E0,3.934733955E0
6.436683882E0,9.951853752E-2,-5.374023914E-1,-3.727221012E0,3.767078675E0
6.446683882E0,-3.917655945E-1,-6.544873714E-1,-3.188749313E0,3.278712580E0
6.456683882E0,-6.959450245E-1,-6.375553608E-1,-2.765429974E0,2.922057367E0
6.466683882E0,-1.353973150E0,-3.606778383E-1,-1.616927624E0,2.139576298E0
6.476683882E0,-1.644086838E0,-2.635099888E-1,-6.051511765E-1,1.771628344E0
6.486683882E0,-1.752765298E0,-5.322408676E-2,6.266222000E-1,1.862169266E0
6.496683882E0,-1.563956261E0,3.347671032E-2,9.630546570E-1,1.836995957E0
6.506683882E0,-4.591128826E-1,3.384510279E-1,7.957067490E-1,9.790214337E-1
6.516683882E0,3.350654840E-1,7.253816128E-1,3.144989014E-1,8.586948944E-1
6.526683882E0,1.595646262E0,1.198673010E0,-2.012023926E-1,2.005838075E0
6.536683882E0,2.063720703E0,1.133915782E0,-2.012948990E-1,2.363308650E0
6.546683882E0,2.322503567E0,7.896007299E-1,-3.430557251E-2,2.453297577E0
6.556683882E0,1.887496233E0,4.800612926E-1,8.918190002E-2,1.949629269E0
6.566683882E0,8.312309980E-1,2.613903284E-1,3.487434387E-1,9.385583956E-1
6.576683382E0,1.801217794E-1,3.564282656E-1,4.396486282E-1,5.939493920E-1
6.586683882E0,-8.749554157E-1,6.979707479E-1,1.650848389E-1,1.131354564E0
6.596683882E0,-1.257768750E0,7.537825108E-1,-1.209220886E-1,1.471323368E0
6.606683882E0,-1.378964424E0,6.433423758E-1,-5.390272141E-1,1.614305619E0
6.616683882E0,-1.094490647E0,3.374992609E-1,-7.533054352E-1,1.370870018E0
6.626683882E0,-5.760067701E-1,-1.521650553E-1,-1.195438385E0,1.335668722E0
6.636683382E0,-1.294727325E-1,-3.399523497E-1,-1.489937782E0,1.533703160E0
6.646683382E0,7.895991802E-1,-3.561886549E-1,-1.867259979E0,2.058396719E0
6.656683382E0,1.123041749E0,-2.690806389E-1,-1.889188766E0,2.214195419E0
6.666683382E0,1.116902232E0,-1.746141911E-1,-1.894438267E0,2.206095433E0
6.676683382E0,9.208299518E-1,-1.427079439E-1,-1.761824131E0,1.993067391E0
6.686683382E0,4.062261581E-1,-7.976543903E-2,-1.510459423E0,1.566164067E0
6.696683882E0,1.740607023E-1,-8.716821671E-3,-1.379933357E0,1.390895101E0
6.706683882E0,-5.873250961E-2,3.795576096E-2,-1.346138954E0,1.347954091E0
6.716683882E0,-2.216207981E-1,-1.215910912E-2,-1.365658760E0,1.383577779E0
6.726683882E0,-4.619836807E-1,-1.812261343E-1,-1.149365425E0,1.251923605E0
6.736683882E0,-3.814200163E-1,-2.198071480E-1,-9.111518860E-1,1.011925971E0
6.746683882E0,7.105803490E-2,-2.163181305E-1,-3.425092697E-1,4.112850322E-1
6.756683882E0,3.134328127E-1,-2.382421494E-2,-2.304143906E-1,3.897415973E-1
6.766683882E0,7.042518854E-1,5.748134851E-1,-5.925798416E-1,1.085141525E0
6.776683882E0,9.733468890E-1,7.723363638E-1,-6.976842880E-1,1.425016137E0
6.786683882E0,1.404031873E0,8.663637638E-1,-6.523933411E-1,1.774121964E0
6.796683882E0,1.480559349E0,6.929733753E-1,-4.021091461E-1,1.683436916E0
6.806683882E0,1.356472254E0,3.570680618E-1,1.470756531E-1,1.410370811E0
6.816683882E0,1.117886543E0,3.351140022E-1,1.895189285E-1,1.182323620E0
6.826683882E0,6.970219612E-1,6.626191139E-1,4.729652405E-2,9.628814391E-1
6.836684382E0,5.002400875E-1,7.988100052E-1,-5.382728577E-2,9.440524065E-1
6.846684382E0,2.938138247E-1,9.242539406E-1,-2.526559830E-1,1.002201056E0
6.856684382E0,3.483064175E-1,8.243505955E-1,-2.814893723E-1,9.381404646E-1
6.866684382E0,5.850340128E-1,5.654644966E-1,-2.630157471E-1,8.550977583E-1
6.876684382E0,6.926215887E-1,3.914973736E-1,-4.010839462E-1,8.909900059E-1
6.886683882E0,7.832355499E-1,2.297637463E-1,-7.725753784E-1,1.123887014E0
6.896683882E0,6.739001274E-1,2.043404579E-1,-9.565944672E-1,1.187842321E0
6.906683882E0,3.608225584E-1,2.682580948E-1,-1.598071575E0,1.660116888E0
6.916683882E0,2.556489706E-1,2.409851551E-1,-1.902871132E0,1.935031986E0
6.926683882E0,-4.393720627E-2,-7.083415985E-2,-2.160712242E0,2.162319437E0
6.936683882E0,-2.565765381E-1,-3.655909300E-1,-2.180586815E0,2.225858734E0
6.946683882E0,-2.587755919E-1,-3.972092867E-1,-2.173052788E0,2.224162414E0
6.956683882E0,-9.430294037E-1,-4.719556570E-1,-2.597403526E0,2.803310842E0
6.966683882E0,-1.040666342E0,-2.983045578E-2,-2.420270443E0,2.634688845E0
6.976683882E0,-9.236477613E-1,1.440184116E-1,-2.143216133E0,2.338213396E0
6.986683882E0,-3.267738819E-1,2.757632732E-1,-1.775610447E0,1.826367710E0
6.996683382E0,4.959368706E-2,2.955710888E-1,-1.708712578E0,1.734796955E0
7.006683382E0,5.054352283E-1,4.524593353E-1,-1.644413471E0,1.778842288E0
7.016683382E0,6.192953587E-1,6.083784103E-1,-1.656535149E0,1.870229860E0
7.026683382E0,6.391046047E-1,8.870892525E-1,-1.539177895E0,1.887975272E0
7.036683382E0,5.991047621E-1,9.633562565E-1,-1.488078594E0,1.871192052E0
7.046683382E0,3.885108232E-1,7.714853287E-1,-1.192302704E0,1.472316545E0
7.056683382E0,3.433243036E-1,6.679499149E-1,-1.129992485E0,1.356802006E0
7.066683382E0,2.348805666E-1,7.971999645E-1,-1.383851528E0,1.614230998E0
7.076683382E0,2.254700661E-1,8.328809738E-1,-1.596150875E0,1.814448975E0
7.086683882E0,3.249245882E-1,6.993517876E-1,-1.941439152E0,2.088984177E0
7.096683882E0,3.548920155E-1,5.715601444E-1,-2.137607574E0,2.240980920E0
7.106683882E0,3.466132879E-1,4.283354282E-1,-2.448681831E0,2.509911298E0
7.116683882E0,3.933387995E-1,4.615030289E-1,-2.487433434E0,2.560278411E0
7.126683882E0,3.791823387E-1,3.926794529E-1,-2.115967274E0,2.185244586E0
7.136683382E0,3.014767170E-1,3.586180210E-1,-1.969665527E0,2.024617837E0
7.146683382E0,5.229926109E-1,3.055956364E-1,-1.847168446E0,1.943949904E0
7.156683382E0,6.511251926E-1,3.986756802E-1,-1.850565910E0,2.001874248E0
7.166683382E0,1.135835648E-1,4.521319866E-1,-2.121314049E0,2.171934127E0
7.176683382E0,-4.233103991E-1,3.442754745E-1,-2.600512028E0,2.657137577E0
7.186683382E0,-9.365890026E-1,-3.206189871E-1,-3.693437576E0,3.823803947E0
7.196683382E0,-6.906709671E-1,-7.937388420E-1,-4.168972969E0,4.299695728E0
7.206683382E0,2.438359261E-1,-1.719210267E0,-9.024885178E0,9.190413069E0
7.216683382E0,1.272757649E0,-2.040032864E0,-1.035451508E1,1.063003427E1
7.226683182E0,1.461006999E0,-2.239199877E0,-9.554309845E0,9.921360499E0
7.236683182E0,1.173150301E0,-2.290350914E0,-9.486663818E0,9.829485202E0
7.246683182E0,8.726465702E-1,-2.348958492E0,-9.445978165E0,9.772697761E0
7.256683182E0,5.847764015E-1,-2.428082943E0,-9.429591179E0,9.754729110E0
7.266683182E0,2.732458413E-1,-2.477648020E0,-9.418132782E0,9.742413874E0
7.276683182E0,-8.962184191E-3,-2.545646429E0,-9.394836426E0,9.733619447E0
7.286683182E0,-3.018453717E-1,-2.597467899E0,-9.364179611E0,9.722438475E0
7.296683182E0,-5.862073302E-1,-2.667559624E0,-9.314633369E0,9.706797010E0
7.306683182E0,-8.955394030E-1,-2.729675531E0,-9.265359879E0,9.700516121E0
7.316683182E0,-1.169640064E0,-2.807679653E0,-9.209257126E0,9.698532865E0
7.326683182E0,-1.468223691E0,-2.865553856E0,-9.120050430E0,9.671731983E0
7.336683682E0,-1.749995112E0,-2.922460318E0,-9.048143387E0,9.668099914E0
7.346683682E0,-2.029144764E0,-2.997323513E0,-8.938612938E0,9.643659988E0
7.356683682E0,-2.336318970E0,-3.016070843E0,-8.832264900E0,9.621017250E0
7.366683682E0,-2.606562853E0,-3.117396593E0,-8.734085083E0,9.633097823E0
7.376683682E0,-2.877625942E0,-3.140774727E0,-8.603653908E0,9.600419653E0
7.386683182E0,-3.149003267E0,-3.210628748E0,-8.467613220E0,9.587743853E0
7.396683182E0,-3.415430546E0,-3.252579689E0,-8.316761017E0,9.561012198E0
7.406683182E0,-3.667702436E0,-3.329447985E0,-8.166308403E0,9.551222853E0
7.416683182E0,-3.918426275E0,-3.359068155E0,-8.016595840E0,9.534317606E0
7.426683182E0,-4.172120094E0,-3.434649944E0,-7.848969460E0,9.529413828E0
7.436683182E0,-4.407146454E0,-3.481732607E0,-7.692632675E0,9.524809672E0
7.446683682E0,-4.644771576E0,-3.521842718E0,-7.481057644E0,9.483854838E0
7.456683682E0,-4.860763550E0,-3.571985722E0,-7.293684006E0,9.464878798E0
7.466683682E0,-5.098125935E0,-3.603145599E0,-7.128717422E0,9.475872432E0
7.476683682E0,-5.284558296E0,-3.653817177E0,-6.917391300E0,9.440722364E0
7.486683682E0,-5.506193161E0,-3.685568810E0,-6.698612213E0,9.421941740E0
7.496683682E0,-5.671778202E0,-3.724714994E0,-6.501848698E0,9.397691538E0
7.506683682E0,-5.869914055E0,-3.749861240E0,-6.243782043E0,9.354259166E0
7.516683682E0,-5.779695988E0,-2.788926125E0,-1.603403091E0,6.614672790E0
7.526683882E0,3.287246704E1,2.947339439E1,4.285082626E1,6.152620074E1
7.536683882E0,6.682542419E1,3.295638657E1,6.960389709E1,1.019630483E2
7.546683882E0,-3.546130371E1,-3.107395744E1,6.961000824E1,8.407525283E1
7.556683882E0,-6.007131958E1,-4.040592194E1,6.878301239E1,9.986142777E1
7.566683882E0,-1.343803787E1,-8.932480812E0,1.507804298E1,2.208432602E1
7.576683882E0,-7.006625175E0,-2.889575243E0,1.376333237E0,7.703034117E0
7.586684382E0,-3.780345917E0,-3.813208044E-1,-7.383597374E0,8.303850371E0
7.596684382E0,-3.821286201E0,-7.075902820E-1,-9.020286560E0,9.821836990E0
7.606684382E0,-4.387226105E0,-1.176770329E0,-8.821978569E0,9.922693544E0
7.616684382E0,-4.930486679E0,-1.614998937E0,-8.448081970E0,9.914030938E0
7.626684382E0,-5.449119568E0,-2.046488285E0,-7.941748142E0,9.846440063E0
7.636683882E0,-5.906468868E0,-2.447190285E0,-7.528543949E0,9.876947341E0
7.646683882E0,-6.318461895E0,-2.826726437E0,-6.966974735E0,9.821001987E0
7.656683982E0,-6.679994583E0,-3.178326607E0,-6.422860146E0,9.796796420E0
7.666683982E0,-7.003161907E0,-3.513191462E0,-5.831572056E0,9.766986413E0
7.676683982E0,-7.309268475E0,-3.835205078E0,-5.181784153E0,9.746029480E0
7.686683982E0,-7.527012825E0,-4.050635815E0,-4.410589218E0,9.618569011E0
7.696684448E0,-7.595449924E0,-3.875415325E0,-3.224179745E0,9.116196494E0
7.706684448E0,-7.069097042E0,-1.630322933E0,-7.911889553E-1,7.297675371E0
7.716684448E0,-6.987536907E0,-8.018267155E-1,5.666098595E-1,7.056177779E0
7.726684448E0,-5.416513443E0,2.450887203E0,-1.267083168E0,6.078730601E0
7.736684448E0,-5.337800980E0,2.391536713E0,-1.407937288E0,6.016132857E0
7.746683948E0,-4.865918159E0,2.237928391E0,-1.995205879E0,5.715446572E0
7.756683948E0,-5.276045799E0,1.034032822E0,-2.568499327E0,5.958445430E0
7.766683948E0,-5.472491741E0,-2.959337234E-1,-3.298680782E0,6.396642676E0
7.776683948E0,-5.277008057E0,-3.264594078E-1,-4.003586292E0,6.631899651E0
7.786683948E0,-5.198113441E0,-6.738336086E-1,-4.692147255E0,7.034961332E0
7.796683948E0,-4.931077957E0,-7.912561893E-1,-5.596434593E0,7.500779715E0
7.806683948E0,-4.823415756E0,-1.286766291E0,-6.970193386E0,8.573488373E0
7.816683948E0,-4.372952461E0,-1.217194557E0,-8.151597977E0,9.330210362E0
7.826683948E0,-3.923506498E0,-1.202174664E0,-1.133213997E1,1.205224143E1
7.836684014E0,-3.378216267E0,-1.185021877E0,-1.556811523E1,1.597444315E1
7.846684014E0,-2.555400610E0,-5.834759474E-1,-1.604436874E1,1.625706877E1
7.856684014E0,-4.253039360E0,-6.749467850E0,-8.217784882E0,1.145319381E1
7.866684014E0,-2.708688164E1,-1.704727173E1,6.581298065E1,7.318235479E1
7.876684014E0,-1.543962002E1,-1.491542816E1,6.886236572E1,7.213097307E1
7.886683514E0,-5.777955055E-2,-8.670730591E0,1.698937607E1,1.907416595E1
7.896683514E0,3.989601135E-2,-5.058339119E0,-7.585891247E0,9.117792076E0
7.906683514E0,-1.353319287E0,2.387364388E0,-1.361514091E1,1.388895403E1
7.916683514E0,-2.016274452E0,2.023266077E0,-1.072622013E1,1.110003453E1
7.926683514E0,-2.609843016E0,7.724165916E-1,-9.433124542E0,9.817929852E0
7.936683514E0,-2.676296949E0,7.053822875E-1,-9.315637589E0,9.718087940E0
7.946684014E0,-2.663874626E0,8.937080503E-1,-8.547088623E0,8.997092088E0
7.956683914E0,-2.636845112E0,1.271349788E0,-6.833543777E0,7.434151127E0
7.966683914E0,-2.761050940E0,2.334093332E0,2.354969978E0,4.314774336E0
7.976683914E0,-2.983847618E0,2.779627085E0,1.112353325E1,1.184747506E1
7.986683914E0,-3.011815071E0,9.715169072E-1,1.207246304E1,1.248035412E1
7.996683447E0,-3.079198122E0,2.555607557E-1,2.799638748E0,4.169502308E0
8.006683447E0,-4.346660614E0,3.122632265E0,-1.410444260E0,5.534766821E0
8.016683447E0,-4.047155380E0,2.574975491E0,2.121428490E0,5.245038063E0
8.026683447E0,-2.663851976E0,-9.184956551E-2,3.088976860E0,4.079990409E0
8.036683447E0,-2.982221603E0,-6.743221283E-1,1.078657150E0,3.242199450E0
8.046683447E0,-3.164246082E0,-1.377950311E-1,-2.151114464E0,3.828672639E0
8.056683447E0,-2.908382893E0,7.847962379E-1,-3.195757866E0,4.391749597E0
8.066683447E0,-2.891923189E0,1.351017237E0,-3.571509361E0,4.790004846E0
8.076683447E0,-3.161447287E0,1.189581633E0,-2.252169132E0,4.059817632E0
8.086683947E0,-3.476905584E0,9.757988453E-1,2.684413910E0,4.499681530E0
8.096683947E0,-3.538587570E0,5.422909856E-1,5.248437881E0,6.353092294E0
8.106683947E0,-3.236814499E0,2.616321445E-1,4.446359634E0,5.505954366E0
8.116683947E0,-3.057727814E0,5.809594989E-1,1.499320030E0,3.454732099E0
8.126683947E0,-3.092074633E0,1.109181285E0,-1.984608650E0,3.837952599E0
8.136683880E0,-3.125530958E0,1.145813704E0,-2.434512615E0,4.124158640E0
8.146683880E0,-3.198941231E0,7.114470601E-1,-8.376808167E-1,3.382468192E0
8.156683880E0,-3.112228870E0,6.738758683E-1,2.642364502E-1,3.195293121E0
8.166683880E0,-3.106391668E0,6.560885906E-1,1.254206657E0,3.413671890E0
8.176683880E0,-3.207806826E0,7.421881557E-1,1.090955734E0,3.468580733E0
8.186683880E0,-3.238929749E0,9.824376106E-1,9.813070297E-1,3.524033635E0
8.196683880E0,-3.173326969E0,8.442616463E-1,1.103841782E0,3.464281810E0
8.206683880E0,-3.172015667E0,7.233483791E-1,7.725028992E-1,3.343901464E0
8.216683880E0,-3.137553692E0,8.238191009E-1,3.127431870E-1,3.258946054E0
8.226683880E0,-3.064217091E0,7.941412330E-1,-4.180135727E-1,3.192933138E0
8.236683880E0,-3.061900139E0,7.912369967E-1,-4.189147949E-1,3.190106276E0
8.246683380E0,-3.173763275E0,7.254620194E-1,3.271484375E-1,3.272016896E0
8.256683380E0,-3.229938984E0,6.714332104E-1,5.488853455E-1,3.344339026E0
8.266683380E0,-3.168197632E0,7.497701645E-1,6.841144562E-1,3.326806896E0
8.276683880E0,-3.119248629E0,7.665874958E-1,6.949234009E-1,3.286379000E0
8.286683880E0,-3.197481155E0,7.934927344E-1,7.441663742E-1,3.377469475E0
8.296683880E0,-3.174874306E0,8.268365860E-1,7.479877472E-1,3.364962298E0
8.306683880E0,-3.042702675E0,8.557567596E-1,4.575023651E-1,3.193691847E0
8.316683880E0,-3.043322086E0,8.429332972E-1,2.007513046E-1,3.164276687E0
8.326683880E0,-3.137378216E0,8.079050183E-1,-5.124855042E-2,3.240135646E0
8.336683946E0,-3.119801521E0,7.665416598E-1,-2.824687958E-2,3.212716224E0
8.346683946E0,-3.089044809E0,7.090075612E-1,3.344631195E-1,3.186966447E0
8.356683946E0,-2.769723892E0,6.631802917E-1,4.756202698E-1,2.887454446E0
8.366683946E0,-2.565911055E0,6.048332453E-1,6.413898468E-1,2.713135406E0
8.376683946E0,-2.341185093E0,5.290958881E-1,5.453767776E-1,2.461407306E0
8.386683446E0,-2.081116199E0,4.675912559E-1,2.879314423E-1,2.152345403E0
8.396683446E0,-1.851258159E0,4.478822947E-1,8.997344971E-2,1.906790639E0
8.406683446E0,-1.689479589E0,4.655601084E-1,-2.109708786E-1,1.765105155E0
8.416683446E0,-1.532092094E0,4.264651537E-1,-2.670068741E-1,1.612597713E0
8.426683446E0,-1.339814186E0,3.549190164E-1,-4.798889160E-2,1.386857056E0
8.436683446E0,-1.197103500E0,3.159970641E-1,1.029853821E-1,1.242383566E0
8.446683446E0,-1.085181713E0,2.805105448E-1,2.712574005E-1,1.153206874E0
8.456683446E0,-9.682604074E-1,2.550210655E-1,2.957210541E-1,1.044037788E0
8.466683446E0,-8.723313808E-1,2.321364433E-1,2.070589066E-1,9.261332286E-1
8.476683446E0,-8.014585972E-1,1.949310005E-1,5.755519867E-2,8.268292320E-1
8.486683446E0,-7.318260670E-1,1.697342098E-1,-1.507472992E-1,7.662270176E-1
8.496683446E0,-6.789873838E-1,1.444019079E-1,-1.690816879E-1,7.144679108E-1
8.506683446E0,-5.848848820E-1,1.070938408E-1,-9.099960327E-2,6.015316648E-1
8.516683446E0,-5.431091785E-1,1.029727161E-1,1.391601562E-2,5.529598680E-1
8.526683446E0,-5.163138509E-1,1.241858602E-1,1.407403946E-1,5.493723502E-1
8.536683446E0,-4.416190982E-1,1.127516329E-1,1.529054642E-1,4.807498722E-1
8.546683446E0,-3.862935603E-1,1.095144302E-1,1.508989334E-1,4.289366075E-1
8.556683446E0,-3.189278841E-1,1.048208475E-1,6.521701813E-2,3.419878138E-1
8.566683446E0,-2.987925410E-1,1.080409363E-1,-2.278041840E-2,3.185416361E-1
8.576682946E0,-2.679587007E-1,9.960547090E-2,-2.215099335E-2,2.867294571E-1
8.586683446E0,-2.333532274E-1,7.258754224E-2,-4.066181183E-2,2.477419281E-1
8.596683446E0,-2.350575626E-1,2.254462987E-2,-3.043460846E-2,2.380894442E-1
8.606683446E0,-2.172769606E-1,2.636799961E-2,1.811122894E-2,2.196191377E-1
8.616683446E0,-2.110583484E-1,3.831630200E-2,7.383441925E-2,2.268596194E-1
8.626683446E0,-1.635363102E-1,5.299523473E-3,1.319351196E-1,2.101882144E-1
8.636683379E0,-1.780448854E-1,1.862355322E-2,1.373224258E-1,2.256197389E-1
8.646683379E0,-1.389865875E-1,5.885450542E-2,3.973102570E-2,1.560758749E-1
8.656683379E0,-9.910643101E-2,4.135932773E-2,1.631736755E-2,1.086229034E-1
8.666683379E0,-1.134511232E-1,3.365202993E-2,-6.699848175E-2,1.359868120E-1
8.676683379E0,-1.049650609E-1,1.170519739E-2,-4.978656769E-2,1.167620571E-1
8.686683379E0,-9.743395448E-2,2.844452858E-2,1.528263092E-2,1.026451436E-1
8.696683379E0,-7.630726695E-2,2.392648533E-2,5.399227142E-2,9.649062682E-2
8.706683379E0,-6.569236517E-2,1.234892756E-2,1.190052032E-1,1.364925685E-1
8.716683379E0,-7.289955020E-2,2.017547563E-2,1.241197586E-1,1.453516725E-1
8.726683379E0,-3.555145860E-2,6.595559418E-3,7.891559601E-2,8.680483227E-2
8.736683379E0,-5.430376530E-2,5.119383335E-3,6.718635559E-2,8.653966367E-2
8.746683379E0,-4.469212890E-2,6.442297250E-3,-1.159572601E-2,4.661920678E-2
8.756683379E0,-4.761117697E-2,5.484055728E-3,-3.533363342E-2,5.954296508E-2
8.766683379E0,-4.357481003E-2,7.057771087E-3,-6.405830383E-3,4.460505425E-2
8.776683379E0,-3.972184658E-2,6.321363151E-3,2.969741821E-2,4.999721369E-2
8.786683379E0,-2.196204662E-2,-3.912825137E-3,7.775115967E-2,8.088809877E-2
8.796683379E0,-2.631783485E-2,1.240384579E-2,9.225845337E-2,9.673730428E-2
8.806683379E0,-1.889163256E-2,9.470995516E-3,5.168724060E-2,5.584052630E-2
8.816683379E0,-1.189213991E-2,1.125323027E-2,2.067184448E-2,2.637012206E-2
8.826683379E0,-1.013332605E-2,2.022146061E-2,1.836490631E-2,2.913522868E-2
8.836683879E0,-1.588034630E-2,2.425833419E-2,8.858680725E-3,3.031713048E-2
8.846683879E0,-2.389132977E-2,6.598740816E-3,1.751899719E-3,2.484769951E-2
8.856683879E0,1.431964040E-1,-4.939467460E-2,-6.040573120E-2,1.630763513E-1
8.866683879E0,2.161994576E-2,-1.313005239E-1,-4.386758804E-1,4.584144170E-1
8.876683879E0,-3.356737494E-1,-2.716843411E-2,-7.474479675E-1,8.198130604E-1
8.886683379E0,-2.327927947E-1,2.373476177E-1,4.121017456E-1,5.294848682E-1
8.896683379E0,9.040772915E-3,2.117455006E-4,1.180793762E0,1.180828391E0
8.906683379E0,-2.966386080E-2,-1.511000842E-1,1.237625122E0,1.247167640E0
8.916683379E0,7.181257010E-2,1.248122901E-1,5.358009338E-1,5.548132962E-1
8.926683379E0,-7.343322039E-2,8.484207094E-3,-8.360700607E-1,8.393316187E-1
8.936683879E0,-1.254538894E-1,1.504930109E-2,-1.144913673E0,1.151864783E0
8.946683879E0,2.361992002E-2,3.438359126E-2,-5.128040314E-1,5.144979170E-1
8.956683879E0,1.027615964E-1,-8.166757226E-2,3.537178040E-2,1.359437417E-1
8.966683879E0,6.871369481E-2,8.999556303E-3,4.780473709E-1,4.830443589E-1
8.976683879E0,-9.227281809E-2,2.336559817E-2,4.468936920E-1,4.569181503E-1
8.986683879E0,-9.445607662E-2,4.525278509E-2,2.484169006E-1,2.695936229E-1
8.996683879E0,-6.651043892E-2,5.989087746E-2,1.719980240E-1,1.938914024E-1
9.006683879E0,8.358538151E-3,2.825330943E-2,-1.963806152E-2,3.540858814E-2
9.016683879E0,-1.708090305E-2,-1.981444657E-4,-6.281280518E-2,6.509412419E-2
9.026683879E0,-2.691054344E-2,7.480233908E-4,-5.084896088E-2,5.753567336E-2
9.036683879E0,2.508491278E-2,4.251070321E-3,-1.496410370E-2,2.951692476E-2
9.046683879E0,3.800919652E-2,-4.306033254E-2,4.117965698E-3,5.758340820E-2
9.056683879E0,-1.965284348E-2,3.383862972E-2,5.678272247E-2,6.896060245E-2
9.066683879E0,-4.794526100E-2,1.220727712E-2,4.244041443E-2,6.518400451E-2
9.076650545E0,-7.872051001E-2,2.133930475E-2,1.047067642E-1,1.327244932E-1
9.086617211E0,-1.157897711E-2,2.327635884E-4,1.310510635E-1,1.315618035E-1
9.096583877E0,-4.418849945E-3,5.552109331E-3,9.513950348E-2,9.540375923E-2
9.106550543E0,-5.573064089E-2,6.171014532E-2,9.759712219E-2,1.282156177E-1
9.116517209E0,9.024375677E-2,-5.780168250E-2,-1.776332855E-1,2.074573553E-1
9.126483875E0,-2.019444108E-1,6.492758542E-2,-1.438751221E-1,2.563146253E-1
9.136450041E0,-8.720397949E-2,1.115071326E-1,1.390047073E-1,1.983952704E-1
9.146416707E0,-8.806657791E-2,1.102546901E-1,1.389532089E-1,1.980399280E-1
9.156383373E0,-3.696203232E-3,-8.510197699E-2,1.174392700E-1,1.450792561E-1
9.166350039E0,-7.320344448E-2,7.938785106E-2,-6.666946411E-2,1.269093875E-1
9.176316705E0,2.369332314E-2,4.074808955E-2,1.731109619E-2,5.021408582E-2
9.186283371E0,7.835623622E-2,-1.563552767E-2,1.513624191E-1,1.711570957E-1
9.196250504E0,1.328444481E-2,9.212326258E-3,1.010627747E-1,1.023475835E-1
9.206217170E0,-3.617584705E-2,-5.272282660E-2,-1.071939468E-1,1.248155863E-1
9.216183836E0,-1.361138821E-1,6.491638720E-3,-2.268753052E-1,2.646536120E-1
9.226150502E0,-1.346789002E-1,5.999010056E-3,-2.267980576E-1,2.638403934E-1
9.236116668E0,7.106995583E-2,-7.590532303E-2,1.655998230E-1,1.955399142E-1
9.246083334E0,-6.288391352E-2,3.176008165E-2,-5.478572845E-2,8.924441387E-2
9.256050000E0,-5.421602726E-2,5.316859111E-2,-8.343696594E-2,1.128184558E-1
9.265983333E0,-9.641230106E-3,1.285320520E-2,4.831981659E-2,5.092114371E-2
9.275916933E0,1.407951117E-2,-7.460072637E-3,1.584386826E-1,1.592378769E-1
9.285850266E0,2.106684446E-2,4.986841232E-3,1.584310532E-1,1.599033431E-1
9.295783599E0,-5.310297012E-3,-1.077589765E-2,3.871917725E-2,4.054002850E-2
9.305716932E0,-1.933097839E-3,3.422255814E-2,2.855300903E-3,3.439582963E-2
9.315650265E0,1.346349716E-3,7.873982191E-3,2.684688568E-2,2.801013252E-2
9.325583598E0,1.863706112E-2,-1.846257970E-2,1.729869843E-2,3.142374681E-2
9.335516931E0,4.022565484E-2,7.858023047E-3,1.251125336E-2,4.285304300E-2
9.345450264E0,-1.242816448E-3,4.476901144E-3,2.443695068E-2,2.487472201E-2
9.355383597E0,-6.065011024E-3,8.456882089E-3,3.879833221E-2,4.016981200E-2
9.365316930E0,-1.313918829E-2,-3.716546670E-2,1.609115601E-1,1.656696724E-1
9.375283596E0,1.971799731E-1,5.196128413E-2,2.279338837E-1,3.058329155E-1
9.385250262E0,-2.205325961E-1,-9.943403304E-3,-6.422805786E-2,2.299102882E-1
9.395216928E0,-1.391139030E-1,4.783193022E-2,-1.043930054E-1,1.803842320E-1
9.405183594E0,4.564356804E-2,-2.391189709E-2,1.664581299E-1,1.742510348E-1
9.415150327E0,1.418693066E-1,-5.032769963E-2,8.217716217E-2,1.715017886E-1
9.425116993E0,-2.183377743E-3,1.067384705E-2,-2.080526352E-1,2.083376998E-1
9.435083659E0,-7.491946220E-3,1.141485572E-2,-2.728633881E-1,2.732047890E-1
9.445050325E0,1.942920685E-2,2.525209077E-2,9.549140930E-3,3.326181383E-2
9.455016991E0,4.561850429E-2,-1.444772631E-2,2.057371140E-1,2.112286552E-1
9.464983657E0,-1.053869724E-3,-5.752683431E-2,2.463769913E-1,2.530060654E-1
9.474950323E0,-2.688753605E-2,-1.243399084E-2,1.626033783E-1,1.652797700E-1
9.484916989E0,-1.885402203E-2,2.169395797E-2,4.053115845E-2,4.968779291E-2
9.494883189E0,6.003499031E-3,7.877308875E-3,-2.646827698E-2,2.826063838E-2
9.504849855E0,2.122735977E-2,2.349398658E-2,-3.839874268E-2,4.976978649E-2
9.514816521E0,3.113320470E-2,1.588883996E-2,2.865600586E-2,4.519843296E-2
9.524783454E0,1.875525713E-2,-7.070004940E-4,6.933784485E-2,7.183311387E-2
9.534750120E0,1.909732819E-3,-7.310319692E-3,5.257606506E-2,5.311619782E-2
9.544716786E0,-7.232666016E-3,5.012027547E-2,2.865600586E-2,5.818522272E-2
9.554683452E0,9.111940861E-3,1.404388249E-2,9.340667725E-2,9.489502335E-2
9.564683452E0,1.379024982E-2,-2.573336661E-2,7.916831970E-2,8.438009239E-2
9.574683185E0,-1.005962491E-1,-1.394829005E-1,-6.911277771E-2,1.853420106E-1
9.584683185E0,-6.242948771E-2,4.760384560E-3,2.678203583E-2,6.809830864E-2
9.594683185E0,1.239550412E-1,7.373972237E-2,2.547264099E-3,1.442528594E-1
9.604683185E0,-3.769201040E-2,-7.618688047E-3,9.093189240E-2,9.872862356E-2
9.614683185E0,-6.287294626E-2,-3.482889757E-2,1.029710770E-1,1.255750858E-1
9.624683185E0,1.910746098E-2,-9.869779646E-2,2.252531052E-1,2.466684242E-1
9.634683185E0,-5.511224270E-3,4.272133857E-2,-1.291246414E-1,1.361200183E-1
9.644683185E0,-1.075956821E-1,3.859611601E-2,1.709461212E-2,1.155799150E-1
9.654683185E0,5.520826578E-2,3.964430094E-2,1.512966156E-1,1.658622594E-1
9.664683685E0,6.261265278E-2,-3.057350591E-2,1.751289368E-1,1.884813732E-1
9.674683685E0,-1.039159298E-2,1.610147208E-2,-1.647090912E-2,2.526921952E-2
9.684683685E0,-3.117293119E-2,2.923414856E-2,-1.648797989E-1,1.703283158E-1
9.694683685E0,1.668918133E-2,1.129222661E-2,-2.601909637E-2,3.290952038E-2
9.704683685E0,3.900068998E-2,-2.388819307E-2,1.654376984E-1,1.716430355E-1
9.714683618E0,1.619994640E-3,-3.472091630E-2,1.174793243E-1,1.225135015E-1
9.724683618E0,-2.721273899E-2,4.192925245E-2,1.212596893E-2,5.143573171E-2
9.734683618E0,-1.760065556E-2,3.189314157E-3,3.367519379E-2,3.813100415E-2
9.744683618E0,1.054954529E-2,-2.515741065E-2,5.758762360E-2,6.372223009E-2
9.754683618E0,8.168816566E-4,6.678186357E-3,9.696960449E-3,1.180239427E-2
9.764683618E0,-5.853676796E-2,4.005650058E-2,-2.379608154E-2,7.481530551E-2
9.774683618E0,2.918523550E-2,3.385613859E-2,2.222061157E-4,4.469972558E-2
9.784683618E0,2.202486992E-2,-3.320321441E-3,6.725692749E-2,7.084923235E-2
9.794683618E0,2.157044411E-2,-2.269006148E-2,8.877944946E-2,9.413773736E-2
9.804683618E0,1.987922192E-2,1.253200769E-1,9.360408783E-2,1.576769812E-1
9.814683618E0,6.465724111E-2,-3.294097632E-2,-1.147470474E-1,1.357665336E-1
9.824683351E0,-6.977051497E-2,2.597041428E-3,-9.322929382E-2,1.164747638E-1
9.834683351E0,-1.223259568E-1,3.179049492E-2,1.080188751E-1,1.662598949E-1
9.844683351E0,2.019906044E-2,-6.883013248E-2,3.283596039E-1,3.361035832E-1
9.854683351E0,4.887199402E-2,-8.153098822E-2,2.204914093E-1,2.401087991E-1
9.864683351E0,-2.239352465E-2,5.695544183E-2,-6.930637360E-2,9.245953559E-2
9.874683351E0,-4.762566090E-2,3.535607457E-2,-2.152986526E-1,2.233198724E-1
9.884683351E0,-1.275396347E-2,-6.521183997E-3,-1.529798508E-1,1.536490292E-1
9.894683351E0,1.410597563E-2,3.617849573E-2,-4.042053223E-2,5.605070497E-2
9.904683351E0,-5.032122135E-3,-9.517185390E-3,1.225280762E-2,1.631043732E-2
9.914683851E0,5.117833614E-3,9.108692408E-3,5.298423767E-2,5.400453629E-2
9.924683851E0,-3.625643253E-2,-8.345566690E-3,1.582937241E-1,1.626071353E-1
9.934683851E0,-1.512992382E-2,-1.781076193E-2,2.133388519E-1,2.146150125E-1
9.944683851E0,4.132628441E-2,-4.575602710E-2,2.061042786E-1,2.151289135E-1
9.954683851E0,7.077935338E-2,-3.946644440E-2,1.341934204E-1,1.567647638E-1
9.964683351E0,2.382993698E-3,2.138308063E-2,-1.432037354E-2,2.584546178E-2
9.974683351E0,-8.418220282E-2,6.992112845E-3,2.636241913E-2,8.849016926E-2
9.984683351E0,3.486502171E-2,2.735301293E-2,2.298450470E-1,2.340779842E-1
9.994683351E0,2.436482906E-2,4.891905934E-2,2.823534012E-1,2.875937454E-1
1.000468335E1,3.992277384E-2,1.068670601E-1,-1.320447922E-1,1.744999242E-1
1.001468335E1,-2.459341288E-2,1.094981283E-1,-2.758302689E-1,2.977868588E-1
1.002468362E1,1.008680165E-1,2.224809304E-2,-3.836622238E-1,3.973235915E-1
1.003468362E1,6.863129139E-2,-1.024442837E-1,-2.209186554E-1,2.530022484E-1
1.004468362E1,9.753704071E-3,-1.200445592E-1,3.817558289E-3,1.205006419E-1
1.005468362E1,5.149692297E-2,-6.919582188E-2,1.757698059E-1,1.957933081E-1
1.006468362E1,6.227770448E-2,-2.247461677E-2,1.969022751E-1,2.077357138E-1
1.007468362E1,6.686687469E-3,-4.059014097E-2,1.487579346E-1,1.543411625E-1
1.008468362E1,2.761381865E-2,-4.403491318E-2,1.688003540E-4,5.197715895E-2
1.009468362E1,-4.202744365E-2,-6.879987568E-2,6.948280334E-2,1.064311462E-1
1.010468362E1,-1.848497987E-2,-5.241582915E-2,8.851051331E-2,1.045142315E-1
1.011468362E1,-2.986201644E-2,-2.635313570E-2,1.027975082E-1,1.102431653E-1
1.012468362E1,3.434687853E-3,-3.386110067E-2,1.147680283E-1,1.197082768E-1
1.013468362E1,6.200522184E-3,9.089905769E-3,3.578662872E-2,3.744002748E-2
1.014468362E1,-1.992550492E-2,5.609087646E-3,-9.687423706E-3,2.285462292E-2
1.015468362E1,2.878722548E-2,1.321727410E-2,-1.215553284E-2,3.392871445E-2
1.016468408E1,2.909776568E-2,5.787461996E-3,1.886940002E-2,3.516004752E-2
1.017468408E1,1.320183277E-2,-1.843605191E-2,4.513072968E-2,5.050702089E-2
1.018468408E1,2.146363258E-2,-1.701861620E-3,6.661701202E-2,7.001007176E-2
1.019468408E1,2.017259598E-2,-3.100677952E-2,8.810138702E-2,9.555212400E-2
1.020468408E1,1.923650503E-2,-3.110311180E-2,1.263647079E-1,1.315503178E-1
1.021468358E1,3.157210350E-2,-1.900966838E-2,1.048336029E-1,1.111226777E-1
1.022468358E1,-2.413403988E-2,7.492426783E-3,-7.613182068E-3,2.639221251E-2
1.023468358E1,-6.408530474E-2,3.812177852E-2,-9.126472473E-2,1.178534949E-1
1.024468358E1,-5.806991458E-2,5.978664383E-2,-7.673549652E-2,1.132911920E-1
1.025468358E1,-6.374406815E-2,6.216558069E-2,-4.554939270E-2,1.000130633E-1
1.026468358E1,-1.538261771E-2,4.262777045E-2,2.628898621E-2,5.239143572E-2
1.027468385E1,1.128217578E-2,5.907738581E-2,5.969905853E-2,8.474315662E-2
1.028468385E1,-1.453834772E-2,5.113896728E-2,1.217317581E-1,1.328351552E-1
1.029468385E1,-3.297537565E-3,3.347608447E-2,1.070919037E-1,1.122506028E-1
1.030468385E1,4.655814171E-2,6.139278412E-3,1.378564835E-1,1.456357145E-1
1.031468385E1,8.095178008E-2,-2.311300859E-2,2.046031952E-1,2.212461736E-1
1.032468358E1,1.430824399E-2,-1.871317253E-2,1.756696701E-1,1.772420426E-1
1.033468358E1,1.025798917E-2,-3.566297144E-2,1.779890060E-1,1.818162813E-1
1.034468358E1,4.817429185E-2,-2.131131664E-2,1.588163376E-1,1.673247253E-1
1.035468358E1,4.201981425E-2,9.734589607E-3,1.923828125E-1,1.971587522E-1
1.036468358E1,6.053000689E-3,2.861327305E-2,-3.496742249E-2,4.558595011E-2
1.037468408E1,-6.743627787E-2,1.402514428E-2,-7.541847229E-2,1.021386421E-1
1.038468408E1,-5.677619576E-2,4.044058919E-2,-5.359745026E-2,8.792988305E-2
1.039468408E1,-2.078121901E-2,5.243606120E-2,-5.108642578E-2,7.610008198E-2
1.040468408E1,2.658337355E-3,2.360050008E-2,-4.871559143E-2,5.419648706E-2
1.041468455E1,2.314180136E-3,4.522483796E-3,-4.884338379E-2,4.910686744E-2
1.042468455E1,2.335956693E-2,2.352264151E-2,8.270549774E-2,8.910209530E-2
1.043468455E1,5.618548393E-2,2.808722109E-2,1.759386063E-1,1.868156679E-1
1.044468455E1,4.244187474E-2,3.291298449E-2,1.782522202E-1,1.861677503E-1
1.045468455E1,1.127517223E-2,1.642654091E-2,1.255769730E-1,1.271476972E-1
1.046468408E1,-1.206871867E-2,-1.910459995E-2,8.250808716E-2,8.554661978E-2
1.047468408E1,6.454885006E-3,1.707585342E-2,4.417133331E-2,4.779494740E-2
1.048468408E1,-4.191160202E-3,2.674699761E-2,-2.531147003E-2,3.706262565E-2
1.049468408E1,2.587929368E-2,2.666375972E-2,-1.578140259E-2,4.037012003E-2
1.050468408E1,2.643465996E-2,3.438363969E-2,3.919696808E-2,5.845877378E-2
1.051468408E1,1.019582152E-2,1.859082654E-2,2.234745026E-2,3.080555374E-2
1.052468435E1,1.844856143E-2,1.718815789E-2,5.524635315E-3,2.581286086E-2
1.053468435E1,3.588792682E-2,1.310560573E-2,2.938461304E-2,4.819912526E-2
1.054468435E1,-1.105266809E-2,-2.573797479E-3,5.565357208E-2,5.679882033E-2
1.055468435E1,-1.388579607E-3,-1.061297022E-2,-4.200935364E-3,1.149831066E-2
1.056468435E1,-2.006119490E-2,-1.816994511E-2,1.736831665E-2,3.215986426E-2
1.057468408E1,-1.530086994E-2,-1.830678433E-2,3.891468048E-2,4.564654785E-2
1.058468408E1,6.920099258E-4,-2.358684130E-2,4.845619202E-2,5.389638675E-2
1.059468408E1,2.124753594E-2,-1.749023795E-5,3.643989563E-2,4.218203508E-2
1.060468408E1,2.021354437E-2,4.670666531E-3,3.399944305E-2,3.982919319E-2
1.061468408E1,2.806106210E-2,1.638794877E-2,7.941246033E-2,8.580400297E-2
1.062468408E1,-3.148347139E-3,4.463039339E-2,1.032447815E-1,1.125223045E-1
1.063468408E1,-2.165791392E-2,7.970998995E-3,1.031665802E-1,1.057163437E-1
1.064468408E1,-4.379406571E-2,1.437836140E-2,7.440757751E-2,8.752796730E-2
1.065468408E1,-3.158089519E-2,8.762717247E-3,3.610801697E-2,4.876399331E-2
1.066468458E1,1.803338528E-4,-1.396674663E-3,3.134632111E-2,3.137793918E-2
1.067468408E1,1.469513774E-2,1.042781305E-2,1.459217072E-2,2.318658673E-2
1.068468408E1,4.271468520E-2,-1.131758280E-2,9.773254395E-3,4.525647483E-2
1.069468408E1,8.193701506E-3,-1.373184472E-2,-1.421356201E-2,2.139452381E-2
1.070468408E1,2.253568172E-2,-2.350750752E-2,1.930427551E-2,3.785650424E-2
1.071468361E1,2.240869403E-2,-2.314209007E-2,1.929855347E-2,3.755183174E-2
1.072468361E1,-1.408863068E-2,3.858748823E-3,5.997753143E-2,6.173073573E-2
1.073468361E1,-2.659136057E-2,-1.264632680E-2,7.192611694E-2,7.771998673E-2
1.074468361E1,-7.796734571E-3,6.833939813E-3,1.126136780E-1,1.130899300E-1
1.075468361E1,4.598954320E-2,4.239296541E-3,1.388940811E-1,1.463713616E-1
1.076468361E1,-6.856173277E-3,2.591450885E-2,1.244182587E-1,1.272732178E-1
1.077468388E1,-1.700595021E-2,6.792514585E-3,8.847904205E-2,9.035420012E-2
1.078468388E1,-1.643946767E-2,-3.455951810E-4,-9.661674500E-3,1.907153605E-2
1.079468388E1,3.271281719E-3,1.633935049E-2,-3.597450256E-2,3.964644364E-2
1.080468388E1,-1.305869222E-2,-5.924360827E-3,-2.877426147E-2,3.214942639E-2
1.081468388E1,1.382416487E-2,1.064176764E-2,-5.269432068E-2,5.550717237E-2
1.082468361E1,9.069800377E-3,-2.809925750E-2,7.659721375E-2,8.209118530E-2
1.083468361E1,-4.872152209E-2,-2.842149511E-2,4.306316376E-2,7.096480939E-2
1.084468361E1,3.105965257E-2,-1.095261239E-2,4.070377350E-2,5.235894301E-2
1.085468411E1,7.312604785E-2,-2.496894076E-2,1.005163193E-1,1.267848466E-1
1.086468411E1,1.597151160E-2,2.129843459E-2,9.563922882E-2,9.927524660E-2
1.087468411E1,-1.871103048E-2,1.439679787E-2,6.685829163E-2,7.090417202E-2
1.088468411E1,7.605254650E-3,-1.431903988E-2,6.925010681E-2,7.112279589E-2
1.089468411E1,-7.335126400E-3,2.429554239E-2,8.119773865E-2,8.507144186E-2
1.090468411E1,1.795798540E-3,1.224835869E-2,3.808212280E-2,4.004366692E-2
1.091468424E1,-1.070466638E-2,1.147632767E-2,1.411533356E-2,2.110778578E-2
1.092468424E1,-2.249410748E-2,8.269010112E-3,-1.700401306E-2,2.938533410E-2
1.093468425E1,-5.645304918E-3,-6.229417399E-3,-2.178955078E-2,2.335507722E-2
1.094468425E1,2.471557260E-2,-1.343576238E-2,-2.421569824E-2,3.711844933E-2
1.095468425E1,3.798073530E-2,5.709108897E-3,2.601623535E-2,4.638938112E-2
1.096468374E1,9.940743446E-3,-2.072283253E-2,4.988670349E-2,5.492665431E-2
1.097468374E1,-1.482462883E-2,-2.290658467E-2,6.182384491E-2,6.757713401E-2
1.098468374E1,6.313949823E-3,-5.686800927E-3,1.408176422E-1,1.410737893E-1
1.099468375E1,1.437765360E-2,1.988159493E-3,1.575145721E-1,1.581818894E-1
1.100468375E1,-3.222426772E-2,9.045330808E-3,7.127380371E-2,7.874119973E-2
1.101468375E1,-3.242424130E-2,6.696776487E-3,-7.745742798E-3,3.400257006E-2
1.102468401E1,-2.515754104E-2,1.885302737E-2,-3.647327423E-2,4.815224029E-2
1.103468401E1,-1.002967358E-2,1.381653361E-2,-3.175354004E-2,3.605243762E-2
1.104468401E1,4.844516516E-3,-1.065107249E-2,1.685142517E-3,1.182177612E-2
1.105468401E1,6.763041019E-4,-1.017540693E-3,3.273773193E-2,3.276052302E-2
1.106468401E1,2.264034748E-2,-1.283018105E-2,5.899238586E-2,6.447713137E-2
1.107468374E1,2.019754052E-2,-5.584249273E-3,1.115665436E-1,1.135174794E-1
1.108468374E1,8.008414507E-2,-1.534733735E-2,6.837177277E-2,1.064129239E-1
1.109468374E1,-3.619903326E-2,1.156433020E-2,-1.398868561E-1,1.449566702E-1
1.110468374E1,1.466545463E-2,7.149535231E-3,-1.765537262E-2,2.403962553E-2
1.111468374E1,8.969458938E-2,-2.493696287E-3,6.129074097E-2,1.086641285E-1
1.112468374E1,4.530861974E-2,-1.677681133E-2,1.042356491E-1,1.148886546E-1
1.113468374E1,7.285684347E-3,-1.860953867E-2,8.260345459E-2,8.498662740E-2
1.114468374E1,7.008045912E-3,-1.317951828E-3,3.949642181E-2,4.013498525E-2
1.115468324E1,3.469496965E-3,-2.017019130E-2,7.775878906E-2,8.040710978E-2
1.116468374E1,7.111310959E-3,4.350151867E-3,7.053089142E-2,7.102183614E-2
1.117468374E1,-1.045331359E-2,2.186696976E-3,6.810379028E-2,6.893605486E-2
1.118468374E1,-1.033186913E-2,2.392964438E-3,6.811046600E-2,6.893119307E-2
1.119468374E1,-3.044787049E-2,1.200472564E-2,1.070594788E-2,3.443549876E-2
1.120468374E1,-4.311162233E-2,4.680704325E-3,5.984306335E-3,4.377593969E-2
1.121468361E1,1.247417927E-2,9.390811436E-3,-8.358955383E-3,1.771057941E-2
1.122468361E1,-6.728291512E-3,-9.649172425E-3,1.558208466E-2,1.952377518E-2
1.123468361E1,-6.824493408E-3,-1.446338184E-2,3.473091125E-2,3.823609971E-2
1.124468361E1,-1.152867079E-2,-1.697614789E-4,6.107330322E-2,6.215213138E-2
1.125468361E1,-2.550497651E-2,2.273665741E-3,7.306003571E-2,7.741732493E-2
1.126468361E1,1.098781824E-3,-4.552520812E-3,9.222507477E-2,9.234390713E-2
1.127468361E1,-1.039779186E-2,-6.733546034E-3,7.787990570E-2,7.885895276E-2
1.128468361E1,-6.082355976E-4,5.038194358E-3,4.436779022E-2,4.465707292E-2
1.129468361E1,-4.654347897E-3,9.885284118E-3,6.834030151E-2,6.920822644E-2
1.130468361E1,3.219842911E-3,-1.876659691E-3,1.569652557E-2,1.613289047E-2
1.131468361E1,3.835707903E-3,1.026009489E-2,1.355171204E-3,1.103715050E-2
1.132468334E1,-2.893623710E-2,2.676261403E-2,-1.537513733E-2,4.230766095E-2
1.133468334E1,-2.507662773E-2,7.722720504E-3,-1.531410217E-2,3.038090512E-2
1.134468334E1,1.441904902E-2,-4.843929783E-3,-1.287174225E-2,1.992622340E-2
1.135468334E1,1.649728417E-2,-7.715551183E-3,8.662223816E-3,2.016740530E-2
1.136468334E1,-5.373954773E-4,1.604270190E-3,6.371879578E-2,6.374125361E-2
1.137468334E1,1.407563686E-4,1.480702311E-3,6.374645233E-2,6.376380224E-2
1.138468334E1,-8.388400078E-3,1.577159204E-2,1.092805862E-1,1.107310024E-1
1.139468334E1,-1.291510463E-2,3.723714501E-3,1.092910767E-1,1.101145105E-1
1.140468334E1,-1.074039936E-2,1.334252115E-2,8.055114746E-2,8.235208805E-2
1.141468384E1,-1.573371887E-2,-3.314295784E-3,7.814884186E-2,7.978581296E-2
1.142468384E1,5.947470665E-3,-1.068336517E-2,6.378841400E-2,6.494973795E-2
1.143468384E1,2.629756927E-3,-1.762426831E-2,3.262519836E-2,3.717437321E-2
1.144468384E1,-3.164631128E-2,1.096998714E-2,-3.205204010E-2,4.635906503E-2
1.145468384E1,-1.919198036E-2,-5.931342021E-3,-3.442573547E-2,3.985779963E-2
1.146468334E1,-4.038691521E-3,1.799361035E-2,2.067470551E-2,2.770423236E-2
1.147468334E1,-1.759260893E-3,1.531364396E-2,8.770847321E-2,8.905267521E-2
1.148468334E1,-2.732783556E-3,1.494066231E-2,8.766746521E-2,8.897345645E-2
1.149468334E1,4.215925932E-3,2.696342766E-3,3.977203369E-2,4.008564531E-2
1.150468334E1,1.636216044E-2,2.473680303E-3,6.611633301E-2,6.815576923E-2
1.151468334E1,1.573389769E-2,2.463489771E-3,6.609058380E-2,6.798227405E-2
1.152468361E1,1.802119613E-2,-1.418644004E-2,7.326889038E-2,7.677466306E-2
1.153468361E1,2.057442069E-2,4.064887762E-4,6.609249115E-2,6.922202978E-2
1.154468361E1,1.551944017E-2,-1.621585526E-2,6.129360199E-2,6.527413446E-2
1.155468361E1,-1.356717944E-2,-8.765574545E-3,1.578903198E-2,2.258754493E-2
1.156468361E1,1.362073421E-2,7.409099489E-4,5.173683167E-2,5.350488855E-2
1.157468361E1,6.214767694E-3,-1.328665018E-2,4.454612732E-2,4.689899647E-2
1.158468361E1,-1.538264751E-2,-2.224062383E-2,1.581382751E-2,3.132647975E-2
1.159468361E1,8.767664433E-3,-9.662361816E-3,3.737163544E-2,3.958373796E-2
1.160468361E1,-1.297411323E-2,5.160536617E-3,7.088470459E-2,7.224679991E-2
1.161468361E1,-1.035350561E-2,7.925491780E-3,2.779865265E-2,3.070461834E-2
1.162468361E1,-1.636487246E-2,1.257072017E-2,-1.285648346E-2,2.431298466E-2
1.163468361E1,-2.023562789E-2,1.215131208E-2,1.591205597E-2,2.846627033E-2
1.164468361E1,-2.506282926E-2,2.315867692E-3,4.703521729E-2,5.334623059E-2
1.165468361E1,-5.513012409E-3,-7.289486006E-3,3.029155731E-2,3.164029640E-2
1.166468411E1,2.317917347E-2,4.678808153E-3,5.423259735E-2,5.916367081E-2
1.167468411E1,-5.896240473E-3,2.370917052E-2,8.294963837E-2,8.647272936E-2
1.168468411E1,-2.256613970E-2,-1.449378394E-2,9.492492676E-2,9.864097604E-2
1.169468411E1,1.810938120E-3,-2.546347678E-3,9.494304657E-2,9.499444971E-2
1.170468411E1,-5.215466022E-3,-1.689967886E-2,5.424690247E-2,5.705722267E-2
1.171468361E1,-1.466545463E-2,-1.651471667E-2,1.578330994E-3,2.214277658E-2
1.172468361E1,7.294207811E-3,-2.103438228E-2,4.469394684E-2,4.993194959E-2
1.173468361E1,1.974716783E-2,-1.322352886E-2,8.541870117E-2,8.866322159E-2
1.174468361E1,-4.370361567E-3,-1.225584373E-2,7.344150543E-2,7.458525649E-2
1.175468361E1,3.293544054E-3,2.992691472E-3,6.388664246E-2,6.404144532E-2
1.176468361E1,-1.070827246E-3,1.078224741E-2,8.066463470E-2,8.138910752E-2
1.177468388E1,1.889944077E-3,2.279706299E-2,5.195713043E-2,5.676989847E-2
1.178468388E1,-1.905205846E-2,1.041889191E-3,-1.266193390E-2,2.289958591E-2
1.179468388E1,-2.011319995E-2,1.066631824E-2,-3.415393829E-2,4.104634768E-2
1.180468388E1,-1.189056039E-2,6.156424060E-3,1.616954803E-2,2.099383879E-2
1.181468388E1,-1.355227828E-2,-2.049698308E-2,4.014205933E-2,4.706565084E-2
1.182468361E1,-1.351624727E-2,1.306380238E-2,2.817249298E-2,3.386799719E-2
1.183468361E1,-6.321579218E-3,3.585986793E-3,4.972171783E-2,5.025008348E-2
1.184468361E1,-1.149684191E-3,-8.511271328E-3,9.043979645E-2,9.084668566E-2
1.185468361E1,-1.969018579E-2,-8.561270311E-3,6.412792206E-2,6.762683752E-2
1.186468361E1,-7.099449635E-3,2.482914925E-2,6.415367126E-2,6.915621718E-2
1.187468361E1,1.041457057E-2,2.688819170E-2,4.742527008E-2,5.550310239E-2
1.188468361E1,1.056522131E-3,7.200082764E-3,1.870155334E-2,2.006752422E-2
1.189468361E1,-2.273610234E-2,4.148866981E-3,-2.841949463E-3,2.328562054E-2
1.190468361E1,-1.723873615E-2,-5.943180993E-3,-3.393745422E-2,3.852591626E-2
1.191468411E1,-1.465201378E-2,1.294141635E-3,-9.986877441E-3,1.777903348E-2
1.192468411E1,-1.655697823E-2,8.225627244E-4,5.707263947E-2,5.943144212E-2
1.193468457E1,-3.771135211E-2,-1.380578615E-2,8.821392059E-2,9.692492763E-2
1.194468457E1,-1.825055480E-2,3.058223054E-3,8.104419708E-2,8.313000276E-2
1.195468457E1,-3.922432661E-3,-1.132880151E-2,3.315734863E-2,3.525814785E-2
1.196468407E1,-1.710206270E-3,-6.475498900E-3,8.582401276E-2,8.608494675E-2
1.197468407E1,1.462948322E-2,-1.346336678E-3,7.144069672E-2,7.293563977E-2
1.198468407E1,6.860166788E-3,-8.319709450E-3,1.156044006E-2,1.580896038E-2
1.199468407E1,1.173305511E-2,1.076120790E-2,2.114009857E-2,2.646454129E-2
1.200468407E1,2.146804333E-2,3.569902852E-3,3.551197052E-2,4.164998368E-2
1.201468407E1,3.549367189E-2,-3.541363403E-3,1.873779297E-2,4.029202011E-2
1.202468434E1,9.197294712E-3,-8.346378803E-3,3.549957275E-2,3.760946603E-2
1.203468434E1,3.766870499E-2,-3.499252722E-3,4.746055603E-2,6.069333146E-2
1.204468434E1,1.163512468E-3,-1.545651816E-2,8.813762665E-2,8.949021704E-2
1.205468434E1,8.399933577E-3,-7.715169340E-4,1.096887589E-1,1.100126263E-1
1.206468434E1,-8.217483759E-3,6.598312408E-3,8.096504211E-2,8.164804229E-2
1.207468407E1,-4.138585925E-2,-5.563646555E-4,6.661415100E-2,7.842540405E-2
1.208468407E1,-1.843273640E-3,2.105005085E-2,4.272365570E-2,4.766354010E-2
1.209468407E1,-2.480134368E-2,1.863379404E-2,5.234241486E-2,6.084450116E-2
1.210468407E1,-9.642392397E-3,-3.607682884E-4,8.829116821E-2,8.881686928E-2
1.211468407E1,3.315150738E-3,-9.723752737E-3,5.002593994E-2,5.106991540E-2
1.212468407E1,2.404877543E-2,-1.435098052E-2,3.093910217E-2,4.173155024E-2
1.213468407E1,2.026134729E-2,-4.755256698E-3,2.619457245E-2,3.345579600E-2
1.214468407E1,-2.262827754E-2,-1.182340644E-2,7.048606873E-3,2.648612360E-2
1.215468407E1,-1.236703992E-2,7.382564247E-3,-3.122997284E-2,3.439123631E-2
1.216468457E1,-1.138344407E-2,4.730151966E-3,3.345775604E-2,3.565639600E-2
1.217468457E1,3.779053688E-3,2.201991156E-3,9.334850311E-2,9.345091249E-2
1.218468457E1,-2.612721920E-2,1.177681517E-2,1.029796600E-1,1.068931024E-1
1.219468457E1,-3.203567863E-2,-4.941655323E-3,6.951427460E-2,7.670031965E-2
1.220468457E1,4.429221153E-4,4.683040082E-3,7.436275482E-2,7.451138402E-2
1.221468407E1,1.000463963E-3,-4.734700546E-3,6.241607666E-2,6.260339402E-2
1.222468407E1,8.455425501E-3,9.670758620E-3,6.003379822E-2,6.139279047E-2
1.223468361E1,-1.457622647E-2,-7.176017389E-3,4.092025757E-2,4.402759457E-2
1.224468361E1,-1.539108157E-2,1.453495957E-2,1.704692841E-2,2.717992292E-2
1.225468361E1,-1.188924909E-2,-9.244449437E-3,3.625011444E-2,3.925410662E-2
1.226468361E1,-2.785646915E-2,2.898737788E-2,1.234245300E-2,4.205457284E-2
1.227468387E1,-2.438816428E-2,1.900185645E-2,2.196598053E-2,3.792568267E-2
1.228468387E1,-1.619714499E-2,4.066111520E-3,2.200984955E-2,2.762814228E-2
1.229468387E1,-3.614693880E-3,3.543432802E-3,4.597854614E-2,4.625633614E-2
1.230468387E1,-2.230653167E-2,5.560621619E-3,4.121017456E-2,4.718877361E-2
1.231468387E1,-6.967633963E-3,-2.354638837E-2,3.885841370E-2,4.596690813E-2
1.232468360E1,-6.356388330E-3,3.015387803E-3,7.719421387E-2,7.751414639E-2
1.233468360E1,1.014053822E-2,7.899884135E-3,7.239341736E-2,7.352581561E-2
1.234468360E1,-1.151949167E-2,-1.507660374E-3,3.647518158E-2,3.828068181E-2
1.235468360E1,-1.854833961E-2,-1.220123842E-3,-4.219055176E-3,1.906121798E-2
1.236468361E1,3.258377314E-3,1.096695568E-2,3.170585632E-2,3.370686080E-2
1.237468361E1,2.729615569E-2,1.819347963E-2,4.607677460E-2,5.656104643E-2
1.238468361E1,5.068957806E-3,5.851292983E-3,-4.234313965E-3,8.823909426E-3
1.239468360E1,3.060996532E-4,5.774641410E-3,-2.578258514E-2,2.642313148E-2
1.240468360E1,1.649335027E-2,-1.095304266E-2,5.317687988E-3,2.050067199E-2
1.241468411E1,1.759949327E-2,8.985344321E-4,4.117488861E-2,4.478750919E-2
1.242468410E1,-7.226616144E-3,-1.133867726E-2,7.944297791E-2,8.057280137E-2
1.243468410E1,-1.264834404E-2,-4.106044769E-3,7.702064514E-2,7.816021999E-2
1.244468410E1,-1.727908850E-3,3.193302080E-3,9.373378754E-2,9.380408186E-2
1.245468410E1,-2.606689930E-3,7.656926289E-3,6.735801697E-2,6.784191774E-2
1.246468361E1,1.102271676E-2,-2.360619232E-2,4.817008972E-2,5.476413192E-2
1.247468361E1,3.668576479E-3,-6.918761879E-3,4.816246033E-2,4.879498237E-2
1.248468360E1,2.985960245E-2,1.176926345E-1,-1.242303848E-1,1.737133863E-1
1.249468360E1,-4.663130641E-2,-1.079685912E-1,3.905420303E-1,4.078661213E-1
1.250468360E1,5.081117153E-3,-8.198801428E-2,5.750875473E-1,5.809247277E-1
1.251468360E1,-5.242753029E-2,-1.371770538E-2,2.901639938E-1,2.951812404E-1
1.252468387E1,1.764595509E-2,7.498027384E-2,-3.515911102E-1,3.599301738E-1
1.253468387E1,6.133785844E-2,-1.463121362E-2,-2.296762466E-1,2.381755310E-1
