"Time (s)","Linear Acceleration x (m/s^2)","Linear Acceleration y (m/s^2)","Linear Acceleration z (m/s^2)","Absolute acceleration (m/s^2)"
0.000000000E0,3.323247433E0,5.028471947E0,-3.334380627E0,6.888221670E0
1.000000000E-2,3.322421312E0,5.039202690E0,-3.334340572E0,6.895641680E0
2.000000000E-2,4.354956150E0,5.507398605E0,-2.357062340E0,7.406269327E0
3.000433300E-2,3.952796221E0,5.801551819E0,-1.385293961E0,7.155532183E0
4.000433300E-2,3.014952660E0,5.875075817E0,-1.041357040E0,6.685123775E0
5.000433300E-2,1.581145644E0,5.154828548E0,-2.374715805E-1,5.397098449E0
6.000433300E-2,1.295730829E0,4.493050575E0,5.380249023E-2,4.676464109E0
7.000433300E-2,2.074460983E0,2.366061687E0,4.924068451E-1,3.184980499E0
8.000433300E-2,2.457952261E0,1.952183127E0,-3.576068878E-1,3.159182009E0
9.000433300E-2,1.011335850E0,2.385971308E0,-1.761931419E0,3.133697753E0
1.000043330E-1,6.806502342E-1,3.152809381E0,-1.169606209E0,3.430957654E0
1.100043330E-1,6.949851513E-1,3.094331026E0,-1.171796799E0,3.380975687E0
1.200043330E-1,3.193529844E0,4.346969604E0,-1.430909157E0,5.580526734E0
1.300043330E-1,5.100182533E0,4.854897499E0,-2.105874538E0,7.349598572E0
1.400043330E-1,5.739019394E0,4.872131348E0,-2.259501934E0,7.859984508E0
1.500043330E-1,6.196389675E0,4.371646404E0,-2.320013046E0,7.930258371E0
1.600043330E-1,6.243492603E0,4.093290329E0,-2.099087238E0,7.755152664E0
1.700051560E-1,5.666934013E0,3.865166903E0,-1.710577488E0,7.069634477E0
1.800051560E-1,4.932554722E0,3.701901674E0,-1.425012112E0,6.329678634E0
1.900051560E-1,3.559093475E0,2.884504318E0,-6.228961945E-1,4.623365787E0
2.000051560E-1,2.919390440E0,2.938473701E0,-2.655286789E-1,4.150659431E0
2.100051560E-1,1.602704048E0,3.341911077E0,4.317283630E-3,3.706352460E0
2.200051560E-1,6.552081108E-1,2.724281788E0,-2.408466339E-1,2.812297287E0
2.300051560E-1,4.036450386E-1,3.755868435E0,3.219875336E0,4.963574740E0
2.400051560E-1,1.316078663E0,4.570682526E0,3.250868797E0,5.761193430E0
2.500051560E-1,3.498436213E0,5.182508945E0,3.102670670E0,6.980259321E0
2.600051560E-1,3.837990284E0,5.101648808E0,4.137529850E0,7.607637165E0
2.700051560E-1,4.013184547E0,4.946731091E0,5.025746346E0,8.113810758E0
2.800056200E-1,3.270556688E0,4.682345867E0,4.592165470E0,7.328634769E0
2.900056200E-1,9.624552727E-1,4.344672203E0,3.637915611E0,5.747775804E0
3.000056200E-1,1.442828178E-1,4.625121117E0,2.589062691E0,5.302434204E0
3.100056200E-1,-8.954620361E-1,5.527531147E0,5.162963867E-1,5.623345517E0
3.200056200E-1,-4.244852066E-2,5.851922512E0,5.138826370E-2,5.852302087E0
3.300051860E-1,2.527751923E0,5.751455307E0,-1.429696083E-1,6.284043940E0
3.400051860E-1,3.737490416E0,5.673871040E0,-2.235918045E-1,6.797914422E0
3.500051860E-1,4.010613441E0,4.816755772E0,1.497297287E-1,6.269655121E0
3.600051860E-1,3.299395084E0,4.333434105E0,5.001130104E-1,5.469439833E0
3.700051860E-1,2.692934036E0,3.629696369E0,1.020745277E0,4.633412390E0
3.800051860E-1,2.490026474E0,3.654047489E0,1.069985390E0,4.549413548E0
3.900051860E-1,2.416553020E0,3.953157663E0,9.808254242E-1,4.735947901E0
4.000051860E-1,3.235844612E0,4.191024303E0,5.277152061E-1,5.321076809E0
4.100051860E-1,2.835238695E0,4.206466675E0,7.867441177E-1,5.133410820E0
4.200056520E-1,2.457821846E0,4.378724575E0,2.757081985E-1,5.028929522E0
4.300056520E-1,1.914174080E0,4.124530792E0,1.320073605E0,4.734808442E0
4.400056520E-1,2.098910809E0,4.017168999E0,1.192846298E0,4.686785214E0
4.500056520E-1,3.788292170E0,3.820584297E0,8.236021996E-1,5.443008591E0
4.600056520E-1,4.360840797E0,3.473490238E0,5.384864807E-1,5.601074413E0
4.700051850E-1,5.061977386E0,3.804117680E0,-7.744188309E-1,6.379235919E0
4.800051850E-1,4.649739265E0,3.255704403E0,6.099195480E-1,5.708913053E0
4.900051850E-1,2.839047194E0,3.271415710E0,1.407930374E0,4.554625962E0
5.000051850E-1,2.290302753E0,3.895453930E0,8.206281662E-1,4.592763722E0
5.100051850E-1,2.152020216E0,4.520382404E0,1.009046555E0,5.107173684E0
5.200051850E-1,2.215264320E0,4.635475159E0,1.391404152E0,5.322690247E0
5.300056180E-1,2.311027765E0,4.530493736E0,1.965481758E0,5.452461955E0
5.400056180E-1,2.678358555E0,4.761167526E0,1.699006081E0,5.720921466E0
5.500056180E-1,4.756294250E0,4.975538731E0,2.418870926E-1,6.887440020E0
5.600056180E-1,5.987257004E0,4.726641178E0,-4.393730164E-1,7.640774300E0
5.700056180E-1,7.673272133E0,3.733310223E0,-9.707860947E-1,8.588313926E0
5.800051840E-1,7.721529007E0,3.150725842E0,-2.187948227E-1,8.342478931E0
5.900051840E-1,6.924545765E0,3.153356075E0,1.066907883E0,7.683181699E0
6.000051840E-1,5.954912186E0,3.555268764E0,1.687740326E0,7.137883617E0
6.100051840E-1,3.829857111E0,3.823602200E0,4.368079185E0,6.954700212E0
6.200051840E-1,2.928737164E0,3.808667660E0,5.236712456E0,7.106800128E0
6.300051840E-1,2.035142183E0,3.610871553E0,5.477992058E0,6.869395466E0
6.400051840E-1,1.863230705E0,3.641240358E0,5.225830078E0,6.636230859E0
6.500051840E-1,2.285270691E0,3.192528963E0,3.828050613E0,5.483491115E0
6.600051840E-1,2.609440565E0,3.040562868E0,2.868963242E0,4.927996824E0
6.700056500E-1,2.945576191E0,2.984945059E0,1.238896370E0,4.372777186E0
6.800056500E-1,2.895153761E0,3.056983471E0,7.870855331E-1,4.283289259E0
6.900056500E-1,2.501941442E0,3.198821783E0,4.744081497E-1,4.088671529E0
7.000056500E-1,2.161669016E0,3.282773495E0,4.256649017E-1,3.953556040E0
7.100056500E-1,1.726859808E0,3.508065701E0,4.903373718E-1,3.940685282E0
7.200052500E-1,1.587340593E0,3.605804682E0,6.431198120E-1,3.991876834E0
7.300052500E-1,1.551750183E0,3.634064198E0,6.437082291E-1,4.003587330E0
7.400052500E-1,1.828579307E0,3.707245588E0,2.970199585E-1,4.144344699E0
7.500052500E-1,1.908150434E0,3.688057423E0,1.929740906E-1,4.156927307E0
7.600052500E-1,1.931028366E0,3.687160492E0,2.121829987E-2,4.162267803E0
7.700052500E-1,1.731636286E0,3.678182840E0,-4.131317139E-2,4.065624185E0
7.800056830E-1,1.550530195E0,3.722651958E0,1.284885406E-2,4.032672387E0
7.900056830E-1,1.443948269E0,3.904161930E0,2.376050949E-1,4.169403214E0
8.000056830E-1,1.452407598E0,3.937962770E0,3.128652573E-1,4.208909988E0
8.100056830E-1,1.337163568E0,3.997963190E0,5.501823425E-1,4.251401732E0
8.200056830E-1,1.227723718E0,4.090740681E0,7.443876266E-1,4.335386694E0
8.300052490E-1,1.053035975E0,4.295493126E0,1.353849411E0,4.625262607E0
8.400052490E-1,1.098905325E0,4.446770668E0,1.603663445E0,4.853153483E0
8.500052490E-1,1.329669833E0,4.687085152E0,1.793945312E0,5.191823270E0
8.600052490E-1,1.448767662E0,4.755703449E0,1.746527672E0,5.269345495E0
8.700052490E-1,1.604707003E0,4.773882866E0,1.563860893E0,5.273585410E0
8.800052490E-1,1.667640924E0,4.836286545E0,1.454586983E0,5.318507035E0
8.900052490E-1,1.740937948E0,4.930288315E0,1.677482605E0,5.491134281E0
9.000052490E-1,1.751150370E0,4.923230648E0,1.792197227E0,5.524192116E0
9.100052490E-1,1.758739948E0,5.006910324E0,1.864317894E0,5.624766520E0
9.200057150E-1,2.035686493E0,5.132653236E0,1.927373886E0,5.848326157E0
9.300057150E-1,2.540270567E0,5.369732857E0,2.063045502E0,6.288335412E0
9.400061810E-1,2.713387728E0,5.454928875E0,2.083195686E0,6.438821807E0
9.500061810E-1,2.830036640E0,5.629876614E0,2.165946960E0,6.663028163E0
9.600061810E-1,2.743089914E0,5.630146980E0,2.383475304E0,6.701048561E0
9.700057140E-1,2.711417913E0,5.429200649E0,2.383790970E0,6.520005075E0
9.800057140E-1,2.677677155E0,5.405103683E0,2.039373398E0,6.367428416E0
9.900057140E-1,2.717145920E0,5.405562401E0,1.717852592E0,6.289197433E0
1.000005714E0,2.698572159E0,5.398235798E0,1.619771004E0,6.248751838E0
1.010005714E0,2.581578970E0,5.499320030E0,1.527320862E0,6.264166328E0
1.019972314E0,2.554434299E0,5.586723804E0,1.556970596E0,6.337252946E0
1.029938980E0,2.600633621E0,5.712771416E0,1.569140434E0,6.470027371E0
1.039905646E0,2.751082182E0,5.994861603E0,1.540545464E0,6.773485007E0
1.049872779E0,2.867624521E0,6.591472626E0,1.799664497E0,7.410099465E0
1.059839445E0,2.813318253E0,6.772181511E0,2.141610146E0,7.639613604E0
1.069806111E0,2.593453646E0,6.880427361E0,2.528779030E0,7.775667551E0
1.079772344E0,2.399981737E0,7.014937401E0,2.492326736E0,7.821825339E0
1.089739010E0,2.155442476E0,7.284650803E0,2.458230972E0,7.984670882E0
1.099705676E0,1.970865846E0,7.421601295E0,2.615364075E0,8.112003896E0
1.109672342E0,1.608817697E0,7.598446846E0,3.023075104E0,8.334486903E0
1.119639008E0,1.313320398E0,7.742472649E0,3.170966148E0,8.469103819E0
1.129605674E0,8.384166956E-1,8.080563545E0,2.906995773E0,8.628387694E0
1.139572840E0,8.754985929E-1,8.136240959E0,2.589642525E0,8.583190732E0
1.149539506E0,1.007611275E0,8.182435036E0,2.137503624E0,8.516833058E0
1.159506172E0,9.612604380E-1,8.152112007E0,2.118642807E0,8.477593948E0
1.169472838E0,7.139132619E-1,7.997052193E0,2.520188332E0,8.415097453E0
1.179439504E0,4.588741064E-1,7.909153938E0,2.735250473E0,8.381340980E0
1.189406170E0,3.045272827E-2,7.505254745E0,2.781453133E0,8.004140035E0
1.199372836E0,-7.832837105E-2,7.213961601E0,2.640236855E0,7.682332196E0
1.209339502E0,-3.111379147E-1,6.797768593E0,2.802361488E0,7.359327045E0
1.219305702E0,-5.916923285E-1,6.458930492E0,2.956480980E0,7.128019550E0
1.229272368E0,-1.044662595E0,6.129893303E0,3.011267662E0,6.909026326E0
1.239239068E0,-1.289154887E0,5.985675812E0,2.965769768E0,6.803383391E0
1.249205734E0,-1.124910116E0,5.439635754E0,2.454877853E0,6.073012858E0
1.259172400E0,-7.923395634E-1,5.354780674E0,1.999871254E0,5.770698665E0
1.269139066E0,-1.787114143E-1,5.524090290E0,1.531593323E0,5.735267161E0
1.279105732E0,-5.468022823E-2,5.518764496E0,1.469379425E0,5.711289468E0
1.289072398E0,-1.382148266E-1,5.348676205E0,1.979497910E0,5.704897234E0
1.299039064E0,-1.403099298E-1,5.200671673E0,1.990522385E0,5.570354754E0
1.309005730E0,-1.807379723E-1,4.564895630E0,1.643677711E0,4.855163720E0
1.319005730E0,-3.263503313E-1,4.025241375E0,1.517591476E0,4.314180867E0
1.329005730E0,-8.965375423E-1,3.795359373E0,1.921792984E0,4.347622409E0
1.339005730E0,-1.294939995E0,3.666474342E0,2.118718147E0,4.428190407E0
1.349005263E0,-1.886044025E0,3.284557819E0,2.379650116E0,4.473054528E0
1.359005263E0,-2.133581638E0,3.335169077E0,2.339321136E0,4.598689678E0
1.369005263E0,-1.940222025E0,3.468068123E0,2.030726433E0,4.462713060E0
1.379004863E0,-1.712098718E0,3.410191059E0,1.631495476E0,4.149995490E0
1.389005363E0,-1.148973465E0,3.231978655E0,5.989332199E-1,3.482032029E0
1.399005363E0,-7.600389719E-1,3.179833412E0,-1.496791840E-2,3.269437843E0
1.409005363E0,-8.239166737E-1,3.237492085E0,-4.503831863E-1,3.370910663E0
1.419005229E0,-3.162205219E-1,2.890816450E0,-4.991426468E-1,2.950586136E0
1.429005229E0,-1.952390075E-1,2.819306374E0,1.931858063E-2,2.826124538E0
1.439004729E0,-4.325086474E-1,2.786596775E0,3.243799210E-1,2.838557318E0
1.449004729E0,-5.758960843E-1,2.628330231E0,1.102128983E0,2.907656169E0
1.459004729E0,-7.786548734E-1,2.516077042E0,1.585580826E0,3.074250095E0
1.469004729E0,-7.954025865E-1,2.248262405E0,1.864207268E0,3.026981641E0
1.479004729E0,-5.549198389E-1,2.089605570E0,1.596488953E0,2.687594546E0
1.489004729E0,1.737261415E-1,2.193855524E0,8.960046768E-1,2.376132827E0
1.499004729E0,4.683644772E-1,2.381502628E0,5.402603149E-1,2.486523931E0
1.509004729E0,4.971928596E-1,2.822492599E0,2.967834473E-2,2.866102932E0
1.519004729E0,4.271740317E-1,2.822898388E0,-7.725620270E-2,2.856081491E0
1.529004729E0,2.170346379E-1,2.658227921E0,-6.736755371E-1,2.750839588E0
1.539004229E0,7.808732986E-2,2.589678526E0,-1.179449081E0,2.846688011E0
1.549004229E0,-1.421809196E-1,2.411956310E0,-1.801465988E0,3.013806292E0
1.559004229E0,-2.200293541E-1,2.257095575E0,-2.021303177E0,3.037854487E0
1.569004229E0,-7.984638214E-4,2.253432989E0,-2.051126003E0,3.047142720E0
1.579004229E0,4.755957723E-1,2.173139572E0,-1.920295715E0,2.938751873E0
1.589004229E0,1.395386696E0,2.179796457E0,-1.630980015E0,3.059201274E0
1.599003895E0,1.830052614E0,2.539949417E0,-1.081241608E0,3.312026423E0
1.609003895E0,2.288883686E0,2.236856937E0,6.399078369E-1,3.263740113E0
1.619003895E0,2.145959854E0,1.611089230E0,1.018733978E-1,2.685354798E0
1.629003895E0,1.780902147E0,1.471566200E0,-2.173213959E-1,2.320419817E0
1.639004395E0,1.647523284E0,1.417710066E0,-1.353931427E-2,2.173572662E0
1.649004395E0,7.943873405E-1,1.198091507E0,3.651695251E-1,1.483180127E0
1.659004395E0,4.325816631E-1,1.221676826E0,8.256263733E-1,1.536645721E0
1.669004395E0,3.186762333E-1,2.233266830E-1,5.402889252E-1,6.658389232E-1
1.679004795E0,3.865739107E-1,1.564576626E-1,-9.429264069E-2,4.275622653E-1
1.689004295E0,8.968205452E-1,5.034248829E-1,-4.399595261E-1,1.118609891E0
1.699004295E0,1.232149601E0,6.151957512E-1,-2.644376755E-1,1.402350076E0
1.709004295E0,1.936896205E0,4.030855894E-1,-1.648292542E-1,1.985248998E0
1.719004428E0,2.231762886E0,3.456256390E-1,-3.899660110E-1,2.291788854E0
1.729004428E0,2.625709534E0,4.896681309E-1,-7.577867508E-1,2.776394459E0
1.739004428E0,2.616927147E0,3.384817839E-1,-7.100543976E-1,2.732591235E0
1.749004428E0,2.288151026E0,1.911447048E-1,-6.997003555E-1,2.400364973E0
1.759004428E0,1.993658304E0,3.195401430E-1,-8.356666565E-1,2.185204361E0
1.769004428E0,1.542189479E0,3.527765274E-1,-1.008487701E0,1.876125558E0
1.779004428E0,1.466471434E0,1.580654383E-1,-1.155683517E0,1.873800294E0
1.789004428E0,1.661085129E0,1.962780952E-1,-1.235148430E0,2.079259613E0
1.799004428E0,2.010137558E0,2.510082722E-1,-1.125615120E0,2.317470076E0
1.809004428E0,2.890933514E0,2.402534485E-1,-1.036333084E0,3.080455252E0
1.819004428E0,3.480303526E0,4.037512541E-1,-9.353418350E-1,3.626346930E0
1.829004428E0,4.299527168E0,8.736902475E-1,-3.841190338E-1,4.404181644E0
1.839004428E0,4.596850395E0,9.461003542E-1,-7.479476929E-2,4.693797364E0
1.849004428E0,4.638749123E0,8.558078408E-1,6.260662079E-1,4.758398825E0
1.859004428E0,4.557319641E0,6.448385119E-1,8.354663849E-1,4.677925085E0
1.869004428E0,3.973459721E0,4.472143054E-1,9.030761719E-1,4.099259611E0
1.879004428E0,3.682759762E0,3.153839707E-1,7.383518219E-1,3.769263844E0
1.889004928E0,3.299633026E0,-2.283600569E-1,1.746988297E-1,3.312136184E0
1.899005261E0,3.070231199E0,-4.972965717E-1,8.520317078E-2,3.111411750E0
1.909005261E0,2.879772902E0,-6.325224638E-1,-4.131927490E-1,2.977231076E0
1.919005261E0,2.863786221E0,-8.172506094E-1,-3.894929886E-1,3.003477129E0
1.929005261E0,2.742846251E0,-1.330335617E0,6.888484955E-2,3.049220151E0
1.939004761E0,2.882366657E0,-1.543877840E0,3.039274216E-1,3.283895280E0
1.949004761E0,3.736331940E0,-1.137757063E0,8.751316071E-1,4.002564531E0
1.959004761E0,4.717204571E0,-1.070598483E0,1.111874580E0,4.963311914E0
1.969004761E0,5.903920174E0,-8.774014115E-1,1.488976479E0,6.151679251E0
1.979004761E0,6.439226627E0,-7.721922398E-1,1.946084976E0,6.771053622E0
1.989004761E0,7.220664978E0,-6.657896638E-1,2.139436722E0,7.560321957E0
1.999004761E0,7.324821472E0,-8.583265543E-1,2.172384262E0,7.688236954E0
2.009004761E0,7.049319267E0,-1.180070043E0,2.080094337E0,7.443941153E0
2.019004761E0,6.844615936E0,-1.400957346E0,1.558320999E0,7.158199015E0
2.029004761E0,6.549243927E0,-1.191977382E0,8.711366653E-1,6.713589590E0
2.039004761E0,6.439577103E0,-1.180738926E0,6.605033875E-1,6.580164314E0
2.049004761E0,6.527832985E0,-1.321026087E0,7.744207382E-1,6.705031013E0
2.059004761E0,7.150512695E0,-1.563558340E0,1.135289192E0,7.406985084E0
2.069004761E0,8.155342102E0,-1.602404952E0,1.428135872E0,8.433082384E0
2.079004761E0,8.383275032E0,-1.495571494E0,1.302603722E0,8.614685764E0
2.089004761E0,7.945713043E0,-1.217410803E0,9.849328995E-1,8.098551577E0
2.099004761E0,7.600774765E0,-1.268627644E0,9.268083572E-1,7.761453914E0
2.109004761E0,7.025174141E0,-9.665492773E-1,3.607625961E-1,7.100523845E0
2.119004761E0,6.814826012E0,-1.074702978E0,2.904319763E-1,6.905156826E0
2.129004761E0,6.830578804E0,-1.251578093E0,6.358594894E-1,6.973347246E0
2.139004894E0,6.903771400E0,-1.274372101E0,1.118458748E0,7.108940411E0
2.149004894E0,7.263098717E0,-1.286794424E0,2.089181900E0,7.666363145E0
2.159004894E0,7.869922638E0,-1.221678734E0,2.488700867E0,8.343968676E0
2.169004894E0,9.304935455E0,-9.767521620E-1,2.743446350E0,9.749993153E0
2.179004894E0,9.819108963E0,-3.719726205E-1,2.381468773E0,1.011062105E1
2.189004394E0,9.595588684E0,5.413868427E-1,1.797336578E0,9.777465964E0
2.199004394E0,9.038127899E0,9.346082211E-1,1.825831413E0,9.267950626E0
2.209004394E0,8.193639755E0,6.361317635E-1,1.338809013E0,8.326632310E0
2.219004394E0,8.033833504E0,2.867449522E-1,1.054734230E0,8.107846060E0
2.229004394E0,7.902910233E0,-1.647312641E-1,-1.982688904E-3,7.904627155E0
2.239004394E0,7.671851158E0,-7.698702812E-1,-3.735499382E-1,7.719426144E0
2.249004394E0,7.625765800E0,-7.622193098E-1,7.189140320E-1,7.697409935E0
2.259004394E0,8.095872879E0,-3.647369146E-1,1.648152351E0,8.269981673E0
2.269004394E0,8.285772324E0,5.232906342E-1,3.106287956E0,8.864360155E0
2.279004394E0,8.690115929E0,1.061225891E0,4.228188515E0,9.722237055E0
2.289004394E0,8.863583565E0,1.526492834E0,5.097986221E0,1.033841175E1
2.299004394E0,8.643077850E0,1.493355274E0,4.489337921E0,9.853276596E0
2.309004394E0,8.248574257E0,1.536942482E0,2.720183372E0,8.820462972E0
2.319004394E0,8.156476974E0,1.638630152E0,2.082798004E0,8.576203877E0
2.329004394E0,8.148809433E0,1.685925484E0,1.904360771E0,8.536511574E0
2.339004394E0,8.442640305E0,1.825736761E0,2.230952263E0,8.921246439E0
2.349004394E0,9.557363510E0,2.386536598E0,2.858891010E0,1.025729068E1
2.359004394E0,1.009459305E1,2.857458115E0,2.264986992E0,1.073294190E1
2.369004394E0,1.064417648E1,3.243520737E0,6.983728409E-1,1.114928896E1
2.379004394E0,1.059157944E1,3.565928221E0,-7.326602936E-3,1.117575289E1
2.389004894E0,9.956101418E0,3.471872330E0,-1.095471382E-1,1.054465995E1
2.399004894E0,9.595748901E0,3.431813240E0,7.991170883E-2,1.019127691E1
2.409004894E0,9.066421509E0,3.653702974E0,-2.135486603E-1,9.777277097E0
2.419004894E0,8.736855507E0,3.854209661E0,-3.852720261E-1,9.556987538E0
2.429004894E0,8.445423126E0,3.716236115E0,-5.154733658E-1,9.241282131E0
2.439005260E0,8.360477448E0,3.756768703E0,-3.704614639E-1,9.173229308E0
2.449005260E0,8.385362625E0,3.233279467E0,2.126994133E-1,8.989640900E0
2.459005260E0,8.393536568E0,3.342576265E0,1.874713898E-1,9.036560060E0
2.469005260E0,7.694611549E0,2.746878386E0,1.613560200E0,8.328022831E0
2.479005260E0,7.288363457E0,2.550241947E0,2.243506908E0,8.040976254E0
2.489005260E0,6.185613632E0,2.017312050E0,3.426163197E0,7.353227738E0
2.499005260E0,5.770755291E0,1.621899605E0,3.721490383E0,7.055612350E0
2.509005260E0,4.893307686E0,1.034573913E0,2.995072842E0,5.829688209E0
2.519005260E0,4.568445683E0,1.126880765E0,2.220881462E0,5.203159682E0
2.529005260E0,4.013309002E0,8.040845990E-1,1.033470631E0,4.221523745E0
2.539005260E0,4.163819313E0,7.692298889E-1,7.984828949E-1,4.308907150E0
2.549005260E0,4.973185539E0,9.018482566E-1,4.619112015E-1,5.075358770E0
2.559005260E0,5.084729195E0,9.452944398E-1,4.369239807E-1,5.190275053E0
2.569005260E0,4.886516571E0,9.450846910E-1,5.559635162E-1,5.008026029E0
2.579005260E0,4.724211216E0,1.090932846E0,3.927001953E-1,4.864413586E0
2.589005260E0,5.079778671E0,1.533648968E0,5.146999359E-1,5.331148706E0
2.599005260E0,5.276145935E0,1.612136126E0,5.229482651E-1,5.541676073E0
2.609005260E0,5.014160633E0,1.479523540E0,7.720909119E-1,5.284592807E0
2.619005260E0,4.621009350E0,1.351677179E0,7.349147797E-1,4.870406384E0
2.629005260E0,3.589576006E0,9.920246601E-1,5.539388657E-1,3.765105191E0
2.639005760E0,3.238726616E0,8.123334050E-1,2.663860321E-1,3.349656277E0
2.649005760E0,3.616470098E0,7.397641540E-1,-3.900823593E-1,3.711909377E0
2.659005760E0,3.706042767E0,9.825679064E-1,-6.609525681E-1,3.890636320E0
2.669005760E0,3.790876865E0,1.334724545E0,-9.235939980E-1,4.123743796E0
2.679005760E0,4.046677113E0,1.836199760E0,-8.284831047E-1,4.520355016E0
2.689005260E0,4.855313301E0,2.567107201E0,-3.594083786E-1,5.503933231E0
2.699005260E0,5.548776150E0,3.185317516E0,-3.347673416E-1,6.406811501E0
2.709005260E0,6.839374542E0,3.727094889E0,-4.945001602E-1,7.804665966E0
2.719005260E0,7.342222214E0,3.859978437E0,-3.977556229E-1,8.304569231E0
2.729005260E0,7.582152367E0,3.627008200E0,-6.354236603E-2,8.405251967E0
2.739004760E0,7.147575378E0,3.521975040E0,1.398229599E-1,7.969422340E0
2.749004760E0,6.061210632E0,3.139258862E0,6.033191681E-1,6.852533440E0
2.759004760E0,5.394567966E0,2.991519213E0,7.227106094E-1,6.210705384E0
2.769004760E0,4.670790672E0,2.884317636E0,6.667098999E-1,5.529925481E0
2.779004760E0,4.360577583E0,3.054051876E0,6.780385971E-1,5.366712780E0
2.789004760E0,4.306011677E0,3.390995502E0,1.182327271E0,5.607003195E0
2.799004760E0,4.111380577E0,3.657327890E0,1.502877235E0,5.704221028E0
2.809004326E0,3.716555595E0,3.830376625E0,2.185439110E0,5.767210304E0
2.819004326E0,3.174310684E0,3.785672665E0,2.474888802E0,5.525634844E0
2.829004326E0,1.169092894E0,3.509057760E0,3.071895599E0,4.807994086E0
2.839004326E0,1.962676048E-1,3.608101368E0,3.192865372E0,4.821960777E0
2.849004326E0,-1.384614468E0,3.903040409E0,3.487583160E0,5.414251376E0
2.859004326E0,-2.010547400E0,3.975962877E0,3.669237137E0,5.771817982E0
2.869004326E0,-2.440204620E0,4.114829063E0,3.650724411E0,6.017823987E0
2.879004326E0,-1.995233417E0,4.272128105E0,3.215845108E0,5.707336918E0
2.889004826E0,-9.105865955E-1,4.529153347E0,2.394836426E0,5.203617924E0
2.899004826E0,-6.471383572E-1,4.493454456E0,2.043438911E0,4.978510178E0
2.909004826E0,-7.794440389E-1,4.401175022E0,2.032588959E0,4.910121430E0
2.919004826E0,-7.745619416E-1,4.444164753E0,2.188478470E0,5.013978916E0
2.929004826E0,-9.991806746E-1,4.567748070E0,2.930389404E0,5.518139769E0
2.939004326E0,-1.553171515E0,4.698738575E0,3.150858879E0,5.866719495E0
2.949004326E0,-2.391341686E0,4.865730762E0,3.766982079E0,6.601818302E0
2.959004326E0,-2.662971497E0,4.849061012E0,3.976671219E0,6.813128788E0
2.969004326E0,-2.862121344E0,4.767341614E0,3.656735420E0,6.655148276E0
2.979004326E0,-2.762755394E0,4.553136349E0,3.020632744E0,6.122751845E0
2.989004326E0,-2.080451250E0,4.236829758E0,1.676029205E0,5.008800026E0
2.999004326E0,-1.938151836E0,4.080325127E0,1.299145699E0,4.700347352E0
3.009004326E0,-2.703872204E0,4.455758572E0,2.483304024E0,5.773344630E0
3.019004326E0,-3.300407171E0,4.753956318E0,4.801372528E0,7.519705202E0
3.029004326E0,-3.852027178E0,5.309138775E0,8.706681252E0,1.090098006E1
3.039004326E0,-4.183945656E0,5.309422493E0,9.203356743E0,1.141915688E1
3.049004326E0,-4.830899239E0,5.029661179E0,7.864838600E0,1.051145876E1
3.059004326E0,-5.064163208E0,4.733850002E0,6.548958778E0,9.536453530E0
3.069004326E0,-5.858501434E0,4.179584980E0,3.427224159E0,7.970999630E0
3.079004326E0,-6.310546398E0,3.733837128E0,2.398120880E0,7.714630211E0
3.089004326E0,-7.234201431E0,2.977296591E0,1.950708389E0,8.062457972E0
3.099004326E0,-8.125406265E0,2.706501722E0,2.231028557E0,8.850133726E0
3.109004759E0,-9.082248688E0,2.764323711E0,2.872337341E0,9.918621306E0
3.119004759E0,-9.217050552E0,2.992257357E0,3.035799026E0,1.015498403E1
3.129004759E0,-8.594866753E0,3.711979151E0,2.808076859E0,9.774242649E0
3.139005225E0,-7.816462994E0,3.960884571E0,2.424768448E0,9.092040604E0
3.149005225E0,-6.553317547E0,4.419903755E0,2.158277512E0,8.193880759E0
3.159005225E0,-5.706276894E0,4.785008907E0,2.278526306E0,7.787784560E0
3.169005225E0,-4.581972122E0,5.286046982E0,3.239812851E0,7.709289755E0
3.179005225E0,-3.934754133E0,5.203878880E0,3.696836472E0,7.498616231E0
3.189004725E0,-3.216195107E0,4.758785725E0,3.409504890E0,6.679421841E0
3.199004725E0,-3.184634209E0,4.556472778E0,2.540153503E0,6.111932513E0
3.209004725E0,-3.576704979E0,4.278670788E0,8.919277191E-1,5.647599249E0
3.219004725E0,-4.006373882E0,4.031645298E0,2.178220749E-1,5.687938286E0
3.229004725E0,-4.911104202E0,3.441000462E0,-1.167249680E-1,5.997754028E0
3.239004725E0,-4.954350948E0,3.222365856E0,-8.190822601E-2,5.910663583E0
3.249004725E0,-4.676158428E0,3.015309572E0,-4.677915573E-1,5.583670693E0
3.259004725E0,-4.531959534E0,3.205136299E0,-4.688482285E-1,5.570581170E0
3.269004725E0,-3.900251389E0,3.609090328E0,1.880273819E-1,5.317221849E0
3.279004725E0,-3.491709948E0,3.765275002E0,7.108507156E-1,5.184075900E0
3.289004725E0,-2.682046413E0,3.900650501E0,1.397039413E0,4.935601931E0
3.299004725E0,-2.183876753E0,4.053960323E0,1.668855667E0,4.897855777E0
3.309004725E0,-1.259080052E0,4.166786194E0,1.823586464E0,4.719412819E0
3.319004725E0,-9.051222205E-1,4.105175495E0,1.712038994E0,4.539029588E0
3.329004725E0,-5.019529462E-1,3.785429955E0,1.286581039E0,4.029482283E0
3.339004725E0,-5.178657770E-1,3.510600567E0,1.045758247E0,3.699474505E0
3.349004725E0,-7.295729518E-1,3.266837120E0,6.191225052E-1,3.404087857E0
3.359005191E0,-8.984333873E-1,3.214795589E0,8.001470566E-1,3.432539664E0
3.369005191E0,-7.466257215E-1,3.309032917E0,1.338395119E0,3.646704033E0
3.379005191E0,-6.344155073E-1,3.207822323E0,1.289143562E0,3.514896615E0
3.389005691E0,-7.999444008E-1,2.855205536E0,7.767963409E-1,3.065211616E0
3.399005691E0,-1.018626690E0,2.522491217E0,2.626581192E-1,2.733048035E0
3.409005691E0,-1.601506591E0,2.032121658E0,-7.311410904E-1,2.688663067E0
3.419005691E0,-1.814233661E0,1.907300115E0,-9.838352203E-1,2.810190250E0
3.429005691E0,-2.056991339E0,1.842074394E0,-8.029747009E-1,2.875625117E0
3.439005224E0,-2.177520752E0,1.794014692E0,-5.875062943E-1,2.881882889E0
3.449005224E0,-2.500677109E0,1.676794648E0,-2.498340607E-1,3.021165893E0
3.459005224E0,-2.552473068E0,1.638394237E0,-3.972721100E-1,3.058967075E0
3.469005724E0,-2.649502277E0,1.809098363E0,-7.295761108E-1,3.290133813E0
3.479005724E0,-2.579230309E0,1.790012479E0,-8.369913101E-1,3.249173451E0
3.489005724E0,-2.229244232E0,1.555205345E0,-9.272365570E-1,2.871926382E0
3.499005724E0,-1.999625683E0,1.498052120E0,-1.091134071E0,2.726396264E0
3.509005724E0,-1.391063571E0,1.558599710E0,-1.486927032E0,2.564223648E0
3.519006190E0,-9.867150784E-1,1.556638598E0,-1.834345341E0,2.600298675E0
3.529006190E0,-5.354369879E-1,1.708414912E0,-1.994005680E0,2.679819571E0
3.539006190E0,-5.191110373E-1,1.807549953E0,-1.629687309E0,2.488492280E0
3.549006190E0,-9.617472887E-1,1.938199997E0,-8.425626755E-1,2.321957997E0
3.559006190E0,-1.298207521E0,2.019968271E0,-5.308790207E-1,2.459155774E0
3.569006190E0,-1.845261574E0,2.025215149E0,-8.912086487E-3,2.739811326E0
3.579006190E0,-1.797995090E0,2.024513245E0,-1.497268677E-2,2.707704638E0
3.589006190E0,-1.903276682E0,1.727507591E0,-1.016635895E-1,2.572368576E0
3.599006190E0,-1.506981254E0,1.649338841E0,-4.005746841E-1,2.269751350E0
3.609006190E0,-1.016114950E0,1.789924026E0,-9.538812637E-1,2.268525308E0
3.619006190E0,-9.092076421E-1,1.840649366E0,-1.125988007E0,2.341473386E0
3.629006190E0,-7.751808167E-1,1.844627500E0,-1.071751595E0,2.269847438E0
3.639006656E0,-7.442577481E-1,1.816153407E0,-8.795156479E-1,2.150786035E0
3.649006656E0,-5.575526953E-1,2.095469952E0,-6.647510529E-1,2.267984411E0
3.659006189E0,-5.099736452E-1,2.346226931E0,-5.863275528E-1,2.471565077E0
3.669006189E0,-4.979081750E-1,2.610904694E0,-7.581872940E-1,2.763979711E0
3.679006189E0,-4.602810144E-1,2.528025627E0,-1.105873108E0,2.797450181E0
3.689005689E0,-6.277375221E-1,1.131407142E0,-2.200955391E0,2.553104218E0
3.699005689E0,-8.746994138E-1,2.634954453E-1,-2.557577610E0,2.715829918E0
3.709005689E0,-2.353767157E0,-5.014560223E-1,-2.550270557E0,3.506502230E0
3.719005689E0,-3.394155025E0,-3.340603113E-1,-1.850660324E0,3.880312908E0
3.729005689E0,-4.573706627E0,2.674361467E-1,5.420885086E-1,4.613477469E0
3.739005689E0,-4.362550735E0,6.627670527E-1,1.677788734E0,4.720813926E0
3.749005689E0,-2.663649082E0,1.491023421E0,2.793336868E0,4.137741913E0
3.759005689E0,-1.441015720E0,1.767481446E0,2.701654434E0,3.535456640E0
3.769005189E0,1.182796597E0,2.380443096E0,2.098146439E0,3.386404524E0
3.779005189E0,2.486440659E0,2.676336288E0,1.438032150E0,3.925952056E0
3.789005189E0,3.325234413E0,2.656985760E0,-1.290035248E-2,4.256397966E0
3.799005189E0,3.140000343E0,2.326956272E0,-7.221794128E-1,3.974401936E0
3.809005189E0,1.780032039E0,1.570198536E0,-1.289657593E0,2.701343038E0
3.819004722E0,1.088384032E0,1.466797471E0,-1.205018997E0,2.188183129E0
3.829004722E0,4.130529761E-1,1.646150351E0,-6.624832153E-1,1.821896745E0
3.839004722E0,3.910472095E-1,1.793832421E0,-4.362010956E-2,1.836479074E0
3.849004722E0,8.515914679E-1,1.832974553E0,2.872352600E-1,2.041447485E0
3.859004722E0,1.489546657E0,1.874638677E0,6.959342957E-2,2.395383613E0
3.869004722E0,2.480268002E0,1.749397159E0,-3.201017380E-1,3.051980488E0
3.879005222E0,2.864979267E0,1.682743788E0,-4.910860062E-1,3.358704858E0
3.889005688E0,3.622075081E0,1.939882040E0,-5.028629303E-1,4.139497717E0
3.899005688E0,3.610250235E0,2.272575378E0,-2.646064758E-1,4.274169182E0
3.909006021E0,3.498627663E0,2.853233814E0,5.513257980E-1,4.548109372E0
3.919663411E0,3.349945545E0,3.224713802E0,1.335206985E0,4.837736243E0
3.929663411E0,2.478845119E0,3.364294529E0,2.130297661E0,4.690556356E0
3.939662944E0,1.631639242E0,3.049375534E0,2.228264809E0,4.114134395E0
3.949662944E0,7.135858536E-1,2.537424088E0,1.837475777E0,3.213104885E0
3.959662944E0,5.372588634E-1,2.394253492E0,1.496084213E0,2.873911071E0
3.969662944E0,3.091193438E-1,2.010003567E0,6.255044937E-1,2.127657157E0
3.979662944E0,4.612390995E-1,1.860946774E0,4.647016525E-1,1.972767607E0
3.989662944E0,6.551830173E-1,1.545300722E0,6.176815033E-1,1.788504836E0
3.999662944E0,1.007877588E0,1.570221543E0,5.292682648E-1,1.939468439E0
4.009662944E0,2.090744257E0,1.848886490E0,-2.183284760E-1,2.799510694E0
4.019663410E0,2.701966763E0,2.077787876E0,-6.375703812E-1,3.467610537E0
4.029663410E0,3.254990101E0,2.362198353E0,-1.302010536E0,4.227312746E0
4.039663410E0,3.604546785E0,2.379309654E0,-1.089045525E0,4.454199380E0
4.049663410E0,3.685014725E0,2.381651878E0,-1.074893951E0,4.517410342E0
4.059663410E0,3.052965164E0,1.931826472E0,-1.086864471E-1,3.614465736E0
4.069663410E0,2.555701017E0,1.975468516E0,1.571197510E-1,3.234002190E0
4.079663410E0,2.381762505E0,2.103169918E0,2.483787537E-1,3.187131679E0
4.089663410E0,2.450395346E0,2.118080139E0,2.647666931E-1,3.249738794E0
4.099663410E0,2.988770723E0,1.966883421E0,1.244742393E0,3.788240285E0
4.109663410E0,3.406566620E0,2.155691147E0,1.017648697E0,4.157801021E0
4.119663410E0,3.582737446E0,2.122402191E0,5.638151169E-1,4.202200156E0
4.129663410E0,3.661591291E0,2.106274128E0,5.797290802E-1,4.263769142E0
4.139663476E0,3.426410913E0,1.593039274E0,2.283487320E-1,3.785526254E0
4.149663476E0,3.344604492E0,1.377272367E0,-1.098194122E-1,3.618745458E0
4.159663476E0,3.353495121E0,1.438592434E0,-1.940956116E-1,3.654196331E0
4.169663476E0,3.694059372E0,1.677467823E0,-8.842353821E-1,4.152330087E0
4.179662976E0,4.081278801E0,1.563915372E0,-1.637884140E0,4.667476020E0
4.189662509E0,4.358140945E0,1.682764769E0,-1.949115276E0,5.062029250E0
4.199662509E0,4.651678562E0,1.808875084E0,-1.562346935E0,5.229825089E0
4.209662175E0,4.503947735E0,1.737038255E0,-3.914871216E-1,4.843150758E0
4.219662175E0,4.185550213E0,1.679991245E0,6.365108490E-2,4.510571209E0
4.229662175E0,3.732711315E0,1.733745813E0,4.664211273E-1,4.142047438E0
4.239662175E0,3.468174934E0,1.686740398E0,3.996591568E-1,3.877248765E0
4.249662175E0,3.401101828E0,2.117206097E0,-1.098060608E-1,4.007756563E0
4.259662175E0,3.877436638E0,2.021642923E0,-4.111967087E-1,4.392110851E0
4.269662175E0,5.222555637E0,2.202651024E0,-1.077194214E-1,5.669070682E0
4.279662175E0,5.873438835E0,2.038029194E0,4.713277817E-1,6.234821298E0
4.289662175E0,5.934947968E0,2.012494087E0,4.926500320E-1,6.286210614E0
4.299662175E0,6.577879906E0,1.988140345E0,1.240677834E0,6.982871012E0
4.309662175E0,6.837034225E0,2.249618530E0,1.264626503E0,7.307879359E0
4.319661708E0,7.020489693E0,2.896292686E0,5.486307144E-1,7.614248650E0
4.329661708E0,6.822244644E0,2.373286724E0,-4.477157593E-1,7.237123825E0
4.339661708E0,6.334967613E0,2.150625467E0,-4.741630554E-1,6.706849869E0
4.349661708E0,6.471075058E0,2.168449640E0,-4.051790237E-1,6.836750419E0
4.359661708E0,5.396970272E0,1.622749209E0,7.566738129E-1,5.686225319E0
4.369661708E0,4.950712681E0,1.256241679E0,4.432754517E-1,5.126811127E0
4.379662208E0,5.196606159E0,1.502065659E0,7.251768112E-1,5.457728303E0
4.389662674E0,6.013232231E0,1.645190597E0,1.368237495E0,6.382608229E0
4.399662674E0,6.561752319E0,1.915573835E0,1.740050316E0,7.053636773E0
4.409662674E0,7.063744545E0,2.982336998E0,1.294134140E0,7.775963229E0
4.419662674E0,7.004575253E0,2.987075567E0,6.367759705E-1,7.641477511E0
4.429662674E0,7.369153976E0,2.102045059E0,-7.041993141E-1,7.695383060E0
4.439662607E0,7.031878471E0,1.806265116E0,-9.263734818E-1,7.319021542E0
4.449662607E0,4.466591358E0,6.246425509E-1,4.740715027E-3,4.510059773E0
4.459629273E0,3.268726110E0,-1.729692221E-1,7.791833878E-1,3.364760837E0
4.469595939E0,2.146806479E0,-9.331084490E-1,1.121497154E0,2.595616555E0
4.479562605E0,2.390894175E0,-9.010298252E-1,9.166793823E-1,2.714503783E0
4.489529271E0,2.999909639E0,-4.336203337E-1,9.949445724E-1,3.190203621E0
4.499496404E0,3.493041754E0,-4.051408768E-1,1.027310371E0,3.663447341E0
4.509463070E0,3.529642820E0,-4.591407180E-1,1.046386719E0,3.710001860E0
4.519429736E0,5.267222404E0,-1.685810089E-2,2.656679153E-1,5.273944965E0
4.529396402E0,5.819635391E0,8.565131426E-1,1.309491634E0,6.026320535E0
4.539363068E0,5.344934464E0,1.039818048E0,2.267473698E0,5.898388166E0
4.549329734E0,4.423799992E0,9.980027080E-1,4.586263657E0,6.449793028E0
4.559296400E0,4.036994934E0,9.854644537E-1,5.510113239E0,6.901435807E0
4.569263066E0,4.162753105E0,8.947034478E-1,5.287115097E0,6.788416142E0
4.579229732E0,4.609904289E0,1.024716854E0,4.004001617E0,6.191388466E0
4.589196398E0,4.765810490E0,1.458008766E0,2.034180641E0,5.382994526E0
4.599163064E0,4.839309216E0,1.611502051E0,1.102519989E0,5.218371669E0
4.609130197E0,5.166096210E0,2.614672422E0,5.970344543E-1,5.820782771E0
4.619096863E0,5.309597492E0,2.793713093E0,1.095497131E0,6.098915669E0
4.629063529E0,5.270581722E0,2.886288166E0,1.937146187E0,6.313653967E0
4.639030195E0,5.066868305E0,2.985243320E0,2.423747063E0,6.360768973E0
4.648996861E0,4.231691837E0,2.422247887E0,4.051412582E0,6.339435664E0
4.658963527E0,3.743899822E0,1.734771729E0,4.779031754E0,6.313902385E0
4.668930193E0,3.316684246E0,1.369729161E0,4.634799004E0,5.861562434E0
4.678896359E0,3.912735939E0,2.008589268E0,3.653008461E0,5.717377388E0
4.688862559E0,5.694519997E0,2.666109800E0,3.413650513E0,7.154628522E0
4.698829225E0,5.960869789E0,3.397700071E0,3.292592049E0,7.610354579E0
4.708795891E0,5.600277424E0,4.221377373E0,2.927837372E0,7.599695114E0
4.718762557E0,5.341690063E0,4.622198582E0,2.664163589E0,7.549578802E0
4.728729223E0,5.013683796E0,4.631046295E0,2.464461327E0,7.256527036E0
4.738695889E0,4.727265835E0,4.252302170E0,2.442212105E0,6.811278586E0
4.748663022E0,4.111237049E0,3.668896675E0,2.633847237E0,6.107390945E0
4.758663022E0,4.260996819E0,3.348282576E0,2.839334488E0,6.117917164E0
4.768663022E0,4.832509518E0,3.397458792E0,3.211149216E0,6.723641407E0
4.778663022E0,5.629874229E0,3.727906227E0,3.209374428E0,7.476152279E0
4.788663022E0,6.617812157E0,4.380486488E0,2.891921997E0,8.446733833E0
4.798662555E0,7.060826302E0,4.735606670E0,2.850868225E0,8.967089173E0
4.808662555E0,6.877333164E0,4.977844715E0,3.051840782E0,9.021661799E0
4.818662555E0,6.193917274E0,4.750428200E0,3.408216476E0,8.517459647E0
4.828662555E0,4.368275166E0,3.719283104E0,3.402042866E0,6.669991783E0
4.838662555E0,3.520724058E0,3.211697817E0,2.887755394E0,5.572219663E0
4.848662555E0,2.605134010E0,2.665288448E0,1.661093712E0,4.080406603E0
4.858663021E0,2.392151833E0,2.759359598E0,1.327870846E0,3.885832828E0
4.868663021E0,3.342104673E0,3.429908752E0,2.204113007E0,5.271816750E0
4.878663021E0,4.718646049E0,4.182009697E0,3.445824146E0,7.185299555E0
4.888663021E0,7.075936317E0,5.477280617E0,5.224017620E0,1.036145925E1
4.898663021E0,8.144941330E0,6.014493942E0,5.457176208E0,1.150195543E1
4.908662554E0,8.732378006E0,6.353904724E0,4.766181946E0,1.180436450E1
4.918662554E0,8.406788826E0,5.950615883E0,4.485737801E0,1.123413421E1
4.928662554E0,6.723091125E0,5.153497696E0,3.954504013E0,9.348614591E0
4.938662554E0,6.149247646E0,4.973033428E0,3.782299042E0,8.766418547E0
4.948662554E0,5.073268414E0,3.875413895E0,2.842728615E0,6.988418364E0
4.958662554E0,4.532315254E0,3.437049627E0,1.959193230E0,6.016114179E0
4.968662554E0,4.016589642E0,3.010014057E0,2.081575394E-1,5.023594981E0
4.978662554E0,4.093781948E0,2.961255074E0,-5.180320740E-1,5.079019539E0
4.988662554E0,4.364833832E0,3.207376957E0,-8.708066940E-1,5.486104777E0
4.998663020E0,4.422685146E0,3.275739193E0,-4.427413940E-1,5.521470013E0
5.008663020E0,4.073272228E0,3.165313244E0,6.172113419E-1,5.195354119E0
5.018663020E0,3.653386354E0,3.200576782E0,8.574905396E-1,4.932161151E0
5.028663020E0,3.235124588E0,3.263726711E0,7.539672852E-1,4.656866952E0
5.038663020E0,3.121368885E0,3.352711678E0,7.072610855E-1,4.635066079E0
5.048662553E0,2.550120354E0,3.414299965E0,1.329221725E-1,4.263593129E0
5.058662553E0,1.905075312E0,3.726940155E0,-1.929521561E-1,4.190062696E0
5.068662553E0,1.149469376E0,4.465967655E0,-6.572327614E-1,4.658122137E0
5.078662553E0,1.841156244E0,4.265893459E0,-1.092185497E0,4.772899798E0
5.088662553E0,3.970785618E0,5.273749828E0,-1.203160286E0,6.710228785E0
5.098662553E0,4.269251347E0,5.598094463E0,-4.601421356E-1,7.055274585E0
5.108663019E0,4.088815212E0,5.498417854E0,2.090551376E0,7.163896551E0
5.118663019E0,3.631146431E0,5.448381424E0,3.617560387E0,7.480429646E0
5.128663019E0,2.553993225E0,4.921895981E0,5.132115364E0,7.555564145E0
5.138663019E0,1.656181216E0,4.615628242E0,4.854257584E0,6.900056303E0
5.148663019E0,2.079634666E-1,4.118369102E0,3.430887222E0,5.364252045E0
5.158662552E0,-5.487806797E-1,3.965088844E0,2.359889984E0,4.646737621E0
5.168662552E0,-1.446587801E0,3.504128933E0,9.722700119E-1,3.913674082E0
5.178662552E0,-7.040119171E-1,3.779486895E0,8.528614044E-1,3.937959693E0
5.188662552E0,2.236659288E0,4.880892754E0,7.864589691E-1,5.426258062E0
5.198662552E0,3.794524670E0,5.299634933E0,1.138218880E0,6.616652486E0
5.208662552E0,3.898871660E0,5.994670868E0,2.636890411E0,7.621710443E0
5.218662552E0,3.472799301E0,5.666178226E0,3.299328804E0,7.419668540E0
5.228662552E0,1.897100091E0,4.766027451E0,3.498178482E0,6.208966026E0
5.238662552E0,4.595552683E-1,4.387784004E0,3.082082748E0,5.381735183E0
5.248663018E0,-2.190474510E0,3.941770554E0,1.560376167E0,4.771845289E0
5.258663018E0,-3.492502451E0,3.513013840E0,6.056098938E-1,4.990551367E0
5.268663018E0,-3.757335186E0,2.629732847E0,-1.790957451E0,4.923473483E0
5.278663018E0,-1.972010732E0,2.906360388E0,-2.351794720E0,4.226901399E0
5.288663018E0,3.148664474E0,5.267056465E0,-3.149143219E0,6.897323741E0
5.298662551E0,4.313857555E0,6.403751373E0,-2.805055141E0,8.214970055E0
5.308662551E0,4.066318989E0,6.387331963E0,3.830718994E-2,7.571950024E0
5.318662551E0,2.919520378E0,5.852312088E0,1.607154846E0,6.734693958E0
5.328662551E0,-1.286255717E-1,4.810049534E0,3.922245979E0,6.207828491E0
5.338662551E0,-1.753369927E0,4.576966286E0,4.640352249E0,6.749503351E0
5.348662551E0,-5.049793243E0,4.443740368E0,4.943591118E0,8.347834054E0
5.358663017E0,-6.574795723E0,4.373407841E0,4.666221619E0,9.172145830E0
5.368663017E0,-7.756793976E0,4.231696606E0,4.218364716E0,9.791307871E0
5.378663017E0,-6.824640274E0,3.870355606E0,3.559859276E0,8.615565301E0
5.388663017E0,-1.515111923E0,3.363915682E0,-1.362209320E-1,3.691889624E0
5.398663017E0,1.904901862E0,4.277068138E0,-2.915522099E0,5.515635237E0
5.408662550E0,4.228069782E0,6.069208145E0,-5.282485008E0,9.089362434E0
5.418662550E0,3.537779331E0,6.032103062E0,-4.556796551E0,8.346648714E0
5.428662550E0,6.572272182E-1,4.924611092E0,-1.927095413E0,5.328924728E0
5.438662550E0,-8.219040036E-1,4.374248505E0,-6.797571182E-1,4.502404459E0
5.448662550E0,-2.635576248E0,4.117966175E0,7.586927414E-1,4.947678471E0
5.458662550E0,-3.327824593E0,4.357553482E0,1.098451614E0,5.591894564E0
5.468662550E0,-3.315695763E0,4.806849480E0,1.440217972E0,6.014471558E0
5.478662550E0,-3.149247646E0,4.950527668E0,1.607148170E0,6.083453803E0
5.488662550E0,-2.745125294E0,4.813410282E0,1.407773018E0,5.717207036E0
5.498663016E0,-2.171284199E0,4.559314251E0,7.181158066E-1,5.100736400E0
5.508663016E0,-6.033943892E-1,4.517579556E0,-9.093055725E-1,4.647520463E0
5.518663016E0,-3.429689407E-1,4.828197479E0,-1.411629677E0,5.042005250E0
5.528663016E0,-1.945908785E0,4.263448715E0,-7.110004425E-1,4.740155860E0
5.538663016E0,-3.083385944E0,3.696905613E0,2.700042725E-1,4.821543560E0
5.548662549E0,-4.732269287E0,3.318697691E0,1.414509773E0,5.950543241E0
5.558662549E0,-5.310589314E0,3.446571350E0,1.915943146E0,6.614533322E0
5.568662549E0,-5.298323631E0,3.358607054E0,2.184901237E0,6.642760575E0
5.578662549E0,-5.064271450E0,3.414770603E0,1.938145638E0,6.408112991E0
5.588662549E0,-4.380970001E0,3.618160725E0,1.373545647E0,5.845563516E0
5.598629215E0,-4.147454739E0,3.614626169E0,1.199872971E0,5.630861239E0
5.608595881E0,-3.267797470E0,3.650361061E0,1.266488075E0,5.060398030E0
5.618562547E0,-2.482986450E0,3.762783527E0,1.576031685E0,4.775734232E0
5.628529213E0,-1.051771045E0,4.110078335E0,1.233654022E0,4.418242693E0
5.638495879E0,-7.811113000E-1,4.266332626E0,1.100999832E0,4.474810563E0
5.648462545E0,-7.711902857E-1,4.241009712E0,1.097400665E0,4.448054188E0
5.658428745E0,-1.892489433E0,3.556752682E0,1.135071754E0,4.185736946E0
5.668395411E0,-3.418261528E0,2.752577782E0,9.555206299E-1,4.491571662E0
5.678362077E0,-4.289409637E0,2.317134380E0,6.135253906E-1,4.913711446E0
5.688328743E0,-5.013818264E0,1.855572462E0,-5.191898346E-2,5.346421077E0
5.698295409E0,-5.087296486E0,1.665848970E0,-3.928232193E-1,5.367489954E0
5.708262075E0,-4.803783417E0,1.724044085E0,-5.767717361E-1,5.136275767E0
5.718228808E0,-4.101518631E0,1.957131386E0,1.601924896E-1,4.547359671E0
5.728195474E0,-3.313036680E0,2.198239326E0,5.502061844E-1,4.013875313E0
5.738162140E0,-2.874184370E0,2.131919146E0,4.798450470E-1,3.610577004E0
5.748128806E0,-2.357172966E0,1.964887977E0,2.438631058E-1,3.078395421E0
5.758095472E0,-2.298274279E0,1.950072289E0,2.379674911E-1,3.023487244E0
5.768062138E0,-2.545303345E0,1.939151525E0,-3.037433624E-1,3.214208734E0
5.778028804E0,-2.634473562E0,1.915504217E0,-2.653636932E-1,3.268030790E0
5.787995470E0,-2.725390911E0,1.771602988E0,1.762800217E-1,3.255365941E0
5.797961670E0,-2.647223473E0,1.768119574E0,3.724613190E-1,3.205115657E0
5.807928336E0,-2.383163929E0,1.927423954E0,6.314315796E-1,3.129399184E0
5.817895002E0,-2.055304766E0,1.882301092E0,5.862760544E-1,2.847991344E0
5.827861935E0,-1.419630885E0,1.616473913E0,-7.607460022E-3,2.151371106E0
5.837828868E0,-1.373506784E0,1.493259907E0,-3.361940384E-1,2.056543816E0
5.847795534E0,-1.768921852E0,1.429693699E0,-7.391042709E-1,2.391523304E0
5.857762200E0,-2.002768993E0,1.249849558E0,-6.462078094E-1,2.447609465E0
5.867728866E0,-2.387015343E0,1.112531304E0,-2.751674652E-1,2.647883170E0
5.877695532E0,-2.451068401E0,1.071507931E0,-1.912755966E-1,2.681874700E0
5.887662198E0,-2.216653824E0,1.046517730E0,-2.248077393E-1,2.461562929E0
5.897662198E0,-1.956861258E0,1.091351867E0,-1.913604736E-1,2.248771600E0
5.907662198E0,-1.821098804E0,9.605071545E-1,-9.312438965E-2,2.060982048E0
5.917662198E0,-1.837207317E0,9.179390073E-1,-1.478128433E-1,2.059075371E0
5.927662198E0,-1.851888299E0,7.836999893E-1,-4.822769165E-1,2.067913676E0
5.937662198E0,-1.685946822E0,6.930074692E-1,-7.373456955E-1,1.966304838E0
5.947662198E0,-1.487277269E0,5.891857743E-1,-1.114175797E0,1.949492564E0
5.957662198E0,-1.486802459E0,5.946639776E-1,-1.074056625E0,1.928160894E0
5.967662664E0,-1.511701226E0,6.292386651E-1,-7.559185028E-1,1.803495128E0
5.977662664E0,-1.452945471E0,7.342530489E-1,-2.077579498E-1,1.641140289E0
5.987662664E0,-7.963969707E-1,9.852709174E-1,5.679473877E-1,1.388369962E0
5.997662664E0,-2.868459523E-1,1.211242080E0,7.211513519E-1,1.438557350E0
6.007662664E0,5.027576089E-1,1.472022891E0,4.768838882E-1,1.626971065E0
6.017662597E0,7.347312570E-1,1.414508343E0,1.057434082E-1,1.597449699E0
6.027662597E0,8.621508479E-1,1.024292350E0,-5.262365341E-1,1.438542246E0
6.037662597E0,5.954497457E-1,5.896058083E-1,-6.671142578E-1,1.071091425E0
6.047662597E0,-1.650376618E-1,1.347600222E-1,-1.102142334E0,1.122548626E0
6.057662597E0,-1.718799770E-1,-1.264634728E-2,-1.436226845E0,1.446530403E0
6.067662597E0,-2.170839459E-1,-2.383564413E-2,-1.822533607E0,1.835571390E0
6.077662863E0,-1.722585410E-1,-1.274156570E-2,-1.743921280E0,1.752454502E0
6.087662863E0,8.973897994E-2,6.680503488E-2,-1.425479889E0,1.429863249E0
6.097662863E0,2.818057835E-1,2.190706730E-1,-1.492071152E0,1.534171692E0
6.107662863E0,5.465514064E-1,4.166091979E-1,-1.447922707E0,1.602735732E0
6.117662863E0,6.542938352E-1,3.369949460E-1,-1.400938034E0,1.582495937E0
6.127662596E0,7.183423638E-1,3.180851936E-1,-1.396781921E0,1.602558479E0
6.137662329E0,7.461870313E-1,2.164735496E-1,-1.742160797E0,1.907558682E0
6.147662329E0,7.909711599E-1,1.976066232E-1,-1.738469124E0,1.920145476E0
6.157662329E0,-1.566092968E-1,-9.161353707E-1,-9.934253693E-1,1.360413339E0
6.167662329E0,-2.697173953E-1,-3.156540394E-1,-1.428640366E0,1.487749388E0
6.177662329E0,-3.629924059E-1,1.087670028E-1,-1.238442421E0,1.295119059E0
6.187662329E0,-2.431697249E-1,2.427886724E-1,-8.803739548E-1,9.450588103E-1
6.197662329E0,-1.906399727E-1,2.440830767E-1,-8.759164810E-1,9.290585715E-1
6.207662329E0,1.647435904E0,6.646226048E-1,-5.306806564E-1,1.854020017E0
6.217662795E0,2.263567924E0,9.986740351E-1,-3.383903503E-1,2.497117860E0
6.227662795E0,3.298116684E0,1.619482994E0,1.008253098E-1,3.675658386E0
6.237662795E0,3.582943916E0,1.844450951E0,1.337966919E-1,4.032045135E0
6.247662795E0,2.888622284E0,1.553449988E0,1.416606903E-1,3.282897092E0
6.257662795E0,2.215289593E0,1.286028385E0,3.181858063E-1,2.581204989E0
6.267662328E0,8.787569404E-1,9.476826191E-1,3.157749176E-1,1.330424709E0
6.277662328E0,5.255867839E-1,8.712897897E-1,-3.283119202E-2,1.018069375E0
6.287662328E0,4.519481659E-1,7.826958299E-1,-3.039999008E-1,9.535648098E-1
6.297662328E0,6.295745373E-1,8.918415904E-1,-1.109952927E-1,1.097299173E0
6.307662328E0,1.322049022E0,1.256555080E0,7.717285156E-1,1.980482059E0
6.317662328E0,1.764137268E0,1.350803614E0,1.146112442E0,2.500084885E0
6.327662594E0,2.861526728E0,1.459790468E0,1.439709663E0,3.520239671E0
6.337662594E0,3.385747910E0,1.495362401E0,1.335039139E0,3.934682594E0
6.347662594E0,3.792422771E0,1.681125164E0,1.024620056E0,4.272996437E0
6.357662594E0,3.847651482E0,1.653723955E0,9.851455688E-1,4.302294346E0
6.367662594E0,3.183019876E0,1.574625254E0,3.592786789E-1,3.569333466E0
6.377662327E0,2.736718655E0,1.306906700E0,-4.296779633E-2,3.033064514E0
6.387662327E0,1.812854886E0,7.034210563E-1,-5.386171341E-1,2.017759262E0
6.397662327E0,1.304606438E0,4.479314089E-1,-5.023488998E-1,1.467990096E0
6.407662327E0,5.789952278E-1,4.543697834E-2,2.074842453E-1,6.167249832E-1
6.417662327E0,6.375256777E-1,-1.580238342E-2,5.577211380E-1,8.471963012E-1
6.427662327E0,1.261420608E0,-4.558151960E-2,7.982349396E-1,1.493465314E0
6.437662327E0,1.754160404E0,-1.214448810E-1,8.850698471E-1,1.968546727E0
6.447662327E0,3.010068893E0,-1.773207784E-1,5.565719604E-1,3.066224021E0
6.457662327E0,3.630290985E0,-4.220962524E-2,6.582584381E-1,3.689728779E0
6.467662793E0,4.276509285E0,-2.320906520E-1,1.211523056E0,4.450863495E0
6.477662793E0,4.440713882E0,-2.775103450E-1,1.030954361E0,4.567255048E0
6.487662793E0,4.181196690E0,-3.115642071E-1,6.928930283E-1,4.249656311E0
6.497662793E0,3.930624008E0,-4.877901673E-1,6.728858948E-1,4.017526573E0
6.507662793E0,3.620526552E0,-8.697199821E-1,4.287099838E-1,3.748121878E0
6.517662326E0,3.655827761E0,-9.128321409E-1,4.441699982E-1,3.794156839E0
6.527662326E0,3.842821598E0,-9.524514079E-1,5.205936432E-1,3.993176588E0
6.537662326E0,4.516309738E0,-8.823239803E-1,1.111041069E0,4.733916087E0
6.547662326E0,4.489325523E0,-1.026831746E0,8.819131851E-1,4.688944226E0
6.557662326E0,4.435885429E0,-1.347902536E0,8.196582794E-1,4.708052728E0
6.567662326E0,4.498078823E0,-1.607134581E0,6.731529236E-1,4.823767150E0
6.577662592E0,4.222316742E0,-2.023705006E0,3.853445053E-1,4.698066731E0
6.587662592E0,4.694179535E0,-2.406500340E0,-4.354124069E-1,5.293028373E0
6.597662592E0,5.143967152E0,-2.141492367E0,-8.005151749E-1,5.629139558E0
6.607662592E0,5.927795410E0,-1.478015065E0,-2.342643738E-1,6.113768621E0
6.617662592E0,6.445453644E0,-1.357519269E0,3.981628418E-1,6.598883609E0
6.627662325E0,6.784304619E0,-1.050119400E0,1.163885117E0,6.963057409E0
6.637662325E0,6.661542892E0,-9.800813198E-1,1.336449623E0,6.864605648E0
6.647662325E0,6.307509422E0,-1.536273837E0,1.169355392E0,6.596378131E0
6.657662325E0,6.155426979E0,-1.681154728E0,7.486629486E-1,6.424644638E0
6.667662325E0,5.702042103E0,-1.723163605E0,-3.308410645E-1,5.965905863E0
6.677662325E0,5.533663750E0,-1.784585238E0,-7.473535538E-1,5.862142637E0
6.687662325E0,5.863381386E0,-1.685282946E0,-7.045068741E-1,6.141314991E0
6.697662325E0,6.705312729E0,-1.422150850E0,-4.110260010E-1,6.866780483E0
6.707662325E0,8.002368927E0,-9.736919403E-1,1.632156372E-1,8.063040604E0
6.717662791E0,8.096907616E0,-9.101877213E-1,5.084371567E-1,8.163752995E0
6.727662791E0,7.558219910E0,-8.063123226E-1,1.293522835E0,7.710384497E0
6.737662791E0,7.065605164E0,-9.038537741E-1,1.432849884E0,7.265864488E0
6.747662791E0,6.170777321E0,-1.384037733E0,9.386491776E-1,6.393364957E0
6.757662791E0,5.801418304E0,-1.747587562E0,2.578344345E-1,6.064403946E0
6.767662324E0,6.469636917E0,-1.773847818E0,-3.485107422E-1,6.717454701E0
6.777662324E0,7.553218842E0,-1.104498386E0,8.862447739E-1,7.684820190E0
6.787662324E0,8.277623177E0,-5.644985437E-1,3.155546188E0,8.876664678E0
6.797662324E0,8.469105721E0,-5.313462019E-1,3.500747681E0,9.179505151E0
6.807662324E0,8.481678963E0,-7.908240557E-1,2.256078720E0,8.812160456E0
6.817662324E0,8.192603111E0,-1.114720345E0,9.575281143E-1,8.323353127E0
6.827662590E0,7.719425201E0,-1.372795105E0,-2.036695480E-1,7.843186414E0
6.837662590E0,7.572199821E0,-1.441897631E0,4.976558685E-2,7.708421079E0
6.847662590E0,7.227627754E0,-1.749056101E0,4.586725235E-1,7.450381244E0
6.857662590E0,6.776067734E0,-1.775886059E0,3.021745682E-1,7.011431715E0
6.867662590E0,6.055885315E0,-1.920546651E0,-5.351696014E-1,6.375629607E0
6.877662323E0,6.159688950E0,-1.673211813E0,-5.165281296E-1,6.403765067E0
6.887662323E0,7.582746506E0,-6.815446615E-1,9.314575195E-1,7.670082190E0
6.897662323E0,8.397350311E0,2.768206596E-2,1.753554344E0,8.578532006E0
6.907662323E0,8.873313904E0,9.988341331E-1,2.304443359E0,9.221921083E0
6.917662323E0,8.766450882E0,1.377350330E0,2.011111259E0,9.099028712E0
6.927662323E0,8.466958046E0,1.811737776E0,1.721290588E0,8.828058315E0
6.937662323E0,8.615415573E0,2.140585661E0,1.661258698E0,9.031460177E0
6.947662323E0,8.441743851E0,2.698096275E0,1.695284843E0,9.023123265E0
6.957662323E0,8.404197693E0,2.966856480E0,1.841460228E0,9.100755573E0
6.967662789E0,8.596994400E0,3.644032478E0,2.043552399E0,9.558419944E0
6.977662789E0,8.615871429E0,4.027390957E0,2.382106781E0,9.804465877E0
6.987662789E0,8.581268311E0,3.856666088E0,2.433537483E0,9.717723181E0
6.997662789E0,8.199947357E0,3.752281904E0,2.207126617E0,9.283865793E0
7.007662789E0,7.844918251E0,3.590281963E0,1.760149002E0,8.805168451E0
7.017662322E0,8.179816246E0,3.582308292E0,1.803982735E0,9.110251381E0
7.027662322E0,8.991889954E0,4.050172329E0,3.099317551E0,1.033749245E1
7.037662322E0,8.919160843E0,4.050782681E0,3.836787224E0,1.052051361E1
7.047662322E0,7.927082062E0,3.287966967E0,4.419079781E0,9.652855686E0
7.057662322E0,7.197765827E0,3.089103937E0,4.172938347E0,8.874897773E0
7.067662322E0,6.694526672E0,2.423121691E0,3.038502693E0,7.740846511E0
7.077662588E0,6.884163857E0,2.291610241E0,2.513428688E0,7.678574950E0
7.087662588E0,7.780220032E0,2.038767576E0,2.097141266E0,8.311822812E0
7.097662588E0,7.727849007E0,1.738207579E0,1.909921646E0,8.147933269E0
7.107662588E0,7.394354820E0,1.229626179E0,1.355276108E0,7.617429821E0
7.117662588E0,6.984750748E0,9.842700958E-1,9.621591568E-1,7.119078653E0
7.127662321E0,6.298511505E0,3.081279993E-1,8.032188416E-1,6.356992257E0
7.137662321E0,6.068419456E0,2.827357650E-1,1.165088654E0,6.185716271E0
7.147662321E0,5.347740173E0,-1.354573369E-1,1.351691246E0,5.517584877E0
7.157662321E0,4.767340660E0,-2.751242518E-1,1.186505318E0,4.920470017E0
7.167662321E0,4.299108028E0,-5.017652512E-1,4.761762619E-1,4.354404901E0
7.177662321E0,4.223157883E0,-5.454878807E-1,-2.534074783E-1,4.265774828E0
7.187662321E0,4.581223965E0,-5.238987207E-1,-3.223934174E-1,4.622339278E0
7.197662321E0,4.979147911E0,-3.195075989E-1,-2.776775360E-1,4.997109549E0
7.207662321E0,5.014548302E0,1.545708179E-1,7.145004272E-1,5.067553420E0
7.217662821E0,4.899102211E0,6.229238510E-1,1.826784134E0,5.265584191E0
7.227662821E0,4.546892166E0,1.060230970E0,3.037828445E0,5.570163350E0
7.237662821E0,4.558673382E0,1.245183825E0,3.191758156E0,5.702570112E0
7.247662821E0,5.687650681E0,1.833666801E0,2.873046875E0,6.630693972E0
7.257662821E0,6.441436768E0,2.032703638E0,2.484324455E0,7.196934049E0
7.267662354E0,7.001329422E0,1.742938757E0,1.659162521E0,7.403328269E0
7.277662354E0,6.592124939E0,1.352162004E0,1.314664841E0,6.856587850E0
7.287662354E0,5.875610352E0,9.352301359E-1,9.228744507E-1,6.020726672E0
7.297662354E0,5.417153358E0,9.286447763E-1,7.907161713E-1,5.552761808E0
7.307662354E0,4.934674263E0,1.148439527E0,1.284548759E0,5.226852680E0
7.317662354E0,4.616030693E0,1.152340889E0,1.487889290E0,4.984921606E0
7.327662620E0,4.068874836E0,1.118978024E0,1.929159164E0,4.639990229E0
7.337662620E0,3.854431629E0,1.090593815E0,2.076344490E0,4.511900320E0
7.347662620E0,3.048084259E0,1.340379238E0,2.541858673E0,4.189090554E0
7.357662620E0,2.404993773E0,1.569590688E0,2.874283791E0,4.063141307E0
7.367662620E0,1.212657452E0,1.340524554E0,2.586358070E0,3.155438518E0
7.377662353E0,8.620925546E-1,1.217262387E0,2.247364044E0,2.697327648E0
7.387662353E0,7.914470434E-1,1.982524395E0,2.036050797E0,2.949965126E0
7.397662353E0,9.253112078E-1,2.795301199E0,2.600637436E0,3.928514312E0
7.407662353E0,2.180015087E0,3.718889713E0,4.820195198E0,6.466597887E0
7.417662353E0,2.801192999E0,3.946803808E0,5.815690041E0,7.566121408E0
7.427662353E0,2.760170221E0,3.750753641E0,5.795243263E0,7.434482968E0
7.437662353E0,1.815591097E0,3.165445805E0,5.045285225E0,6.226662121E0
7.447662353E0,-2.724113464E-1,2.315502405E0,2.869338989E0,3.697142892E0
7.457662353E0,-1.581381321E0,2.093944788E0,1.533563614E0,3.039274422E0
7.467662819E0,-3.329398632E0,2.129567862E0,7.981681824E-2,3.953014704E0
7.477662819E0,-4.077644348E0,1.994855642E0,3.211975098E-3,4.539454018E0
7.487662819E0,-4.342596054E0,2.281952143E0,5.058164597E-1,4.931662637E0
7.497662819E0,-4.105724812E0,2.629680157E0,6.065187454E-1,4.913253397E0
7.507662819E0,-4.057438850E0,2.995687008E0,7.140254974E-1,5.093798493E0
7.517662319E0,-3.780683279E0,3.282078743E0,1.412733078E0,5.202059369E0
7.527662319E0,-3.096644878E0,3.888646603E0,2.732041359E0,5.672286302E0
7.537662319E0,-2.839806080E0,3.971864939E0,3.385591507E0,5.941585606E0
7.547662319E0,-2.562660217E0,3.918803692E0,3.969075203E0,6.138225129E0
7.557662319E0,-2.775595427E0,3.588408709E0,3.252856255E0,5.582264849E0
7.567662319E0,-3.598768234E0,2.994163513E0,1.076457024E0,4.803634839E0
7.577662585E0,-4.269976616E0,2.628133535E0,-2.635974884E-1,5.020883370E0
7.587662585E0,-5.533708572E0,2.453460455E0,-2.317254066E0,6.481594339E0
7.597662585E0,-6.307205200E0,2.101241350E0,-3.037193775E0,7.308939641E0
7.607662585E0,-6.688987732E0,1.879466534E0,-9.285316467E-1,7.009787611E0
7.617662585E0,-5.866763115E0,2.848641396E0,2.302653313E0,6.916348713E0
7.627662318E0,-4.339791298E0,3.924966335E0,4.831039429E0,7.588022878E0
7.637662318E0,-3.897723675E0,4.186083794E0,4.742662430E0,7.430235144E0
7.647662318E0,-3.047739983E0,4.006154537E0,3.803160667E0,6.308884548E0
7.657662318E0,-3.168677330E0,3.748199463E0,2.796115875E0,5.648697126E0
7.667662318E0,-4.447012901E0,2.661286831E0,9.179363251E-1,5.263171899E0
7.677662318E0,-5.229677200E0,2.208910704E0,-1.297988892E-1,5.678526030E0
7.687662318E0,-6.258015633E0,1.718397260E0,-1.610993385E0,6.686624596E0
7.697662318E0,-6.579797745E0,1.585416794E0,-1.455288887E0,6.922799327E0
7.707662318E0,-6.151556969E0,2.119411945E0,2.350598335E0,6.918010745E0
7.717662784E0,-5.751195908E0,2.598628998E0,4.283936501E0,7.627662747E0
7.727662784E0,-5.098899841E0,3.146689892E0,5.189883232E0,7.926873585E0
7.737662784E0,-5.016557693E0,3.175220013E0,5.078913689E0,7.813017181E0
7.747662784E0,-5.070438385E0,3.097396851E0,5.078273773E0,7.816142091E0
7.757662784E0,-5.112111568E0,2.839166641E0,4.063857079E0,7.121059350E0
7.767662317E0,-5.060812950E0,1.962291002E0,3.363049507E0,6.385335988E0
7.777662317E0,-5.054303646E0,1.453347206E0,2.708647728E0,5.915655159E0
7.787662317E0,-4.865079403E0,1.030086398E0,7.924308777E-1,5.035674958E0
7.797662317E0,-4.729856491E0,7.235047817E-1,7.984733582E-2,4.785538339E0
7.807662317E0,-3.941141129E0,2.998913229E-1,-1.058892250E0,4.091916543E0
7.817662317E0,-3.239923477E0,4.578953981E-1,-1.157988548E0,3.470981102E0
7.827662583E0,-1.954252720E0,9.154621959E-1,-1.248094559E0,2.492973075E0
7.837662583E0,-1.335887671E0,1.015785575E0,-1.402895927E0,2.187357581E0
7.847662583E0,-1.314968586E0,9.317273498E-1,-1.406574249E0,2.139090778E0
7.857662583E0,-1.307617188E0,8.479574323E-1,-1.407285690E0,2.099844644E0
7.867662583E0,-1.311117172E0,7.658132911E-1,-1.405538559E0,2.069066668E0
7.877662316E0,-1.318768024E0,6.873444915E-1,-1.402512550E0,2.044170493E0
7.887662316E0,-2.732525349E0,1.323437333E0,-1.809617996E0,3.534529452E0
7.897662316E0,-3.426563025E0,1.016654015E0,-1.860056400E0,4.029234339E0
7.907662316E0,-4.362655163E0,3.554503620E-1,-1.880232811E0,4.763861926E0
7.917662316E0,-4.574790955E0,2.345629632E-1,-1.936083794E0,4.973143123E0
7.927662316E0,-4.685082436E0,2.745166123E-1,-2.199388504E0,5.182920662E0
7.937662316E0,-4.430939198E0,4.468519986E-1,-2.231795311E0,4.981346122E0
7.947662316E0,-3.672266960E0,9.491453171E-1,-2.034990311E0,4.304370688E0
7.957662316E0,-2.953509092E0,1.474002242E0,-1.896382809E0,3.806857802E0
7.967662782E0,-1.977989197E0,1.836546779E0,-1.604374886E0,3.139962437E0
7.977662782E0,-1.569683313E0,1.884964228E0,-1.336149216E0,2.793258057E0
7.987662782E0,-1.398015857E0,1.766199112E0,-6.901836395E-1,2.355899212E0
7.997662782E0,-1.856685400E0,1.731344342E0,-3.119926453E-1,2.557767252E0
8.007662782E0,-2.994287252E0,1.391206503E0,1.983757019E-1,3.307652431E0
8.017662315E0,-3.410155773E0,1.115955591E0,5.461502075E-1,3.629435125E0
8.027662315E0,-4.047853470E0,1.215413332E0,9.663877487E-1,4.335464515E0
8.037662315E0,-4.004630089E0,1.218194485E0,9.609088898E-1,4.294695082E0
8.047662315E0,-3.895081043E0,1.177094936E0,7.326812744E-1,4.134492795E0
8.057662315E0,-3.547588348E0,1.093035102E0,5.402317047E-1,3.751261004E0
8.067662315E0,-3.259272814E0,7.605168819E-1,-2.110261917E-1,3.353472418E0
8.077662581E0,-2.972499609E0,6.328218579E-1,-8.789577484E-1,3.163666252E0
8.087662581E0,-2.923813343E0,5.694950819E-1,-1.375125885E0,3.280850547E0
8.097662581E0,-2.906681538E0,6.042039990E-1,-1.292943001E0,3.238141695E0
8.107662581E0,-2.759335518E0,6.830826402E-1,-7.243251801E-1,2.933458941E0
8.117662581E0,-2.706245184E0,7.045950294E-1,-4.530496597E-1,2.832926251E0
8.127662314E0,-2.827668667E0,6.544578671E-1,-1.251811981E-1,2.905115406E0
8.137662314E0,-2.895462275E0,5.107910037E-1,7.490158081E-2,2.941125546E0
8.147662314E0,-3.118597507E0,1.180741191E-1,2.864284515E-1,3.133948495E0
8.157662314E0,-3.189939976E0,-6.992998719E-2,2.081184387E-1,3.197486597E0
8.167662314E0,-3.110870838E0,-7.834860682E-2,2.045373917E-1,3.118572016E0
8.177662314E0,-3.013082981E0,-2.959804833E-1,5.775737762E-1,3.082185096E0
8.187662314E0,-2.631274462E0,-2.828204334E-1,2.668228149E-1,2.659847196E0
8.197662314E0,-2.304569244E0,-2.531216145E-1,-2.008399963E-1,2.327111226E0
8.207662314E0,-2.138809681E0,-2.994264364E-1,-1.105596542E0,2.426212430E0
8.217662780E0,-2.199058771E0,-5.629565120E-1,-1.310473442E0,2.621091405E0
8.227662780E0,-2.130917311E0,-1.223780394E0,-6.916923523E-1,2.552819098E0
8.237662780E0,-1.741367579E0,-1.481448889E0,1.587781906E-1,2.291781483E0
8.247662780E0,-9.853706360E-1,-1.267129302E0,1.272049904E0,2.048092507E0
8.257662780E0,-6.241781116E-1,-9.696873426E-1,1.695645332E0,2.050635255E0
8.267662313E0,-1.362960935E-1,-4.140593708E-1,2.033388138E0,2.079588687E0
8.277662313E0,-1.866930127E-1,-2.533667088E-1,2.106225014E0,2.129608598E0
8.287662313E0,-2.715852261E-1,-5.786486864E-1,2.107662201E0,2.202460622E0
8.297662313E0,-6.936065108E-2,-9.405788183E-1,1.949129105E0,2.165318378E0
8.307662313E0,-2.592149377E-2,-1.491245389E0,1.836862564E0,2.366125274E0
8.317662313E0,-1.615579575E-1,-1.837673187E0,1.742325783E0,2.537487507E0
8.327662579E0,-3.518888056E-1,-2.315927029E0,9.428853989E-1,2.525148829E0
8.337662579E0,-1.956559420E-1,-2.416070700E0,4.061889648E-1,2.457777115E0
8.347662579E0,6.759712100E-1,-2.552679062E0,-5.933914185E-1,2.706514520E0
8.357662579E0,1.666388750E0,-2.490198135E0,-1.237505913E0,3.241814169E0
8.367662579E0,3.098868608E0,-2.286175251E0,-1.785573959E0,4.244744786E0
8.377662312E0,3.932515144E0,-2.336639404E0,-1.774021626E0,4.906293081E0
8.387662312E0,5.286696434E0,-2.141714096E0,-1.766096592E0,5.971197169E0
8.397662312E0,5.700521469E0,-1.728865385E0,-1.481937408E0,6.138489963E0
8.407662312E0,6.073187351E0,-9.461661577E-1,-3.572978973E-1,6.156825220E0
8.417662312E0,6.203718185E0,-7.710906267E-1,7.458114624E-2,6.251900705E0
8.427662312E0,6.204140186E0,-8.074835539E-1,4.044532776E-2,6.256598194E0
8.437662312E0,6.207303047E0,-9.195003510E-1,-8.199405670E-2,6.275572885E0
8.447662312E0,5.592947483E0,-1.324977398E0,-1.821165085E-1,5.750634146E0
8.457662312E0,5.155112267E0,-1.684327841E0,-3.535776138E-1,5.434810014E0
8.467662778E0,4.270081043E0,-2.040972710E0,-2.691764832E-1,4.740423789E0
8.477662778E0,3.824269295E0,-2.309880733E0,-1.173162460E-1,4.469267025E0
8.487662778E0,3.610044003E0,-2.791674614E0,3.387069702E-2,4.563662134E0
8.497662778E0,3.531841993E0,-3.168437481E0,1.051206589E-1,4.745940822E0
8.507662778E0,3.441343307E0,-3.500623703E0,-8.312320709E-2,4.909594641E0
8.517662311E0,3.811669350E0,-3.531445980E0,-2.838277817E-1,5.203892020E0
8.527662311E0,4.796988010E0,-3.221792698E0,-5.617055893E-1,5.805734693E0
8.537662311E0,5.298720360E0,-3.356515169E0,-4.908361435E-1,6.291546046E0
8.547662311E0,5.925299644E0,-3.818503618E0,-1.318464279E-1,7.050356675E0
8.557662311E0,6.102355003E0,-4.299172401E0,-1.020059586E-1,7.465388479E0
8.567662311E0,5.536168098E0,-4.238691330E0,-2.619447708E-1,6.977411875E0
8.577662577E0,5.087194443E0,-4.168967724E0,-2.600517273E-1,6.582360221E0
8.587662577E0,5.082354546E0,-4.213262558E0,-2.543468475E-1,6.606557457E0
8.597662577E0,4.384239197E0,-3.756991625E0,-1.267835617E0,5.911340504E0
8.607662577E0,5.523192406E0,-3.204113483E0,-9.085674286E-1,6.449611797E0
8.617662577E0,6.557203293E0,-3.098213673E0,-1.355352402E-1,7.253565522E0
8.627662310E0,8.147953987E0,-2.632673740E0,9.021463394E-1,8.610109942E0
8.637662310E0,8.608884811E0,-1.874818087E0,1.594968796E0,8.953868774E0
8.647662310E0,9.357470512E0,-9.338942170E-1,2.102779388E0,9.636186692E0
8.657662310E0,9.220587730E0,-1.041873932E0,2.427586555E0,9.591554403E0
8.667662310E0,7.603734493E0,-1.652014613E0,1.801627159E0,7.986976333E0
8.677662310E0,6.201916695E0,-2.077999830E0,1.240392685E0,6.657358935E0
8.687662310E0,3.881644726E0,-3.173787594E0,-4.021749496E-1,5.030093255E0
8.697662310E0,3.929327726E0,-3.248789787E0,-3.770294189E-1,5.112377397E0
8.707662310E0,3.056361437E0,-3.422658682E0,-3.601462841E0,5.833221432E0
8.717662776E0,4.198697090E0,-2.939172268E0,-3.807824612E0,6.384929064E0
8.727662776E0,7.774757862E0,-2.193004608E0,-2.341593742E0,8.410659325E0
8.737662776E0,9.204532623E0,-1.788421869E0,-1.005024910E0,9.430373729E0
8.747662776E0,9.724785805E0,-1.276449919E0,6.379222870E-1,9.828923043E0
8.757662776E0,9.673612595E0,-1.280635118E0,6.269750595E-1,9.778134007E0
8.767662309E0,8.055945396E0,-2.178427458E0,1.401519775E-2,8.345298008E0
8.777662309E0,7.247814655E0,-2.558266163E0,-3.908329010E-1,7.695992034E0
8.787662309E0,5.533841133E0,-2.679820299E0,-5.912036896E-1,6.176921266E0
8.797662309E0,4.990262032E0,-2.454049587E0,-5.562782288E-3,5.561034568E0
8.807662309E0,6.136135101E0,-1.329852581E0,5.244703293E-1,6.300454824E0
8.817662309E0,7.310925484E0,-6.723953485E-1,-1.550445557E-1,7.343417852E0
8.827662575E0,9.233016968E0,3.595377207E-1,-2.475004196E-1,9.243328738E0
8.837662575E0,1.016744328E1,1.013104320E0,5.195245743E-1,1.023099159E1
8.847662575E0,1.136518097E1,1.627912521E0,2.522316933E0,1.175497853E1
8.857662575E0,1.129864883E1,1.658351064E0,2.502361298E0,1.169065463E1
8.867662575E0,1.034354973E1,1.877377510E0,2.184213638E0,1.073705530E1
8.877662308E0,9.719359398E0,1.751895308E0,1.628319740E0,1.000932113E1
8.887662308E0,7.865180016E0,1.482630730E0,1.016138077E0,8.067948137E0
8.897662308E0,6.978603840E0,1.485832572E0,1.082550049E0,7.216683767E0
8.907662308E0,6.051900864E0,1.565370679E0,1.424197197E0,6.411257839E0
8.917662308E0,5.993259430E0,1.905093908E0,1.711684227E0,6.517545879E0
8.927662308E0,6.344002724E0,2.156896591E0,2.265707016E0,7.073330315E0
8.937662308E0,6.697036743E0,2.326728821E0,2.492467880E0,7.515075800E0
8.947662308E0,6.678878784E0,2.748447418E0,2.638894081E0,7.689287808E0
8.957662308E0,6.533545494E0,3.011015415E0,2.602560997E0,7.650278054E0
8.967662774E0,6.818884850E0,3.027144432E0,1.630702019E0,7.636752129E0
8.977662774E0,6.730918884E0,3.072785378E0,1.216369629E0,7.498455446E0
8.987662774E0,6.420104980E0,3.269452810E0,9.454851151E-1,7.266430468E0
8.997662774E0,6.274193764E0,3.345258474E0,6.559724808E-1,7.140487486E0
9.007662774E0,6.314411640E0,2.964875221E0,-5.296192169E-1,6.995911374E0
9.017662307E0,6.247167110E0,2.834765673E0,-8.604240417E-1,6.913994710E0
9.027662307E0,5.815782547E0,2.786490202E0,9.108362198E-1,6.512870097E0
9.037662307E0,5.882847786E0,2.806160450E0,1.986246109E0,6.813780753E0
9.047662307E0,6.200178146E0,2.947582722E0,3.189364433E0,7.569841375E0
9.057662307E0,6.432278633E0,3.065845490E0,3.364699364E0,7.880026573E0
9.067662307E0,6.069264412E0,3.294097185E0,3.455982208E0,7.722102032E0
9.077662573E0,5.857596397E0,3.301352739E0,2.760925293E0,7.268636319E0
9.087662573E0,6.293262482E0,3.325440168E0,7.375993729E-1,7.155959601E0
9.097662573E0,6.820953369E0,3.187212467E0,-5.938529968E-2,7.529093889E0
9.107662573E0,7.195597649E0,2.813746214E0,-1.037114143E0,7.795472983E0
9.117662573E0,7.008680820E0,2.308414698E0,-1.331453323E0,7.498210001E0
9.127662306E0,6.495441437E0,1.643295646E0,-1.460520744E0,6.857426695E0
9.137662306E0,6.569317818E0,1.648412228E0,-4.060001373E-1,6.785133423E0
9.147662306E0,6.351430893E0,1.763699412E0,1.221676826E0,6.704014042E0
9.157662306E0,5.919294357E0,2.060690403E0,2.655634880E0,6.807120334E0
9.167662306E0,5.178555965E0,1.996118069E0,4.472302437E0,7.127651669E0
9.177662306E0,4.421390533E0,1.797645330E0,4.576256752E0,6.612287716E0
9.187662306E0,3.545508623E0,1.052006364E0,3.180686951E0,4.877921511E0
9.197662306E0,3.041577816E0,7.725249529E-1,1.954452515E0,3.697008932E0
9.207662306E0,2.560881138E0,1.122895718E0,2.288980484E-1,2.805601773E0
9.217662772E0,2.307831287E0,1.062643290E0,-1.379060745E-1,2.544467350E0
9.227662772E0,2.016557217E0,6.706236601E-1,-1.666040421E-1,2.131665079E0
9.237662772E0,2.160165310E0,8.881892562E-1,8.701801300E-2,2.337256181E0
9.247662772E0,3.082674980E0,2.241008282E0,2.045701981E0,4.325494162E0
9.257662772E0,3.616910934E0,2.688420296E0,3.037459373E0,5.434685625E0
9.267662305E0,3.832279682E0,3.032873154E0,3.757723808E0,6.164833765E0
9.277662305E0,3.567509174E0,3.025492668E0,3.503138542E0,5.844031762E0
9.287662305E0,2.446201086E0,2.462869883E0,2.377246857E0,4.207247370E0
9.297662305E0,1.428633213E0,2.106078148E0,1.539345741E0,2.974246683E0
9.307662305E0,3.156952858E-1,1.965719819E0,1.106360435E0,2.277663569E0
9.317662305E0,-1.467382908E-2,2.221180201E0,1.531883240E0,2.698244441E0
9.327662571E0,5.232025385E-1,3.257084131E0,2.099535942E0,3.910292714E0
9.337662571E0,8.208134770E-1,3.321644068E0,2.252428055E0,4.096399177E0
9.347662571E0,1.429287076E0,3.236054420E0,1.878128052E0,4.005280856E0
9.357662571E0,1.698396444E0,3.260747433E0,1.440063477E0,3.948519611E0
9.367662571E0,1.650640726E0,3.636108875E0,6.282634735E-1,4.042352972E0
9.377662304E0,1.113875628E0,3.672611713E0,4.244241714E-1,3.861208566E0
9.387662304E0,-3.709294796E-1,3.383385420E0,7.828235626E-1,3.492520338E0
9.397662304E0,-1.601715684E0,3.109152794E0,1.079666138E0,3.660328291E0
9.407662304E0,-3.073259830E0,3.150277853E0,1.307849884E0,4.591257764E0
9.417662304E0,-3.503065586E0,3.191451073E0,9.703178406E-1,4.837183598E0
9.427662304E0,-3.616704941E0,3.140691042E0,9.599733353E-1,4.885288492E0
9.437662304E0,-3.545257330E0,3.383458138E0,-1.602983475E-1,4.903298284E0
9.447662304E0,-3.133502245E0,3.702754974E0,-1.571435928E-1,4.853238592E0
9.457662304E0,-2.737133265E0,3.807968378E0,1.449699402E-1,4.691858689E0
9.467662770E0,-2.062311888E0,4.245250702E0,8.266248703E-1,4.791512550E0
9.477662770E0,-2.053828478E0,4.507146358E0,1.212286949E0,5.099237135E0
9.487662770E0,-2.418168068E0,4.245417595E0,1.574999809E0,5.133393786E0
9.497662770E0,-3.002095938E0,3.978320122E0,1.225602150E0,5.132417719E0
9.507662770E0,-3.849407196E0,3.553121567E0,5.910015106E-2,5.238902696E0
9.517662303E0,-4.424833298E0,3.218314409E0,-4.261512756E-1,5.488014419E0
9.527662303E0,-4.554666519E0,3.136750460E0,5.912380219E-1,5.561812020E0
9.537662303E0,-4.013786316E0,3.521131992E0,1.993149757E0,5.699254079E0
9.547662303E0,-3.321597576E0,3.685638905E0,3.570193291E0,6.112546501E0
9.557662303E0,-3.553265095E0,3.520168304E0,3.866886139E0,6.322189979E0
9.567662303E0,-4.707406521E0,3.141665936E0,3.025569916E0,6.417461673E0
9.577662569E0,-5.354588509E0,2.788960695E0,1.874677658E0,6.321735219E0
9.587662569E0,-6.393227577E0,2.342775345E0,4.706192017E-2,6.809124026E0
9.597662569E0,-6.781627655E0,2.238205194E0,-4.912357330E-1,7.158306272E0
9.607662569E0,-6.760747433E0,2.115750790E0,-6.358098984E-1,7.112549577E0
9.617662569E0,-6.232266426E0,2.366150379E0,5.401859283E-1,6.688169649E0
9.627662302E0,-4.724539280E0,3.366692305E0,3.065747261E0,6.561607635E0
9.637662302E0,-3.868834019E0,3.661647320E0,3.748064041E0,6.513334155E0
9.647662302E0,-2.914967060E0,3.757597923E0,4.172839165E0,6.326860344E0
9.657662302E0,-2.772692204E0,3.464696884E0,4.071089745E0,6.022102479E0
9.667662302E0,-3.483069420E0,2.796647549E0,2.738171577E0,5.239331416E0
9.677662302E0,-3.988876104E0,2.397296906E0,1.762832642E0,4.976519261E0
9.687662302E0,-5.028236389E0,1.576725245E0,-7.232513428E-1,5.319052189E0
9.697662302E0,-5.781786919E0,1.127423048E0,-2.005387306E0,6.222677956E0
9.707662302E0,-5.742177010E0,1.076395512E0,-2.016239166E0,6.180327215E0
9.717662768E0,-4.895683765E0,2.248199940E0,8.005628586E-1,5.446377089E0
9.727662768E0,-2.669171333E0,2.721265793E0,3.588432312E0,5.235132241E0
9.737662768E0,-1.576072574E0,2.552255154E0,4.216741562E0,5.174835314E0
9.747662768E0,-3.809242249E-1,2.052936077E0,3.529255867E0,4.100645897E0
9.757662768E0,-6.848472357E-1,1.811767101E0,2.171217918E0,2.909588118E0
9.767662301E0,-1.990229487E0,7.319184542E-1,-2.136392593E-1,2.131281251E0
9.777662301E0,-3.013937235E0,4.016216397E-1,-1.391663551E0,3.343926590E0
9.787662301E0,-4.127360344E0,2.653053403E-1,-2.251130104E0,4.708829693E0
9.797662301E0,-4.315296173E0,5.480165780E-2,-2.236979485E0,4.860952736E0
9.807662301E0,-3.570091963E0,-2.484523952E-1,-8.578329086E-1,3.680103601E0
9.817662301E0,-2.940938950E0,-2.538336515E-1,-5.052566528E-3,2.951877192E0
9.827662567E0,-2.292290688E0,-2.213302255E-2,1.225986481E0,2.599640229E0
9.837662567E0,-2.159760952E0,-7.681220770E-3,1.624808311E0,2.702707609E0
9.847662567E0,-2.465698242E0,-2.676103711E-1,1.712897301E0,3.014183189E0
9.857662567E0,-2.784440517E0,-3.540798426E-1,1.622946739E0,3.242288952E0
9.867662567E0,-3.772908211E0,-6.061112881E-1,1.518197060E0,4.111828009E0
9.877662300E0,-4.333194733E0,-1.083806276E0,1.586310387E0,4.739999291E0
9.887662300E0,-5.231541157E0,-1.456289768E0,1.414252281E0,5.611587323E0
9.897662300E0,-5.455979347E0,-1.430328369E0,9.511480331E-1,5.719985355E0
9.907662300E0,-5.281028271E0,-1.320443034E0,5.557222366E-1,5.471896984E0
9.917662300E0,-4.891522408E0,-1.348251581E0,2.980670929E-1,5.082678210E0
9.927662300E0,-4.225513458E0,-1.470153570E0,7.324695587E-2,4.474559266E0
9.937662300E0,-3.782675505E0,-1.424970984E0,7.131671906E-2,4.042803774E0
9.947662300E0,-3.363944054E0,-1.194271564E0,2.401618958E-1,3.577720210E0
9.957662300E0,-3.209335327E0,-1.209953785E0,3.607492447E-1,3.448762303E0
9.967662766E0,-2.990202188E0,-1.193505764E0,7.367992401E-1,3.302822771E0
9.977662766E0,-2.795178890E0,-1.089113116E0,8.835697174E-1,3.127281224E0
9.987662766E0,-2.375388384E0,-7.944324017E-1,6.720523834E-1,2.593308162E0
9.997662766E0,-2.042427778E0,-8.086005449E-1,4.106769562E-1,2.234726299E0
1.000766277E1,-1.319794655E0,-7.280048132E-1,9.147262573E-2,1.510038470E0
1.001766230E1,-1.215710878E0,-7.474669218E-1,8.075809479E-2,1.429399038E0
1.002766230E1,-4.301413298E-1,-6.168607473E-1,-1.827898026E-1,7.739191541E-1
1.003766230E1,-3.763145804E-1,-7.757000923E-1,-1.608047485E-1,8.770299104E-1
1.004766230E1,-7.003382444E-1,-1.095682740E0,-1.888542175E-1,1.314024444E0
1.005766230E1,-7.771316767E-1,-1.176505327E0,-3.616714478E-1,1.455645789E0
1.006766230E1,-9.402059913E-1,-1.144519567E0,-8.208675385E-1,1.693439064E0
1.007766256E1,-6.371326447E-1,-1.039120436E0,-9.186668396E-1,1.526321738E0
1.008766256E1,3.699663281E-1,-9.407393336E-1,-4.793624878E-1,1.118773423E0
1.009766256E1,9.561731219E-1,-9.092183709E-1,-2.319955826E-1,1.339689156E0
1.010766256E1,1.696635246E0,-6.115024686E-1,-6.523132324E-3,1.803482459E0
1.011766256E1,1.905972242E0,-4.726382494E-1,1.620054245E-1,1.970371250E0
1.012766230E1,2.083539248E0,-6.191005111E-1,1.616363525E-1,2.179575085E0
1.013766230E1,2.091744184E0,-7.043067217E-1,-2.493762970E-2,2.207275148E0
1.014766230E1,1.778066874E0,-7.712370157E-1,-3.119039536E-1,1.963062000E0
1.015766230E1,1.450730205E0,-9.814907908E-1,-3.597116470E-1,1.788109272E0
1.016766230E1,9.255256057E-1,-1.287720799E0,-6.617336273E-1,1.718346268E0
1.017762896E1,7.449131012E-1,-1.418558955E0,-8.560533524E-1,1.816599125E0
1.018759610E1,7.977899313E-1,-1.433871746E0,-8.536939621E-1,1.849662223E0
1.019756276E1,1.037241936E0,-1.523490310E0,8.269214630E-2,1.844920472E0
1.020752943E1,1.593380094E0,-1.476362467E0,6.148567200E-1,2.257555103E0
1.021749610E1,2.134515047E0,-1.386626720E0,6.044502258E-1,2.616151414E0
1.022746276E1,3.058494329E0,-1.240671635E0,6.837549210E-1,3.370634133E0
1.023742943E1,3.386512041E0,-1.312137604E0,8.501272202E-1,3.729998014E0
1.024739609E1,3.395188570E0,-1.348094702E0,8.567314148E-1,3.752153178E0
1.025736276E1,4.020850182E0,-1.208522320E0,1.412136078E0,4.429660335E0
1.026732896E1,4.145211220E0,-1.610619187E0,1.037088394E0,4.566445287E0
1.027729562E1,3.960243702E0,-2.015963793E0,6.156778336E-1,4.486279014E0
1.028726229E1,2.803310633E0,-2.620922327E0,-4.675149918E-1,3.866051554E0
1.029722896E1,2.350657701E0,-2.829056978E0,-1.185365677E0,3.864485322E0
1.030719562E1,2.108487129E0,-3.239766598E0,-2.134524822E0,4.415654176E0
1.031716229E1,2.234482050E0,-3.266533136E0,-2.121438503E0,4.490395315E0
1.032712942E1,3.481203318E0,-3.366946697E0,-1.657341003E0,5.118777765E0
1.033709609E1,4.102723122E0,-3.374943256E0,-9.396648407E-1,5.394955886E0
1.034706275E1,4.641713619E0,-3.410433054E0,1.732225418E-1,5.762513773E0
1.035702942E1,4.892388821E0,-3.438960552E0,1.481838226E-1,5.981962596E0
1.036699609E1,5.155023098E0,-3.354236126E0,-5.312747955E-1,6.173120446E0
1.037696249E1,5.086402893E0,-3.554391861E0,-7.534847260E-1,6.250834754E0
1.038692915E1,5.177125931E0,-3.555403471E0,-7.419776917E-1,6.324085518E0
1.039689582E1,4.803174019E0,-3.885322094E0,-1.323794365E0,6.318119970E0
1.040686248E1,5.034125328E0,-4.024745941E0,-6.184797287E-1,6.474837055E0
1.041682915E1,5.335867405E0,-4.248414040E0,-2.990436554E-2,6.820659579E0
1.042679582E1,5.616644382E0,-4.423952103E0,2.675905228E-1,7.154694334E0
1.043676298E1,5.408498764E0,-4.405145645E0,-5.280017853E-2,6.975668778E0
1.044672965E1,4.999396324E0,-4.603532791E0,-3.292627335E-1,6.804034958E0
1.045669678E1,5.021310329E0,-4.494706154E0,-4.907178879E-1,6.756977496E0
1.046666345E1,5.607601643E0,-4.061898232E0,-3.267259598E-1,6.931880212E0
1.047666345E1,6.546346188E0,-3.797939777E0,2.027015686E-1,7.571002766E0
1.048666298E1,8.066541672E0,-3.586631298E0,2.047738075E0,9.062353438E0
1.049666298E1,8.375543594E0,-3.624527931E0,3.135583878E0,9.649809298E0
1.050666298E1,8.360293388E0,-3.647625923E0,3.137405396E0,9.645879588E0
1.051666298E1,6.242903709E0,-4.236107826E0,4.939868927E0,9.017802463E0
1.052666298E1,4.015542507E0,-4.363353729E0,-1.270532608E0,6.064461271E0
1.053666298E1,5.476513386E0,-3.832075834E0,-3.093412876E0,7.365202461E0
1.054666298E1,8.395502090E0,-2.069565296E0,-3.738610268E0,9.420443864E0
1.055666298E1,9.813429832E0,-1.762583971E0,-3.435248375E0,1.054566445E1
1.056666298E1,1.054543114E1,-1.491843224E0,-2.027488708E0,1.084169842E1
1.057666308E1,1.022332001E1,-1.855506420E0,-1.299638748E0,1.047130541E1
1.058666308E1,9.140054703E0,-2.023897648E0,-9.025678635E-1,9.404859936E0
1.059666308E1,8.321292877E0,-2.390321493E0,-8.615245819E-1,8.700561855E0
1.060666308E1,6.420571327E0,-2.639535427E0,-1.545042992E0,7.111824048E0
1.061666308E1,5.715805054E0,-2.730108023E0,-2.315675735E0,6.744351069E0
1.062666261E1,5.920610428E0,-2.363790751E0,-2.531221390E0,6.859170232E0
1.063666261E1,6.986670494E0,-1.147860050E0,-1.814219952E0,7.309072535E0
1.064666261E1,8.273404121E0,3.411865234E-1,1.291037560E0,8.380477431E0
1.065666261E1,8.675724983E0,6.325366497E-1,3.723631859E0,9.462227054E0
1.066666261E1,9.331451416E0,1.333527088E0,4.759527206E0,1.055970545E1
1.067666261E1,9.942952156E0,1.810502052E0,4.053423882E0,1.088900640E1
1.068666308E1,1.057623100E1,2.010810614E0,1.876717567E0,1.092804147E1
1.069666308E1,1.065520573E1,2.106921911E0,6.365032196E-1,1.088015006E1
1.070666308E1,1.000011253E1,2.079131126E0,-6.153745651E-1,1.023248371E1
1.071666308E1,8.969599724E0,1.776961088E0,-1.124406815E0,9.212795482E0
1.072666308E1,6.677670002E0,1.128574014E0,-1.290996552E0,6.894318535E0
1.073666258E1,5.722317696E0,1.128348589E0,-9.846162796E-1,5.915028281E0
1.074666258E1,4.875288963E0,1.994095683E0,1.096607208E0,5.380279494E0
1.075666211E1,4.911632538E0,2.411097527E0,2.803238869E0,6.147818607E0
1.076666211E1,4.950733662E0,2.969921589E0,4.932106018E0,7.593146107E0
1.077666211E1,5.145886421E0,3.407220364E0,5.067848206E0,7.985761272E0
1.078666211E1,5.507504463E0,3.987453461E0,4.171074867E0,7.976857530E0
1.079666211E1,6.203851700E0,4.719333172E0,3.606863022E0,8.588908100E0
1.080666211E1,8.143795967E0,5.929852962E0,3.779417038E0,1.075958001E1
1.081666211E1,9.010186195E0,5.777506828E0,3.655097961E0,1.131029538E1
1.082666258E1,1.023097134E1,5.479991913E0,2.328996658E0,1.183753823E1
1.083666258E1,1.059002686E1,5.387400627E0,1.582866669E0,1.198658505E1
1.084666258E1,1.031059265E1,4.763319492E0,1.051525116E0,1.140628066E1
1.085666258E1,9.814565659E0,4.230755806E0,1.111021996E0,1.074520189E1
1.086666258E1,8.835393906E0,3.191829681E0,7.552204132E-1,9.424559409E0
1.087666248E1,8.472422600E0,2.980028152E0,1.103684425E0,9.048791732E0
1.088666248E1,8.183913231E0,2.916009903E0,3.477749825E0,9.358113772E0
1.089666248E1,8.025640488E0,2.748816729E0,4.646635056E0,9.672544442E0
1.090666248E1,8.155262947E0,1.982767344E0,4.521384239E0,9.533236361E0
1.091666248E1,8.724578857E0,1.167482138E0,2.579086304E0,9.172403008E0
1.092666248E1,9.242076874E0,1.643339396E-1,-7.746067047E-1,9.275936941E0
1.093666258E1,8.920797348E0,-3.071832955E-1,-1.488997459E0,9.049425415E0
1.094666258E1,8.017435074E0,-5.989003181E-1,-7.102851868E-1,8.071087399E0
1.095666258E1,7.066822052E0,-6.742533445E-1,2.453842163E-1,7.103154574E0
1.096666258E1,4.972525120E0,-1.386636853E0,1.223654747E0,5.305289697E0
1.097666258E1,4.175601959E0,-1.582366586E0,9.313592911E-1,4.561465320E0
1.098666211E1,3.651987791E0,-1.325723886E0,7.692661285E-1,3.960597054E0
1.099666211E1,3.672913074E0,-1.036489606E0,1.028625488E0,3.952552536E0
1.100666211E1,3.974420071E0,-1.986123323E-1,2.811594963E0,4.872425268E0
1.101666211E1,4.031059742E0,1.120921969E-1,3.426937103E0,5.292060583E0
1.102666211E1,4.389898777E0,4.074418545E-1,3.369774818E0,5.549108258E0
1.103666211E1,4.235756397E0,4.239648581E-1,3.332682610E0,5.406306672E0
1.104666211E1,3.564722776E0,1.464474201E-1,3.611869812E-1,3.585965889E0
1.105666211E1,3.216031075E0,4.347150624E-1,-9.295606613E-1,3.375783773E0
1.106666211E1,4.163687229E0,1.514018297E0,-1.265295982E0,4.607549964E0
1.107666258E1,4.499558449E0,2.019889832E0,2.733068466E-1,4.939704222E0
1.108666258E1,4.824239731E0,3.265591145E0,3.750235558E0,6.928321676E0
1.109666258E1,4.498514652E0,3.683817625E0,4.485148430E0,7.343276027E0
1.110666258E1,3.265232325E0,3.439505100E0,4.450454712E0,6.503728516E0
1.111666258E1,2.127336979E0,3.399665833E0,3.953644753E0,5.631571470E0
1.112666211E1,1.742071211E-1,3.613327026E0,2.880188942E0,4.624064085E0
1.113666211E1,-1.114952326E0,3.505723000E0,2.389645576E0,4.386754885E0
1.114666211E1,-3.548453331E0,3.270741463E0,1.557308197E0,5.070944644E0
1.115666211E1,-4.591406822E0,3.432147264E0,1.104076385E0,5.837776642E0
1.116666211E1,-5.731089115E0,3.710123539E0,4.317741394E-1,6.840820713E0
1.117666211E1,-6.117603302E0,3.800743341E0,4.312582016E-1,7.215033177E0
1.118666258E1,-6.074210167E0,4.223372936E0,5.235071182E-1,7.416668242E0
1.119666258E1,-5.803270817E0,4.622481346E0,9.841051102E-1,7.484233350E0
1.120666258E1,-5.575314045E0,5.116686821E0,2.502894402E0,7.970513855E0
1.121666258E1,-6.083585262E0,5.108389378E0,2.994360924E0,8.489514063E0
1.122666258E1,-7.809635639E0,4.661759377E0,2.710859299E0,9.490583093E0
1.123666248E1,-7.901580811E0,4.606740952E0,2.715822220E0,9.541107474E0
1.124666248E1,-1.021249962E1,3.811001778E0,6.232910156E-1,1.091821298E1
1.125666248E1,-1.079928303E1,3.424779415E0,1.276273727E-1,1.133004487E1
1.126666248E1,-1.122240067E1,3.013720036E0,-5.436182022E-1,1.163272564E1
1.127666248E1,-1.120388031E1,2.871784210E0,-5.147686005E-1,1.157752414E1
1.128666248E1,-1.039132690E1,3.478205919E0,1.770971298E0,1.110017705E1
1.129666248E1,-9.621463776E0,3.732346058E0,3.295099258E0,1.083331212E1
1.130666248E1,-8.468328476E0,3.789237261E0,4.068714142E0,1.013041662E1
1.131666248E1,-8.010343552E0,3.839240313E0,3.371837616E0,9.501297748E0
1.132666294E1,-6.708568573E0,3.539127111E0,1.462716103E0,7.724626296E0
1.133666294E1,-5.816184998E0,3.354960680E0,1.107265472E0,6.805130852E0
1.134666294E1,-3.550669909E0,3.380690098E0,1.050677299E0,5.014004899E0
1.135666294E1,-2.453298569E0,3.289428949E0,1.535713196E0,4.381487384E0
1.136666294E1,-1.349505067E0,2.814318657E0,3.384469986E0,4.603932071E0
1.137666248E1,-1.659679413E0,2.164410591E0,3.523284912E0,4.455641989E0
1.138666248E1,-3.835488796E0,8.743063211E-1,2.527844429E0,4.676043553E0
1.139666248E1,-4.667408943E0,5.122913122E-1,1.996984482E0,5.102459765E0
1.140666248E1,-6.214519501E0,-5.870817900E-1,9.839582443E-1,6.319263524E0
1.141666248E1,-7.018274784E0,-1.212339044E0,5.761022568E-1,7.145476941E0
1.142666248E1,-7.997882366E0,-2.375156164E0,-6.925487518E-2,8.343397712E0
1.143666298E1,-8.179151535E0,-3.115801334E0,-3.900661469E-1,8.761215063E0
1.144666298E1,-7.766113281E0,-3.675131321E0,-3.343153000E-1,8.598306371E0
1.145666298E1,-7.258705139E0,-3.526071787E0,2.294425964E-1,8.073080357E0
1.146666298E1,-5.903465748E0,-2.895443916E0,2.536848068E0,7.047701854E0
1.147666298E1,-5.145985126E0,-2.876005173E0,3.535599709E0,6.874084228E0
1.148666251E1,-4.395307541E0,-2.963589191E0,3.789088249E0,6.516040135E0
1.149666251E1,-4.454114914E0,-3.092762232E0,3.104446411E0,6.248352215E0
1.150666251E1,-5.165993214E0,-3.437863827E0,1.510055542E0,6.386443558E0
1.151666251E1,-5.727955818E0,-3.677759886E0,6.036577225E-1,6.833725066E0
1.152666251E1,-6.243812084E0,-4.574155807E0,-5.427608490E-1,7.759038602E0
1.153666251E1,-6.346619129E0,-4.759994507E0,-8.725900650E-1,7.981136228E0
1.154666251E1,-6.592359066E0,-4.777899265E0,-1.370123863E0,8.256195180E0
1.155666251E1,-6.449863911E0,-4.895705700E0,-1.364225388E0,8.211564387E0
1.156666251E1,-5.405982494E0,-4.689616203E0,-9.768447876E-1,7.222975329E0
1.157666297E1,-4.449465752E0,-4.592431545E0,-9.489250183E-1,6.464412708E0
1.158666297E1,-3.630444527E0,-4.017518520E0,-9.334888458E-1,5.494723282E0
1.159666297E1,-3.361411810E0,-3.464831829E0,-7.568502426E-1,4.886406783E0
1.160666297E1,-3.066351414E0,-3.031419754E0,-5.957298279E-1,4.352804928E0
1.161666297E1,-2.939350605E0,-3.387900114E0,-9.493379593E-1,4.584636488E0
1.162666251E1,-3.176061630E0,-4.844343662E0,-5.164718628E-1,5.815649249E0
1.163666251E1,-3.572123051E0,-5.297804832E0,2.576351166E-2,6.389637149E0
1.164666251E1,-4.304952621E0,-5.624517918E0,1.578678131E0,7.256724021E0
1.165666251E1,-4.423689365E0,-5.489393711E0,2.701179504E0,7.549757720E0
1.166666251E1,-3.799704313E0,-4.921454906E0,4.304959297E0,7.562482781E0
1.167666204E1,-2.183826447E0,-4.793093681E0,4.473942757E0,6.910789302E0
1.168666251E1,5.592823625E-1,-5.009783268E0,3.053008080E0,5.893350786E0
1.169666251E1,1.796768665E0,-5.100521564E0,2.025314331E0,5.774564573E0
1.170666251E1,2.615143299E0,-5.189896584E0,3.795833588E-1,5.823923467E0
1.171666251E1,2.747696638E0,-5.454294205E0,-2.993116379E-1,6.114634048E0
1.172666251E1,2.751626492E0,-6.109387398E0,-1.193661690E0,6.805945265E0
1.173666201E1,2.755758286E0,-6.295679092E0,-1.406869888E0,7.014917095E0
1.174666201E1,3.130133390E0,-6.407180309E0,-1.323759556E0,7.252725965E0
1.175666201E1,3.195869446E0,-6.459407330E0,-1.295171261E0,7.322225970E0
1.176666201E1,4.089935303E0,-6.534950733E0,-1.975536346E-2,7.709315283E0
1.177666201E1,4.546376228E0,-6.641384602E0,1.674604416E-1,8.050190633E0
1.178666201E1,4.866542816E0,-6.861769676E0,4.428281784E-1,8.423966932E0
1.179666201E1,5.061108112E0,-7.106481552E0,1.017267227E0,8.783605637E0
1.180666201E1,5.278695583E0,-7.623242378E0,1.786001205E0,9.442894245E0
1.181666201E1,5.423885822E0,-7.561737061E0,1.923036575E0,9.502445709E0
1.182666247E1,5.903534412E0,-7.789569855E0,2.509964943E0,1.009103766E1
1.183666247E1,5.642099380E0,-8.168725014E0,2.640968323E0,1.027307488E1
1.184666247E1,5.417551994E0,-8.102999687E0,2.594286919E0,1.008656523E1
1.185666247E1,5.438485146E0,-8.103373528E0,2.600858688E0,1.009981431E1
1.186666247E1,6.409310818E0,-8.224334717E0,2.678653717E0,1.076541371E1
1.187666200E1,7.374711990E0,-8.394618034E0,2.555042267E0,1.146229601E1
1.188666201E1,9.184648514E0,-7.764814854E0,1.957698822E0,1.218534787E1
1.189666201E1,9.746346474E0,-7.082300186E0,1.263265610E0,1.211387987E1
1.190666201E1,9.702236176E0,-7.174943924E0,1.273358345E0,1.213402854E1
1.191666201E1,1.148213291E1,-4.820522308E0,-1.200543880E0,1.251072009E1
1.192666200E1,1.203630829E1,-3.183126211E0,-1.506922245E0,1.254096585E1
1.193666251E1,1.168619442E1,-3.100219250E0,-1.339604378E0,1.216441693E1
1.194666250E1,9.774009705E0,-4.799655914E0,-6.137008667E-1,1.090617217E1
1.195666250E1,7.864940643E0,-6.169026375E0,-3.226003647E-1,1.000091239E1
1.196666250E1,5.246138573E0,-7.289510727E0,-7.189731598E-1,9.009764645E0
1.197666297E1,3.187184095E0,-7.316040993E0,-9.703683853E-1,8.038918650E0
1.198666250E1,1.301588058E0,-6.598311901E0,-6.176185608E-1,6.753762219E0
1.199666250E1,2.467788696E0,-6.097709656E0,5.441570282E-1,6.600617469E0
1.200666250E1,7.888582230E0,-4.511066914E0,2.784722328E0,9.504427007E0
1.201666250E1,1.165851212E1,-3.429196358E0,4.006055832E0,1.279565456E1
1.202666250E1,1.582497692E1,-1.629689217E0,5.236602783E0,1.674836679E1
1.203666297E1,1.609114456E1,-9.487377405E-1,5.096898079E0,1.690572112E1
1.204666297E1,1.409530735E1,-1.843468904E0,2.669759750E0,1.446387514E1
1.205666297E1,1.203871346E1,-2.468031883E0,6.727313995E-2,1.228927698E1
1.206666297E1,9.181922913E0,-3.080310822E0,-4.346384048E0,1.061541697E1
1.207666344E1,7.551178932E0,-3.309221268E0,-6.416738510E0,1.044728586E1
1.208666344E1,6.282618523E0,-2.879539013E0,-5.689521790E0,8.951742770E0
1.209666344E1,6.220759392E0,-2.102310658E0,-2.701581478E0,7.100429564E0
1.210666344E1,6.942461967E0,-1.445788145E-1,3.226326942E0,7.656883618E0
1.211666390E1,8.034900665E0,1.380609989E0,5.973327637E0,1.010674803E1
1.212666344E1,9.702363968E0,4.007908821E0,7.476200104E0,1.288769831E1
1.213666344E1,1.036306477E1,4.984470367E0,6.944214821E0,1.343354665E1
1.214666344E1,1.133554649E1,6.466225624E0,4.808369637E0,1.390780740E1
1.215666344E1,1.165607929E1,6.795714855E0,2.824122429E0,1.378483197E1
1.216666344E1,1.195042229E1,7.566834927E0,-1.822757721E-1,1.414576997E1
1.217666344E1,1.151049709E1,8.131682396E0,4.382677078E-1,1.409992484E1
1.218666390E1,1.108283234E1,8.983821869E0,2.665042877E0,1.451346552E1
1.219666390E1,1.114985657E1,9.114440918E0,2.680489540E0,1.464845927E1
1.220666390E1,1.232452583E1,9.564770699E0,3.100632668E0,1.590574420E1
1.221666390E1,1.892644501E1,1.073905277E1,2.298179626E0,2.188193786E1
1.222666390E1,2.027670288E1,8.964221001E0,3.672831535E0,2.247201881E1
1.223666340E1,1.979137421E1,7.685621262E0,5.022418976E0,2.181723996E1
1.224666340E1,1.670455551E1,5.113386631E0,7.212615013E0,1.890001886E1
1.225666340E1,1.421588898E1,3.539530039E0,7.737049103E0,1.656748928E1
1.226666340E1,1.046376324E1,6.520987153E-1,6.546250343E0,1.235997441E1
1.227666340E1,9.092399597E0,-9.231679440E-1,5.523113251E0,1.067842448E1
1.228666340E1,7.108752728E0,-3.505963087E0,3.044961929E0,8.491050327E0
1.229666340E1,6.618814468E0,-4.185627460E0,1.762958527E0,8.027216515E0
1.230666340E1,6.166947365E0,-4.755656242E0,3.590354919E-1,7.795922818E0
1.231666340E1,5.809047222E0,-4.705246925E0,6.793174744E-1,7.506387313E0
1.232666387E1,6.241155624E0,-3.458257675E0,4.079479218E0,8.219107029E0
1.233666340E1,6.161039352E0,-2.760506392E0,5.662176132E0,8.811301833E0
1.234666340E1,5.761999130E0,-1.972766757E0,7.482002258E0,9.647424550E0
1.235666340E1,5.733835220E0,-1.209472775E0,8.779241562E0,1.055531966E1
1.236666340E1,6.139001369E0,-6.935683489E-1,1.012139320E1,1.185794988E1
1.237666293E1,5.845992088E0,-6.958795786E-1,9.702703476E0,1.134911127E1
1.238666293E1,4.771553040E0,-7.178825140E-1,7.618388176E0,9.017921718E0
1.239666293E1,3.915492058E0,-7.031438351E-1,6.138684273E0,7.314980103E0
1.240666293E1,1.982361317E0,-7.999207973E-1,4.018344879E0,4.551562945E0
1.241666247E1,8.847178221E-1,-6.676008701E-1,3.174478531E0,3.362399514E0
1.242666247E1,-7.613685131E-1,2.210065126E-1,1.908077240E0,2.066224732E0
1.243666297E1,-1.694605708E0,6.426746249E-1,1.032838821E0,2.086018986E0
1.244666297E1,-3.122968674E0,1.197862864E0,7.705688477E-3,3.344827074E0
1.245666297E1,-3.814260006E0,1.679574966E0,8.661460876E-2,4.168579321E0
1.246666297E1,-3.991661549E0,3.207579613E0,2.377956390E0,5.645937078E0
1.247666297E1,-4.162860394E0,3.931940079E0,3.815495491E0,6.880956713E0
1.248666250E1,-4.701594830E0,4.710175037E0,5.175921440E0,8.430949269E0
1.249666250E1,-5.256012917E0,4.776910305E0,5.127958298E0,8.760165532E0
1.250666250E1,-6.800781250E0,4.806747913E0,4.098416328E0,9.281835353E0
1.251666250E1,-7.501471996E0,4.378471375E0,3.142238617E0,9.236707055E0
1.252666250E1,-8.402918816E0,3.160084963E0,1.589113235E0,9.117042419E0
1.253662916E1,-9.128717422E0,2.817192316E0,1.075145721E0,9.613843802E0
1.254659630E1,-1.049816418E1,2.093417645E0,1.294745445E0,1.078286670E1
1.255656296E1,-1.143753433E1,1.677297711E0,2.197706223E0,1.176692109E1
1.256652963E1,-1.266363525E1,1.748023629E0,4.068178177E0,1.341541345E1
1.257649630E1,-1.319290447E1,2.059228420E0,4.191580772E0,1.399508841E1
1.258646296E1,-1.335116863E1,2.136389256E0,3.001597404E0,1.385017869E1
1.259642963E1,-1.312619877E1,1.972675562E0,2.152317047E0,1.344697035E1
1.260639629E1,-1.213328648E1,1.634406805E0,1.122930527E0,1.229426286E1
1.261636296E1,-1.151304722E1,1.467547536E0,9.731731415E-1,1.164693170E1
1.262632916E1,-1.097920132E1,1.235080242E0,1.036135674E0,1.109693029E1
1.263629583E1,-1.078429890E1,9.378697276E-1,1.280793190E0,1.090051070E1
1.264626249E1,-1.071416283E1,3.208225965E-1,1.665776253E0,1.084762752E1
1.265622959E1,-1.068464470E1,-1.539833099E-1,1.873529434E0,1.084875365E1
1.266619626E1,-1.107853985E1,-9.922810793E-1,1.877015114E0,1.128015304E1
1.267616292E1,-1.138731575E1,-1.332584620E0,1.242150307E0,1.153211512E1
1.268612959E1,-1.139198208E1,-1.604189396E0,3.256282806E-1,1.150898402E1
1.269609626E1,-1.091016865E1,-1.644566774E0,2.923469543E-1,1.103729344E1
1.270606292E1,-9.373760223E0,-1.641017795E0,-4.969606400E-1,9.529285913E0
1.271602959E1,-8.391177177E0,-1.600546122E0,-8.884239197E-1,8.588533016E0
1.272599625E1,-5.931920528E0,-1.281785965E0,-1.338779449E0,6.214739482E0
1.273596242E1,-5.125002384E0,-1.441718578E0,-1.524475098E0,5.537890051E0
1.274592909E1,-4.070464611E0,-2.116054535E0,-1.850069046E0,4.946627580E0
1.275586292E1,-3.759902239E0,-2.609196901E0,-2.061390400E0,5.019372839E0
1.276579672E1,-3.376688242E0,-3.459995985E0,-2.226211548E0,5.322557050E0
1.277573005E1,-3.317752838E0,-3.673380852E0,-1.909860134E0,5.305542056E0
1.278566339E1,-3.428683281E0,-3.666658401E0,-5.314188004E-1,5.048035144E0
1.279559672E1,-3.451042414E0,-3.755723953E0,2.076301575E-1,5.104729810E0
1.280553005E1,-3.029398441E0,-3.734313488E0,1.125112534E0,4.938444123E0
1.281546338E1,-2.472610474E0,-3.835375309E0,1.210089684E0,4.721040495E0
1.282539672E1,-1.610764980E0,-3.955355167E0,1.077346802E0,4.404551561E0
1.283536338E1,-1.325665355E0,-4.118448257E0,1.114500999E0,4.467786606E0
1.284532958E1,-1.703578472E0,-5.053209305E0,9.351892471E-1,5.414026488E0
1.285529625E1,-2.433329105E0,-5.648962975E0,3.791580200E-1,6.162437345E0
1.286526292E1,-4.310045719E0,-5.973777771E0,-8.921995163E-1,7.420143862E0
1.287522958E1,-4.944258690E0,-6.123152733E0,-1.187661171E0,7.959223105E0
1.288519625E1,-4.648923874E0,-6.423039913E0,-8.877229691E-1,7.978470216E0
1.289516291E1,-4.040110111E0,-6.542102814E0,-5.163908005E-1,7.706377774E0
1.290512958E1,-2.351085186E0,-6.454987049E0,5.778408051E-2,6.870065382E0
1.291509624E1,-1.165370464E0,-6.264136314E0,4.810895920E-1,6.389752678E0
1.292506291E1,3.560779989E-1,-6.181255341E0,1.258415222E0,6.318094491E0
1.293502958E1,8.328995705E-1,-6.234057426E0,1.559649467E0,6.479945999E0
1.294499624E1,1.655571580E0,-6.268864155E0,1.698899269E0,6.702673629E0
1.295496248E1,2.076786995E0,-6.328640461E0,1.653046608E0,6.862747073E0
1.296492914E1,1.988718271E0,-6.849036217E0,1.432662964E0,7.274394863E0
1.297489581E1,1.605520129E0,-7.390995502E0,1.007423401E0,7.630164566E0
1.298486247E1,8.783945441E-1,-8.403979301E0,-7.975292206E-2,8.450136425E0
1.299482914E1,8.726162314E-1,-8.645221710E0,-4.891195297E-1,8.702904999E0
1.300479581E1,1.419184208E0,-8.717440605E0,-1.131582260E-1,8.832930392E0
1.301476261E1,1.904720426E0,-8.704798698E0,2.319297791E-1,8.913768659E0
1.302472927E1,3.052485228E0,-8.681131363E0,5.410909653E-1,9.218052247E0
1.303469594E1,3.659001350E0,-8.687769890E0,7.782077789E-1,9.458924034E0
1.304466260E1,4.571577549E0,-8.687608719E0,1.141448021E0,9.883155879E0
1.305466210E1,5.004123688E0,-8.811729431E0,1.195653915E0,1.020379428E1
1.306466164E1,5.971663475E0,-8.813066483E0,1.104145050E0,1.070280532E1
1.307466164E1,6.428026676E0,-8.817256927E0,1.069963455E0,1.096395770E1
1.308466164E1,6.758905888E0,-8.835746765E0,1.293390274E0,1.119937892E1
1.309466164E1,6.795762539E0,-8.647336960E0,1.606069565E0,1.111477775E1
1.310466164E1,7.101354122E0,-8.481325150E0,1.809430122E0,1.120875301E1
1.311466164E1,7.616889000E0,-8.506698608E0,1.584139824E0,1.152781064E1
1.312466164E1,8.347362518E0,-8.431178093E0,1.419284821E0,1.194895788E1
1.313466164E1,8.600287437E0,-8.228359222E0,1.565157890E0,1.200502223E1
1.314466164E1,8.763657570E0,-7.983468056E0,2.182968140E0,1.205416136E1
1.315466164E1,9.169691086E0,-8.060615540E0,2.727153778E0,1.250976120E1
1.316466164E1,9.450606346E0,-7.816718102E0,2.871102333E0,1.259596248E1
1.317466164E1,8.768787384E0,-7.361049652E0,1.858535767E0,1.159874301E1
1.318466164E1,8.310040474E0,-6.823119640E0,-1.134185791E-1,1.075288789E1
1.319466164E1,8.873736382E0,-6.258700371E0,-7.325878143E-1,1.088352942E1
1.320466164E1,1.130557823E1,-5.242866993E0,1.516170502E-1,1.246301493E1
1.321466164E1,1.284918213E1,-4.913451195E0,1.028392792E0,1.379496559E1
1.322466164E1,1.474515724E1,-3.886397362E0,2.059939384E0,1.538723811E1
1.323466164E1,1.462416840E1,-3.539694548E0,2.410594940E0,1.523833018E1
1.324466164E1,1.312750053E1,-3.381482124E0,2.389175415E0,1.376495008E1
1.325466164E1,1.200862408E1,-3.440707684E0,1.552092552E0,1.258787166E1
1.326466214E1,1.046308994E1,-3.063112259E0,-1.569900513E-1,1.090337350E1
1.327466214E1,1.021599388E1,-2.345296621E0,-1.031115532E0,1.053233813E1
1.328466214E1,1.172570801E1,-1.137951493E0,-1.959526062E0,1.194265064E1
1.329466214E1,1.292262936E1,-5.198051929E-1,-2.070358753E0,1.309774531E1
1.330466214E1,1.409359741E1,1.008982182E0,-1.173709869E0,1.417833304E1
1.331466250E1,1.386915493E1,1.550215244E0,-1.039819717E-1,1.395591051E1
1.332466250E1,1.170985699E1,1.391227007E0,1.755861282E0,1.192221926E1
1.333466250E1,1.067924881E1,1.236949205E0,1.530683517E0,1.085906950E1
1.334466250E1,9.546253204E0,1.491252661E0,-1.122950554E0,9.727065471E0
1.335466250E1,8.900803566E0,1.918025970E0,-2.270038605E0,9.383826672E0
1.336466250E1,7.815853119E0,1.857818127E0,-2.528275967E0,8.422067889E0
1.337466300E1,8.188502312E0,2.037266731E0,-2.444019794E0,8.784944997E0
1.338466300E1,8.774057388E0,2.904962540E0,-2.531792641E0,9.582946540E0
1.339466300E1,9.289484024E0,4.026805878E0,-1.066043854E0,1.018067427E1
1.340466300E1,1.036326408E1,5.587019444E0,2.872517586E0,1.211872048E1
1.341466300E1,1.117788982E1,6.386263847E0,5.196048737E0,1.388266939E1
1.342466300E1,1.404229355E1,7.281403065E0,5.648956299E0,1.679629560E1
1.343466300E1,1.623101616E1,7.673600674E0,3.447461128E0,1.828154865E1
1.344466300E1,2.032600594E1,7.690768242E0,-6.902065277E-1,2.174329364E1
1.345466300E1,2.167110825E1,6.659349442E0,-1.617943764E0,2.272887172E1
1.346466300E1,2.198207474E1,4.263396740E0,-7.924194336E-1,2.240571557E1
1.347466300E1,2.135991096E1,2.713194370E0,8.978271484E-2,2.153172731E1
1.348466300E1,1.868820381E1,1.216121912E-1,3.182070732E0,1.895756644E1
1.349466300E1,1.664072609E1,-1.007964611E0,5.058130264E0,1.742166580E1
1.350466300E1,1.315872574E1,-3.167364120E0,6.421434402E0,1.498062343E1
1.351466350E1,1.115737629E1,-4.307834148E0,6.202703476E0,1.347286202E1
1.352466350E1,8.387840271E0,-4.697221279E0,5.717362404E0,1.118516808E1
1.353466350E1,6.922217369E0,-4.451109409E0,5.721299171E0,1.002310992E1
1.354466350E1,5.767618179E0,-3.546717167E0,6.310649872E0,9.255750857E0
1.355466350E1,5.567046165E0,-2.864019632E0,6.591398239E0,9.090717365E0
1.356466300E1,5.470577717E0,-1.705135345E0,6.514552116E0,8.676064567E0
1.357466300E1,5.400707722E0,-1.196592093E0,5.890248299E0,8.080501318E0
1.358466300E1,5.033010006E0,-4.791228771E-1,4.687651634E0,6.894550478E0
1.359466300E1,4.809407711E0,1.061653644E-1,4.307607651E0,6.457333605E0
1.360466300E1,3.574148655E0,9.498240352E-1,4.585318565E0,5.890827671E0
1.361466250E1,2.177772522E0,1.072596073E0,5.183442116E0,5.723742452E0
1.362466250E1,-6.444466710E-1,1.132888436E0,5.454971313E0,5.608516716E0
1.363466250E1,-2.039619446E0,1.245026350E0,4.959842682E0,5.505467966E0
1.364466250E1,-4.519202232E0,1.713310480E0,2.431308746E0,5.410164862E0
1.365466250E1,-5.718842983E0,1.884726644E0,8.615255356E-1,6.082728486E0
1.366466250E1,-7.678200245E0,2.110949039E0,-1.260659218E0,8.062265594E0
1.367466200E1,-8.804082870E0,1.970819831E0,-1.432445526E0,9.134982550E0
1.368466200E1,-1.056236649E1,1.998109341E0,-9.904289246E-2,1.075015517E1
1.369466200E1,-1.124440002E1,2.363657475E0,1.265205383E0,1.155959140E1
1.370466200E1,-1.067640114E1,3.437930107E0,4.036569595E0,1.192052007E1
1.371466200E1,-1.019240665E1,4.007824898E0,4.643485069E0,1.189578780E1
1.372466200E1,-9.169140816E0,4.760002613E0,4.423149109E0,1.123810554E1
1.373466200E1,-9.080716133E0,4.949016571E0,4.010251045E0,1.109208204E1
1.374466200E1,-1.018367481E1,4.151467323E0,3.275088310E0,1.147467285E1
1.375466200E1,-1.139664459E1,3.445194244E0,3.122276306E0,1.230859377E1
1.376466250E1,-1.330501175E1,2.581990004E0,3.027057648E0,1.388715551E1
1.377466250E1,-1.399349785E1,2.037590027E0,3.320785522E0,1.452574857E1
1.378466250E1,-1.377159405E1,1.474065542E0,4.766619682E0,1.464753682E1
1.379466250E1,-1.270553398E1,1.568915129E0,6.327924728E0,1.428057141E1
1.380466250E1,-1.052488995E1,2.198348045E0,8.551643372E0,1.373814568E1
1.381466200E1,-1.011678028E1,2.164507151E0,9.391407967E0,1.397257593E1
1.382466200E1,-1.081847858E1,1.375772595E0,8.623167992E0,1.390292255E1
1.383466200E1,-1.181844330E1,5.125522614E-1,7.430394173E0,1.396957656E1
1.384466200E1,-1.374255562E1,-5.746105909E-1,5.334884644E0,1.475293213E1
1.385466200E1,-1.423936939E1,-1.147129297E0,4.224021912E0,1.489690932E1
1.386466200E1,-1.371623230E1,-1.860640883E0,2.849430084E0,1.413210051E1
1.387466200E1,-1.292115402E1,-2.005501986E0,2.469351768E0,1.330698905E1
1.388466200E1,-1.073392677E1,-2.409744740E0,2.407584190E0,1.126146151E1
1.389466200E1,-9.114083290E0,-3.088612556E0,2.333066940E0,9.901981776E0
1.390466200E1,-6.069293976E0,-3.993789196E0,1.814849854E0,7.488682227E0
1.391466200E1,-4.872364044E0,-4.256503582E0,1.755313873E0,6.703646837E0
1.392466200E1,-3.896517515E0,-5.296535969E0,2.292327881E0,6.963541421E0
1.393466200E1,-3.754889965E0,-6.086339951E0,2.736098289E0,7.656955432E0
1.394466200E1,-4.613939762E0,-7.444536209E0,3.361490250E0,9.381320600E0
1.395466200E1,-5.384253502E0,-8.255225182E0,3.255120277E0,1.037953451E1
1.396466200E1,-6.628899574E0,-9.535576820E0,2.769151688E0,1.193891687E1
1.397466200E1,-6.917300224E0,-1.002920818E1,2.610905647E0,1.245997141E1
1.398466200E1,-6.887572289E0,-1.088915253E1,2.028591156E0,1.304329241E1
1.399466200E1,-6.235298157E0,-1.129714298E1,1.257556915E0,1.296479202E1
1.400466200E1,-5.171228409E0,-1.124333000E1,-5.708894730E-1,1.238870403E1
1.401466250E1,-4.817151546E0,-1.111177444E1,-1.292528152E0,1.217978281E1
1.402466250E1,-4.503901958E0,-1.096496105E1,-1.411878586E0,1.193770936E1
1.403466250E1,-3.693732738E0,-1.097397137E1,-1.245360374E0,1.164571301E1
1.404466250E1,-1.542801976E0,-1.036744690E1,-1.072587013E0,1.053634833E1
1.405466250E1,-5.093473196E-1,-1.012410069E1,-9.045028687E-1,1.017717912E1
1.406466200E1,9.612818956E-1,-1.031735039E1,1.900157928E-1,1.036377769E1
1.407466200E1,1.511767626E0,-1.028075981E1,1.129975319E0,1.045257422E1
1.408466200E1,2.802762508E0,-1.015912914E1,3.311229706E0,1.104661146E1
1.409466200E1,3.493899822E0,-1.026595020E1,4.154782295E0,1.161289307E1
1.410466200E1,4.264368057E0,-1.067720509E1,4.907341003E0,1.250078154E1
1.411466200E1,4.391166210E0,-1.073956585E1,5.126585007E0,1.268473449E1
1.412466200E1,4.397809029E0,-1.141853809E1,5.334172249E0,1.334830064E1
1.413466200E1,4.483295441E0,-1.195213509E1,5.089775085E0,1.374260825E1
1.414466200E1,4.466750622E0,-1.240830898E1,4.693159103E0,1.399799040E1
1.415466200E1,4.861549377E0,-1.278480530E1,4.368350029E0,1.435856507E1
1.416466200E1,5.907955170E0,-1.347247791E1,3.918070793E0,1.522376018E1
1.417466200E1,6.761431694E0,-1.352447128E1,3.786359787E0,1.558732827E1
1.418466200E1,8.633137703E0,-1.321583557E1,4.253996849E0,1.634887964E1
1.419466200E1,1.022552013E1,-1.285725307E1,5.239406586E0,1.724301598E1
1.420466200E1,1.228227615E1,-1.269214439E1,5.527215958E0,1.850661917E1
1.421466200E1,1.292357254E1,-1.257812309E1,4.970286369E0,1.870646023E1
1.422466200E1,1.198060417E1,-1.273407173E1,3.045410156E0,1.774728098E1
1.423466200E1,1.053343105E1,-1.273510456E1,2.272170067E0,1.668229045E1
1.424466200E1,8.850420952E0,-1.248996162E1,1.999115944E0,1.543779638E1
1.425466200E1,9.291061401E0,-1.191495323E1,2.057994843E0,1.524877947E1
1.426466250E1,1.206118965E1,-1.041133690E1,2.002669334E0,1.605860879E1
1.427466300E1,1.463270473E1,-9.467554092E0,2.377250671E0,1.758982516E1
1.428466300E1,1.451065922E1,-9.486137390E0,2.365892410E0,1.749695632E1
1.429466300E1,1.982327080E1,-6.468046188E0,3.790051460E0,2.119344655E1
1.430466300E1,1.727081299E1,-6.334698677E0,4.320144653E0,1.889637633E1
1.431466250E1,1.556325531E1,-6.326117516E0,3.380355835E0,1.713655404E1
1.432466250E1,1.317093468E1,-6.088877201E0,-4.635601044E-1,1.451767315E1
1.433466250E1,1.253808308E1,-5.898205280E0,-2.253103733E0,1.403812057E1
1.434466250E1,1.311169815E1,-4.454916000E0,-4.932847023E0,1.470020016E1
1.435466250E1,1.461816788E1,-3.010053158E0,-4.520391941E0,1.559439628E1
1.436466250E1,1.681928253E1,-5.618290901E-1,-7.671623230E-1,1.684614065E1
1.437466250E1,1.782022095E1,1.113252640E0,2.017653465E0,1.796859849E1
1.438466250E1,1.819991684E1,3.833704472E0,5.428621292E0,1.937535011E1
1.439466250E1,1.717474937E1,4.929025650E0,6.040916443E0,1.886160071E1
1.440466250E1,1.514313889E1,5.975476265E0,2.812710762E0,1.652066324E1
1.441466250E1,1.518715477E1,6.111093044E0,1.660842896E-1,1.637139921E1
1.442466250E1,1.591427231E1,6.944167137E0,-3.634464264E0,1.773964066E1
1.443466250E1,1.680427742E1,6.808320999E0,-4.542768002E0,1.869154128E1
1.444466250E1,2.073183441E1,7.650254250E0,-4.611077309E0,2.257426371E1
1.445466250E1,2.264325333E1,8.428124428E0,-3.526204586E0,2.441688599E1
1.446466250E1,2.359014130E1,8.458123207E0,-1.360301971E-1,2.506098799E1
1.447466250E1,2.332752228E1,7.583491802E0,1.082400322E0,2.455309011E1
1.448466250E1,2.189656067E1,5.153199196E0,1.090953827E0,2.252121247E1
1.449466250E1,2.065035248E1,3.798297405E0,8.721303940E-1,2.101486931E1
1.450466250E1,1.831652069E1,1.504291773E0,9.394292831E-1,1.840218333E1
1.451466257E1,1.740765762E1,2.866623402E-1,1.796265602E0,1.750243667E1
1.452466257E1,1.596718597E1,-1.223325253E0,4.670712471E0,1.668122021E1
1.453466257E1,1.456750584E1,-1.048675537E0,6.573526382E0,1.601634152E1
1.454466257E1,1.142900181E1,-9.867084026E-1,9.786362648E0,1.507874563E1
1.455466257E1,9.025729179E0,-8.296666741E-1,1.092702770E1,1.419690348E1
1.456466207E1,4.239256382E0,-3.386623859E-1,9.973456383E0,1.084231613E1
1.457466157E1,1.921292305E0,1.831288338E-1,8.741457939E0,8.951982305E0
1.458466157E1,-9.452317953E-1,9.338885546E-1,6.996957779E0,7.122010190E0
1.459466157E1,-2.425424099E0,1.722145915E0,6.527363777E0,7.173210334E0
1.460466157E1,-2.972383499E0,3.257001877E0,5.891443253E0,7.358819776E0
1.461466157E1,-2.951249838E0,4.009091377E0,5.558425903E0,7.461822016E0
1.462466157E1,-2.850416660E0,4.916884899E0,5.301573753E0,7.772214389E0
1.463466157E1,-3.405586243E0,5.366470337E0,5.065216064E0,8.127326455E0
1.464466157E1,-5.295545578E0,5.359265804E0,4.734779358E0,8.898464390E0
1.465466157E1,-7.065665722E0,5.010557175E0,3.864012718E0,9.484719795E0
1.466466157E1,-9.826974869E0,4.803503036E0,2.012056351E0,1.112166567E1
1.467466157E1,-1.156700706E1,4.545455933E0,1.228549957E0,1.248864112E1
1.468466157E1,-1.460239792E1,4.147896290E0,1.113510132E0,1.522087295E1
1.469466204E1,-1.567646217E1,4.119768143E0,2.426021576E0,1.638931165E1
1.470466204E1,-1.584835720E1,4.215606213E0,4.061938286E0,1.689500235E1
1.471466204E1,-1.502420902E1,3.832205772E0,3.900828362E0,1.598840579E1
1.472466204E1,-1.270164108E1,3.810247898E0,3.051802635E0,1.360746760E1
1.473466204E1,-1.156985378E1,3.819829226E0,3.428771973E0,1.265737291E1
1.474466204E1,-1.240486431E1,3.179305553E0,4.823499680E0,1.368410726E1
1.475466204E1,-1.376350689E1,2.239592552E0,5.096904755E0,1.484682912E1
1.476466254E1,-1.608339310E1,1.050431490E0,4.819647789E0,1.682283997E1
1.477466254E1,-1.705150414E1,5.614504814E-1,4.166417122E0,1.756211979E1
1.478466254E1,-1.827299690E1,-8.099501133E-1,3.119541168E0,1.855505247E1
1.479466254E1,-1.869721985E1,-1.368694425E0,2.720975876E0,1.894368138E1
1.480466254E1,-1.850345993E1,-2.601420403E0,2.609497070E0,1.886676688E1
1.481466247E1,-1.726501083E1,-3.179659128E0,2.371478081E0,1.771481695E1
1.482466247E1,-1.322663975E1,-2.915076494E0,2.760622025E0,1.382254332E1
1.483466247E1,-1.098412800E1,-2.857831240E0,2.723523140E0,1.167201121E1
1.484466247E1,-6.164451599E0,-2.669951916E0,2.660733223E0,7.225552438E0
1.485466247E1,-4.253407478E0,-2.908401251E0,3.284653664E0,6.110582845E0
1.486466247E1,-3.569657326E0,-4.229633808E0,4.258029938E0,6.983056245E0
1.487466247E1,-4.678812027E0,-5.383019447E0,4.092482567E0,8.222930981E0
1.488466247E1,-6.611600876E0,-6.659880161E0,3.042729378E0,9.865367300E0
1.489466247E1,-7.872950554E0,-8.009164810E0,1.966864586E0,1.140169407E1
1.490466247E1,-9.272067070E0,-1.087323380E1,-3.491334915E-1,1.429406643E1
1.491466247E1,-8.893026352E0,-1.161906528E1,-1.136117458E0,1.467580862E1
1.492466247E1,-6.972645283E0,-1.158448696E1,7.430191040E-1,1.354142525E1
1.493466247E1,-5.979000092E0,-1.134719276E1,2.442725182E0,1.305657428E1
1.494466247E1,-4.285779476E0,-1.132240868E1,3.919536591E0,1.272507804E1
1.495466247E1,-3.074207067E0,-1.108565140E1,3.733202934E0,1.209459467E1
1.496466247E1,-1.598790646E0,-1.104977703E1,1.921120644E0,1.132891912E1
1.497466247E1,-1.219635248E0,-1.146654510E1,8.039331436E-1,1.155921603E1
1.498466247E1,-8.291049004E-1,-1.210157585E1,-7.130994797E-1,1.215088737E1
1.499466200E1,-3.677072525E-1,-1.263618469E1,-1.274452209E0,1.270561296E1
1.500466200E1,5.802584291E-1,-1.320659637E1,-1.764995575E0,1.333664489E1
1.501466250E1,1.138002515E0,-1.339780045E1,-1.263245106E0,1.350525434E1
1.502466250E1,2.614674807E0,-1.332542133E1,1.178703308E0,1.363058031E1
1.503466250E1,3.386586905E0,-1.346614170E1,2.835467339E0,1.417200826E1
1.504466250E1,4.226140499E0,-1.399470520E1,5.318661690E0,1.555635559E1
1.505466250E1,4.006358624E0,-1.437958717E1,6.237490654E0,1.617806312E1
1.506466200E1,3.467693806E0,-1.516101456E1,6.523368835E0,1.686521876E1
1.507466200E1,3.554819584E0,-1.576964092E1,5.713256836E0,1.714525068E1
1.508466200E1,5.634736061E0,-1.669996452E1,4.449917793E0,1.817803163E1
1.509466200E1,7.008769512E0,-1.683588409E1,4.296465874E0,1.873578027E1
1.510466200E1,9.340442657E0,-1.734688187E1,5.406357765E0,2.043004855E1
1.511466200E1,1.040833378E1,-1.722221947E1,5.970881462E0,2.099022822E1
1.512466200E1,1.250976849E1,-1.696521378E1,5.307778358E0,2.173672692E1
1.513466200E1,1.330565357E1,-1.667703056E1,4.187441826E0,2.174162907E1
1.514466200E1,1.385406113E1,-1.552500153E1,1.597371101E0,2.086893089E1
1.515466200E1,1.407808495E1,-1.472564411E1,2.216777802E-1,2.037366465E1
1.516466200E1,1.545048809E1,-1.270908165E1,-4.647006989E-1,2.001135391E1
1.517466200E1,1.596375465E1,-1.129232216E1,1.551837921E-1,1.955459241E1
1.518466200E1,1.726342583E1,-9.043674469E0,1.567722321E0,1.955176904E1
1.519466200E1,1.839109039E1,-7.767571926E0,3.003303528E0,2.018878925E1
1.520466200E1,1.977421570E1,-5.364375114E0,4.373555183E0,2.095051579E1
1.521466200E1,1.950771713E1,-4.573504925E0,3.286304474E0,2.030437815E1
1.522466200E1,1.782933617E1,-3.008926868E0,1.395187378E-1,1.808198923E1
1.523466200E1,1.700484657E1,-2.140720606E0,-1.146678925E0,1.717737943E1
1.524466200E1,1.600248337E1,-2.022888660E-1,-1.313482761E0,1.605757241E1
1.525466200E1,1.582820511E1,1.195394278E0,5.599021912E-3,1.587328182E1
1.526466250E1,1.667208290E1,4.557358265E0,4.241664886E0,1.779661720E1
1.527466250E1,1.760724258E1,6.277430534E0,6.865363121E0,1.991367210E1
1.528466250E1,1.856704903E1,8.213588715E0,1.085777378E1,2.302367478E1
1.529466250E1,1.934747696E1,9.386667252E0,1.237978554E1,2.481317144E1
1.530466250E1,1.951418877E1,1.037519455E1,1.234585094E1,2.531537597E1
1.531466200E1,1.917168999E1,1.016665077E1,1.111363029E1,2.438087905E1
1.532466200E1,1.810772896E1,9.344381332E0,9.194288254E0,2.235491550E1
1.533466200E1,1.767279053E1,9.061158180E0,8.969509125E0,2.179183807E1
1.534466200E1,1.858660507E1,8.937118530E0,1.040587234E1,2.310013322E1
1.535466200E1,2.010313797E1,8.923892021E0,1.088986111E1,2.454304545E1
1.536466200E1,2.239217949E1,7.295724869E0,9.863535881E0,2.553285420E1
1.537466200E1,2.225807190E1,6.284577847E0,9.023833275E0,2.482634186E1
1.538466200E1,1.921865463E1,3.549899101E0,8.927427292E0,2.148621483E1
1.539466200E1,1.679121399E1,1.638157725E0,9.150244713E0,1.919258727E1
1.540466200E1,1.334047890E1,-1.029650569E-1,1.020911980E1,1.679896146E1
1.541466200E1,1.169944382E1,-7.143741250E-1,1.042543602E1,1.568684265E1
1.542466200E1,8.785306931E0,-1.913850904E0,9.482265472E0,1.306743286E1
1.543466200E1,7.205875397E0,-2.119236946E0,8.710214615E0,1.150146269E1
1.544466200E1,4.947508812E0,-1.978547454E0,7.468575478E0,9.174536126E0
1.545466200E1,3.328694105E0,-1.830252886E0,6.924066544E0,7.897640633E0
1.546466200E1,1.410575867E0,-1.246217132E0,5.902497292E0,6.195341451E0
1.547466200E1,1.518216133E-1,-8.726251125E-1,5.116587639E0,5.192686535E0
1.548466200E1,-7.962112427E-1,5.730670691E-2,5.020975113E0,5.084036535E0
1.549466200E1,-1.459154487E0,2.305278778E-1,4.856193542E0,5.075912789E0
1.550466200E1,-3.106025219E0,5.804387927E-1,4.423551559E0,5.436185267E0
1.551466250E1,-4.173038006E0,9.751893878E-1,4.409599304E0,6.148967927E0
1.552466250E1,-6.505903721E0,1.079852939E0,5.150936127E0,8.368094680E0
1.553466250E1,-8.302689552E0,1.184947371E0,4.914198875E0,9.720499198E0
1.554466250E1,-1.240451241E1,1.267833233E0,2.929925919E0,1.280873901E1
1.555466250E1,-1.451948166E1,1.090435982E0,1.044123650E0,1.459775984E1
1.556466200E1,-1.659163094E1,8.530988693E-1,-1.787668228E0,1.670945099E1
1.557466200E1,-1.689602089E1,9.415735006E-1,-2.391134739E0,1.709033668E1
1.558466200E1,-1.644433784E1,8.232433796E-1,-9.112634659E-1,1.649012971E1
1.559466250E1,-1.563798618E1,9.288833141E-1,1.508767128E0,1.573803718E1
1.560466250E1,-1.381540203E1,1.974549770E0,6.846965790E0,1.554493875E1
1.561466250E1,-1.308022976E1,2.531293392E0,7.418849945E0,1.524923576E1
1.562466250E1,-1.198402500E1,2.556984663E0,5.009443283E0,1.323818522E1
1.563466250E1,-1.253297997E1,1.849666357E0,2.870215416E0,1.298980327E1
1.564466250E1,-1.473729992E1,-3.846299648E-1,4.912042618E-1,1.475049934E1
1.565466250E1,-1.638570213E1,-1.659997463E0,7.618427277E-2,1.646974894E1
1.566466250E1,-1.970520973E1,-3.416544437E0,8.052787781E-1,2.001540757E1
1.567466250E1,-2.026943588E1,-4.122900963E0,1.644718170E0,2.074978171E1
1.568466250E1,-1.860862541E1,-3.835276127E0,3.736570358E0,1.936368355E1
1.569466250E1,-1.671853828E1,-3.244289398E0,5.320308685E0,1.784210247E1
1.570466250E1,-1.255415154E1,-1.930602789E0,6.345495224E0,1.419856533E1
1.571466250E1,-1.032564735E1,-1.779591441E0,5.754422188E0,1.195405010E1
1.572466250E1,-7.549635410E0,-2.644259691E0,3.721708298E0,8.822710286E0
1.573466250E1,-6.697349548E0,-3.127594471E0,2.982877731E0,7.970815373E0
1.574466250E1,-6.200225830E0,-4.387081623E0,2.282065392E0,7.930769695E0
1.575466250E1,-6.283278465E0,-5.458172798E0,2.380661011E0,8.656719091E0
1.576466300E1,-6.691193104E0,-6.746325970E0,2.449887276E0,9.812590224E0
1.577466300E1,-6.947874069E0,-7.390848160E0,2.236448288E0,1.038745838E1
1.578466300E1,-7.620029449E0,-8.516288757E0,1.779417038E0,1.156539442E1
1.579466300E1,-7.533303738E0,-9.153882980E0,2.082459450E0,1.203664722E1
1.580466300E1,-7.224785328E0,-1.006268215E1,3.044680595E0,1.275637782E1
1.581466250E1,-6.618278027E0,-1.065598583E1,3.362460136E0,1.298683088E1
1.582466250E1,-4.899244785E0,-1.116122246E1,3.748700142E0,1.275257774E1
1.583466250E1,-3.808660269E0,-1.143530846E1,3.774459839E0,1.263007204E1
1.584466250E1,-2.082484007E0,-1.180850697E1,3.424263954E0,1.247009062E1
1.585466250E1,-6.879121065E-1,-1.173285866E1,2.829055786E0,1.208870349E1
1.586466250E1,7.845391035E-1,-1.205458355E1,8.084173203E-1,1.210710637E1
1.587466250E1,1.284514308E0,-1.216639328E1,-3.208656311E-1,1.223822116E1
1.588466250E1,1.467243195E0,-1.169495201E1,-1.637309551E0,1.189981041E1
1.589466247E1,1.536637425E0,-1.151585770E1,-1.690048695E0,1.174020859E1
1.590466247E1,1.489481211E0,-1.126111317E1,-1.218955040E0,1.142440701E1
1.591466247E1,1.865641117E0,-1.105196762E1,-5.772905350E-1,1.122318446E1
1.592466247E1,3.473931789E0,-1.023067474E1,8.764543533E-1,1.083988376E1
1.593466247E1,4.861694336E0,-9.721221924E0,1.581539154E0,1.098360112E1
1.594466247E1,7.153941154E0,-8.594924927E0,2.897984505E0,1.155205275E1
1.595466297E1,8.168998718E0,-8.238762856E0,2.928474426E0,1.196602340E1
1.596466297E1,8.144515991E0,-7.897132874E0,2.744092941E0,1.167167059E1
1.597466297E1,7.773074150E0,-8.159203529E0,2.988999367E0,1.165879073E1
1.598466297E1,7.183670998E0,-8.835871696E0,4.309858322E0,1.217590393E1
1.599466297E1,7.580090523E0,-8.902578354E0,5.496854782E0,1.292010395E1
1.600466297E1,1.015394020E1,-8.451587677E0,7.493858337E0,1.518847420E1
1.601466343E1,1.209658527E1,-8.095672607E0,7.974317551E0,1.659689822E1
1.602466343E1,1.483572483E1,-7.785293579E0,7.452963829E0,1.833728980E1
1.603466343E1,1.586933708E1,-7.590071678E0,6.710985184E0,1.882770219E1
1.604466343E1,1.533276176E1,-6.995198250E0,5.827789307E0,1.783226038E1
1.605466343E1,1.340787029E1,-6.819397926E0,4.787290573E0,1.578585838E1
1.606466293E1,8.835323334E0,-7.986329079E0,3.182821274E0,1.232780361E1
1.607466293E1,7.630945683E0,-8.620395660E0,3.961715221E0,1.217529223E1
1.608466293E1,7.799833298E0,-9.361886978E0,4.806328297E0,1.309897397E1
1.609466293E1,9.660315514E0,-8.980134964E0,4.207717419E0,1.384447203E1
1.610466293E1,1.328963566E1,-7.055198193E0,4.648050308E0,1.574784459E1
1.611466293E1,1.491310787E1,-6.117426872E0,5.228069782E0,1.694569006E1
1.612466293E1,1.785966682E1,-3.672011614E0,6.978972435E0,1.952325343E1
1.613466293E1,1.852563667E1,-2.665992737E0,6.973835468E0,1.997351027E1
1.614466293E1,1.891341400E1,-1.865960598E0,3.927884102E0,1.940688825E1
1.615466293E1,1.738724899E1,-1.207892895E0,2.359227180E0,1.758810353E1
1.616466293E1,1.404464436E1,-6.517004967E-1,2.772934437E0,1.433059364E1
1.617466293E1,1.318869209E1,6.284189224E-2,3.516283989E0,1.364953484E1
1.618466293E1,1.461096859E1,2.103062153E0,4.806861877E0,1.552447083E1
1.619466247E1,1.609584427E1,3.020990372E0,4.635724068E0,1.702035614E1
1.620466247E1,1.756451035E1,5.840265274E0,5.255694389E0,1.924170070E1
1.621466247E1,1.784775543E1,7.224847317E0,6.019643784E0,2.017366858E1
1.622462913E1,1.907758904E1,8.837090492E0,6.384126186E0,2.197283866E1
1.623459626E1,1.992326736E1,9.769580841E0,6.119235039E0,2.301795668E1
1.624456293E1,2.021429062E1,1.033341599E1,4.071271420E0,2.306452432E1
1.625452873E1,1.941968727E1,9.908159256E0,2.656604290E0,2.196254584E1
1.626449540E1,1.959494019E1,1.008565903E1,2.644563675E0,2.219630410E1
1.627446206E1,1.978545761E1,1.029979420E1,2.629560947E0,2.246029128E1
1.628442873E1,1.995150757E1,1.054044342E1,2.598862171E0,2.271382148E1
1.629439540E1,2.006834602E1,1.079685974E1,2.544556618E0,2.293001223E1
1.630436206E1,1.695195007E1,7.458423615E0,2.289163589E0,1.866110833E1
1.631432826E1,1.743838692E1,7.271263123E0,4.541938782E0,1.943187622E1
1.632429493E1,1.814518738E1,5.074220657E0,6.643562317E0,1.997829974E1
1.633426159E1,1.921304321E1,3.799080372E0,5.262426376E0,2.027972319E1
1.634422826E1,2.103990936E1,2.496362686E0,1.815442085E0,2.126512268E1
1.635419492E1,2.010126495E1,9.812766314E-1,2.002640724E0,2.022459706E1
1.636416159E1,1.600524139E1,-2.512764692E0,4.989819527E0,1.695228708E1
1.637412872E1,1.311459160E1,-3.657864332E0,6.430461884E0,1.505733457E1
1.638409539E1,8.331924438E0,-4.861880302E0,8.089298248E0,1.258950321E1
1.639406206E1,5.241868973E0,-4.649720192E0,7.905222893E0,1.056359963E1
1.640402872E1,9.595718384E-1,-3.740999460E0,8.645734787E0,9.469138561E0
1.641399539E1,-4.520592690E-1,-2.291357994E0,1.078604317E1,1.103600499E1
1.642396205E1,-2.515245676E0,1.859261841E-1,1.237385368E1,1.262827321E1
1.643392872E1,-2.734892607E0,1.452098727E0,1.247375202E1,1.285234289E1
1.644389539E1,-2.414441586E0,3.925971985E0,1.108099270E1,1.200129924E1
1.645386205E1,-3.387242794E0,4.728822708E0,1.012434101E1,1.167636325E1
1.646382872E1,-8.184955597E0,4.650312901E0,9.910401344E0,1.366875865E1
1.647379538E1,-1.204929256E1,4.070062637E0,1.006037140E1,1.621610107E1
1.648376252E1,-1.995002747E1,3.181052208E0,9.208596230E0,2.220182275E1
1.649372918E1,-2.323347855E1,3.003743172E0,7.842865944E0,2.470480813E1
1.650369585E1,-2.660676765E1,3.540634871E0,3.502856255E0,2.706891542E1
1.651366252E1,-2.504955864E1,4.511545658E0,3.201910973E0,2.565319992E1
1.652366252E1,-1.789276886E1,6.466771603E0,6.190085411E0,2.000718545E1
1.653366205E1,-1.508346844E1,7.316683292E0,7.253620148E0,1.826635924E1
1.654366205E1,-1.228300381E1,8.367166519E0,8.107402802E0,1.692960833E1
1.655366241E1,-1.099692249E1,8.334264755E0,8.522937775E0,1.621828418E1
1.656366241E1,-1.089110470E1,7.134310722E0,8.020621300E0,1.529198866E1
1.657366241E1,-1.227739811E1,6.025501728E0,6.836177826E0,1.528968615E1
1.658366241E1,-1.452023697E1,3.378271818E0,4.939086914E0,1.570492221E1
1.659366241E1,-1.660474968E1,1.848124743E0,3.791469574E0,1.713209031E1
1.660366241E1,-2.047060013E1,-1.232937574E0,2.045038223E0,2.060941013E1
1.661366241E1,-2.082697678E1,-2.240952969E0,2.714615822E0,2.112235713E1
1.662366288E1,-1.804772568E1,-1.943020105E0,5.243974686E0,1.889431131E1
1.663366288E1,-1.591517067E1,-1.444947600E0,6.481548309E0,1.724502825E1
1.664366288E1,-1.129292488E1,-1.675906658E0,8.136348724E0,1.401923629E1
1.665366288E1,-9.050523758E0,-2.344820738E0,7.888351440E0,1.223258979E1
1.666366288E1,-9.199376106E0,-2.518205881E0,7.920034409E0,1.239745243E1
1.667366241E1,-6.498878479E0,-4.531783581E0,5.447909355E0,9.615206719E0
1.668366241E1,-7.393842220E0,-6.108084202E0,2.946878433E0,1.003302985E1
1.669362958E1,-8.157240868E0,-7.314029694E0,2.277654648E0,1.119032259E1
