"Time (s)","Linear Acceleration x (m/s^2)","Linear Acceleration y (m/s^2)","Linear Acceleration z (m/s^2)","Absolute acceleration (m/s^2)"
0.000000000E0,-9.366670285E-2,1.017814779E-1,-5.428117384E-2,1.485912726E-1
9.997999994E-3,-9.591424464E-2,1.036620064E-1,-5.419551213E-2,1.512696514E-1
1.999700000E-2,1.789475254E-2,1.092589977E-1,-2.505816411E-1,2.739505605E-1
3.001300000E-2,-6.318574324E-2,1.056449982E-1,5.855366580E-2,1.363152067E-1
4.001100000E-2,-7.117680854E-2,1.494500173E-1,1.804100283E-1,2.448453063E-1
4.999599999E-2,8.847626999E-3,1.135644579E-1,2.319227191E-1,2.583859792E-1
6.000999999E-2,1.041507971E-1,8.235816037E-2,-2.312185316E-1,2.666313269E-1
7.000800000E-2,7.006374536E-2,1.672647543E-2,-2.750731424E-1,2.843482672E-1
7.997699999E-2,2.440634666E-2,6.432969617E-3,-1.269764723E-1,1.294607175E-1
9.000600000E-2,-7.867795025E-2,1.673352407E-2,4.414084109E-2,9.175317180E-2
1.000040000E-1,-6.416460369E-3,4.895621505E-2,1.691259984E-1,1.761859396E-1
1.099950000E-1,-4.480610806E-2,7.955311398E-2,1.964809726E-1,2.166588513E-1
1.200030000E-1,4.978730539E-2,9.436538117E-2,-4.197131395E-2,1.146524842E-1
1.300010000E-1,9.173094557E-2,9.405975452E-2,-2.398043821E-1,2.734372788E-1
1.399920000E-1,6.229771107E-2,5.194037810E-2,-8.745546148E-2,1.192781012E-1
1.499970000E-1,7.240768169E-3,2.923837147E-2,-1.134049560E-3,3.014294541E-2
1.599950000E-1,1.398338554E-2,2.945443522E-2,-1.092070949E-3,3.262347996E-2
1.699810000E-1,-9.800292489E-2,1.062475743E-2,1.122010608E-1,1.493537305E-1
1.799980000E-1,-5.646300298E-2,2.880622340E-2,1.047730596E-1,1.224551478E-1
1.899960000E-1,-5.386850660E-2,2.763035519E-2,1.047376748E-1,1.209761673E-1
1.999900000E-1,-1.223551528E-1,-1.307028846E-1,-2.048744679E-1,2.720800894E-1
2.099950000E-1,-1.033293638E-1,-1.014901107E-2,2.365352221E-1,2.583193201E-1
2.199930000E-1,-1.024332688E-1,-1.114280133E-2,2.364976537E-1,2.579687516E-1
2.299880000E-1,-4.366799321E-2,8.391858123E-2,-4.171756763E-2,1.033904123E-1
2.399910000E-1,2.120965102E-1,8.439788846E-2,-1.530385357E-1,2.748249018E-1
2.499890000E-1,2.092773300E-1,8.292673814E-2,-1.531241061E-1,2.722514217E-1
2.599780000E-1,-2.854765998E-2,6.793576085E-2,-9.475283230E-2,1.200347271E-1
2.699890000E-1,-2.460981377E-2,3.936151431E-2,7.513266920E-2,8.831698434E-2
2.799870000E-1,-1.829505270E-2,4.539628854E-2,7.544846909E-2,8.993332783E-2
2.899860000E-1,-1.827800510E-1,-8.734643832E-2,3.217229415E-1,3.801888983E-1
2.999850000E-1,1.799736798E-1,-2.401082820E-2,6.476539596E-2,1.927734469E-1
3.099830000E-1,1.762352990E-1,-2.286226602E-2,6.479293726E-2,1.891551970E-1
3.199540000E-1,-7.334255783E-2,3.540843965E-3,2.850194024E-1,2.943258876E-1
3.299820000E-1,2.141130321E-1,1.254448124E-1,3.687944893E-1,4.445111549E-1
3.399800000E-1,2.028030004E-1,1.269673817E-1,3.688152103E-1,4.396298811E-1
3.499530000E-1,-8.434688064E-2,8.057179031E-2,-9.620528432E-1,9.690984897E-1
3.599800000E-1,3.570675328E-1,-1.156103804E-1,-5.752229096E-1,6.868365008E-1
3.699780000E-1,3.759624082E-1,-1.066075595E-1,-5.747098164E-1,6.949850914E-1
3.799680000E-1,6.587526510E-1,1.483116649E-1,1.060718760E0,1.257408324E0
3.899760000E-1,1.536648712E0,1.660908732E-1,-2.284373949E-1,1.562388903E0
3.999740000E-1,1.548695292E0,1.632749455E-1,-2.285359387E-1,1.573958224E0
4.099740000E-1,1.471209890E0,-1.486107865E-1,-1.356809116E-1,1.484908420E0
4.199730000E-1,3.476333062E-1,-3.431663989E-1,1.063676501E-1,4.999261644E-1
4.299710000E-1,3.718481611E-1,-3.506303697E-1,1.062319764E-1,5.220133560E-1
4.399710000E-1,3.974726701E-1,-4.618207667E-1,2.286098329E-1,6.507882910E-1
4.499650000E-1,3.456356050E-1,-8.205832612E-1,-1.482203273E-2,8.905282436E-1
4.599630000E-1,3.616549293E-1,-8.317232303E-1,-1.507042404E-2,9.070749348E-1
4.699680000E-1,7.629528113E-1,-3.780406183E-1,2.186271192E-2,8.517568195E-1
4.799640000E-1,1.779060093E0,-3.456615885E-1,1.077456196E-1,1.815529088E0
4.899620000E-1,1.794581235E0,-3.653522700E-1,1.072917386E-1,1.834534166E0
4.999650000E-1,2.009064268E0,-3.739784480E-1,4.310667878E-1,2.088544395E0
5.099600000E-1,1.839001071E0,-3.971326545E-2,-3.263142483E-1,1.868149638E0
5.199580000E-1,1.866517921E0,-5.898816874E-2,-3.262270517E-1,1.895730161E0
5.299610000E-1,1.741657794E0,-2.877825407E-1,-6.169723217E-1,1.869985430E0
5.399610000E-1,6.860447493E-1,-8.879789083E-2,-9.067435370E-2,6.976849589E-1
5.499590000E-1,7.349142428E-1,-1.113646075E-1,-8.929171560E-2,7.486481354E-1
5.599540000E-1,4.258613406E-1,-1.276964107E-1,-2.267679965E-1,4.990871457E-1
5.699300000E-1,8.588891703E-3,1.941565582E-1,1.611306619E-1,2.524552007E-1
5.799280000E-1,5.907840772E-2,1.666708805E-1,1.633918168E-1,2.407619705E-1
5.899560000E-1,4.826179241E-1,6.569561031E-2,3.023690779E-1,5.732914033E-1
5.999280000E-1,1.420031843E0,4.496771505E-2,-1.197966488E-1,1.425785316E0
6.099260000E-1,1.403820876E0,5.464593046E-3,-1.212029224E-1,1.409053960E0
6.199520000E-1,8.839461020E-1,-2.516308508E-1,-7.727216997E-2,9.223067735E-1
6.299500000E-1,4.204085927E-1,-3.242208720E-1,-1.330722769E-1,5.473306035E-1
6.399480000E-1,4.167179764E-1,-3.751056449E-1,-1.330487144E-1,5.762465420E-1
6.499490000E-1,1.441588042E0,-4.582731513E-1,-3.104271806E-1,1.544200569E0
6.599300000E-1,1.809269587E0,-5.084766140E-1,4.557786286E-2,1.879915489E0
6.699280000E-1,1.825756250E0,-5.411753768E-1,4.710685951E-2,1.904855829E0
6.799460000E-1,1.844857788E0,-3.132606317E-1,1.415834109E-1,1.876613531E0
6.899210000E-1,1.065436148E0,3.893903562E-1,3.011460231E-1,1.173655810E0
6.999190000E-1,1.034795641E0,3.449721653E-1,3.006859386E-1,1.131468005E0
7.099400000E-1,1.089927137E0,-6.620355519E-2,1.198685330E-1,1.098495580E0
7.199290000E-1,1.066908623E0,-1.150482437E-1,1.205832820E-1,1.079847413E0
7.299270000E-1,1.060736960E0,-1.516585472E-1,-3.621398097E-2,1.072135563E0
7.399400000E-1,1.077399112E0,-2.791306898E-1,-4.688493392E-1,1.207693045E0
7.499390000E-1,1.062186119E0,-3.042110605E-1,-4.683112126E-1,1.200041296E0
7.599370000E-1,8.873456731E-1,-3.419926800E-1,-2.019742490E-1,9.721805049E-1
7.699370000E-1,1.113876455E0,-1.812217497E-1,2.823462381E-1,1.163306270E0
7.799360000E-1,1.088210395E0,-1.993077542E-1,2.823164356E-1,1.141765306E0
7.899340000E-1,1.241253663E0,-4.919338177E-1,2.464375732E-1,1.357733779E0
7.999350000E-1,3.906447667E-1,7.458152344E-2,1.976113856E-1,4.440900777E-1
8.099330000E-1,3.570552171E-1,1.055858865E-1,1.949156547E-1,4.202724354E-1
8.199310000E-1,3.199498830E-1,-3.122137608E-1,-1.615255317E-1,4.753271057E-1
8.299310000E-1,1.141104307E0,-2.869200581E-1,-5.460439513E-1,1.297153097E0
8.399300000E-1,1.094575747E0,-2.663422627E-1,-5.477608400E-1,1.252627720E0
8.499280000E-1,1.090749987E0,1.275788109E-2,-7.873234215E-1,1.345279327E0
8.599280000E-1,1.036575844E-1,-2.407137338E-1,-5.329593080E-1,5.939138156E-1
8.699270000E-1,9.304807657E-2,-2.543181580E-1,-5.324478228E-1,5.973578107E-1
8.799250000E-1,4.653377938E-1,-7.993810745E-3,-8.663096570E-1,9.834101816E-1
8.899010000E-1,1.604858328E-2,-1.187063258E-1,2.521995474E-1,2.792012903E-1
8.999250000E-1,5.062225581E-2,-1.481364677E-1,2.542094547E-1,2.985455956E-1
9.099230000E-1,5.473411561E-1,-4.292504964E-1,1.288097389E-1,7.074109687E-1
9.199220000E-1,1.725477479E-2,2.915249597E-1,9.032863525E-1,9.493212122E-1
9.299210000E-1,7.105725582E-2,2.861613636E-1,9.051957607E-1,9.520067357E-1
9.399190000E-1,1.143283327E-1,3.048045712E-1,9.056280892E-1,9.623611745E-1
9.498980000E-1,4.776732536E-2,1.830107236E-1,8.211554843E-1,8.426570903E-1
9.599190000E-1,8.302040323E-2,-3.786047467E-2,5.479494127E-1,5.554947001E-1
9.699170000E-1,6.564136825E-2,5.543485690E-2,5.440765460E-1,5.508185731E-1
9.798970000E-1,4.039243416E-1,8.087832876E-1,-5.162862649E-1,1.041074823E0
9.899150000E-1,4.720387761E-2,6.284578612E-1,-6.170063818E-1,8.819775306E-1
9.999130000E-1,4.753388441E-2,6.251833474E-1,-6.169289061E-1,8.796106885E-1
1.009900000E0,1.199878911E0,-5.321802030E-1,-1.502797554E-1,1.321177193E0
1.019913000E0,1.476200197E0,-3.695382186E-1,1.324719871E-1,1.527505922E0
1.029911000E0,1.459579925E0,-3.985676343E-1,1.327488984E-1,1.518832442E0
1.039894000E0,1.739723389E0,-5.039105599E-1,-2.028996074E-1,1.822561816E0
1.049909000E0,1.419630870E0,-1.006689099E0,-8.375212562E-1,1.931376867E0
1.059907000E0,1.386436958E0,-1.005792648E0,-8.382472611E-1,1.906956937E0
1.069907000E0,8.847714365E-1,-6.979944847E-1,-6.773005307E-1,1.314820446E0
1.079881000E0,5.778747681E-1,-6.634596596E-1,-5.248435554E-1,1.024489495E0
1.089879000E0,5.941613102E-1,-6.379372942E-1,-5.252265480E-1,1.017769414E0
1.099904000E0,9.608503633E-1,-4.634015615E-1,-1.946278803E-1,1.084368221E0
1.109903000E0,6.239028072E-1,-1.607029016E-1,1.155167610E-1,6.545412572E-1
1.119901000E0,6.769243354E-1,-1.293450058E-1,1.164980883E-1,6.989481318E-1
1.129900000E0,-3.071974071E-2,5.847763098E-1,1.668027169E0,1.767829650E0
1.139901000E0,2.621386993E-1,1.053911724E0,1.463041476E0,1.822069423E0
1.149899000E0,2.410225946E-1,1.016504820E0,1.463029782E0,1.797729146E0
1.159898000E0,1.708381545E-1,8.222696713E-1,2.257012086E-1,8.696287270E-1
1.169886000E0,-1.459918277E-1,6.619338652E-2,-4.568250061E-2,1.666795400E-1
1.179884000E0,-1.888733065E-1,2.452137920E-2,-4.530820572E-2,1.957734851E-1
1.189895000E0,4.107534693E-2,-4.678615252E-1,-5.323995832E-1,7.099513414E-1
1.199882000E0,3.612697075E-1,-1.014053521E0,-4.937687470E-1,1.184325935E0
1.209880000E0,3.587154975E-1,-1.031579088E0,-4.931085598E-1,1.198327282E0
1.219891000E0,8.695229944E-1,-9.264898583E-1,-3.900970288E-1,1.329146112E0
1.229866000E0,6.502650520E-1,-7.799733252E-1,-1.282934297E-1,1.023553726E0
1.239864000E0,6.482570451E-1,-7.781125950E-1,-1.284028183E-1,1.020873984E0
1.249889000E0,6.621168465E-1,-4.076599450E-1,-5.794340743E-1,9.697057263E-1
1.259871000E0,-5.831264174E-2,-4.893344014E-1,-2.512207966E-1,5.531368811E-1
1.269869000E0,-6.479950624E-2,-4.352064338E-1,-2.532393650E-1,5.076748881E-1
1.279886000E0,8.457817457E-2,-2.545894871E-1,2.962041575E-1,3.996325531E-1
1.289881000E0,-5.146394697E-1,3.585472438E-1,6.379974474E-1,8.946790781E-1
1.299879000E0,-6.731449145E-1,8.894609034E-2,1.330398522E-1,6.919068472E-1
1.309883000E0,-2.520537690E-1,3.634542272E-1,2.012114980E-1,4.859178373E-1
1.319869000E0,-2.644456954E-2,6.236261608E-1,1.640456451E-1,6.453835118E-1
1.329867000E0,3.377771173E-3,5.753334585E-1,1.650536685E-1,5.985505086E-1
1.339855000E0,-4.245714083E-1,4.014991724E-1,1.280932288E-2,5.844882761E-1
1.349877000E0,9.306953768E-2,-4.152980166E-1,-5.680901470E-1,7.098315269E-1
1.359875000E0,1.375173393E-1,-4.774122211E-1,-5.649238798E-1,7.523113965E-1
1.369877000E0,2.942124131E-1,-7.827123072E-1,-3.627252622E-1,9.114653672E-1
1.379874000E0,1.238851334E0,-8.510733479E-1,-5.843576674E-2,1.504158639E0
1.389872000E0,1.264092449E0,-8.684707879E-1,-5.659245485E-2,1.534722755E0
1.399873000E0,1.050339295E0,-7.117834617E-1,1.081699666E0,1.667309959E0
1.409865000E0,1.910987020E0,2.775685330E-1,4.976146070E-1,1.994125366E0
1.419863000E0,1.874362984E0,4.270448536E-1,4.926765602E-1,1.984523645E0
1.429871000E0,2.074367580E0,-8.498324043E-2,-8.563207123E-1,2.245775628E0
1.439861000E0,1.928915314E0,-5.105642527E-1,-1.219370897E0,2.338430142E0
1.449859000E0,1.883688270E0,-4.930252005E-1,-1.220407389E0,2.297988151E0
1.459868000E0,2.008100793E0,-4.338482352E-1,-7.460941923E-1,2.185714901E0
1.469862000E0,1.328659451E0,-6.505063228E-1,3.445449165E-1,1.518948851E0
1.479860000E0,1.319194709E0,-6.796299152E-1,3.444564408E-1,1.523424347E0
1.489864000E0,1.288449318E0,-4.637619692E-1,1.816705601E-1,1.381369249E0
1.499864000E0,-1.064923420E-1,-5.840128096E-1,1.473749592E-2,5.938255421E-1
1.509862000E0,-4.839052434E-2,-5.782505979E-1,1.604489337E-2,5.804936136E-1
1.519862000E0,-7.287405333E-1,4.963472595E-1,1.115970636E0,1.422256597E0
1.529853000E0,-1.957122099E-1,9.942256855E-1,1.375904368E0,1.708771727E0
1.539851000E0,-2.254142016E-1,9.296278397E-1,1.375946322E0,1.675782732E0
1.549859000E0,5.540505803E-1,5.884910825E-1,7.120457824E-1,1.077173615E0
1.559846000E0,-5.610547772E-1,-5.907833737E-1,-2.610452883E-1,8.555419921E-1
1.569844000E0,-6.420115609E-1,-6.108963703E-1,-2.610150290E-1,9.238517549E-1
1.579856000E0,-6.329643834E-1,-6.130160225E-1,-9.689100192E-1,1.309663766E0
1.589827000E0,-1.215414086E0,-7.137666911E-1,-3.541130809E-1,1.453303260E0
1.599825000E0,-1.179850517E0,-7.416594446E-1,-3.533512253E-1,1.437693661E0
1.609852000E0,1.987908969E-1,-3.183896631E-1,4.464028650E-1,5.832369297E-1
1.619826000E0,6.968414868E-1,-1.901360858E-1,2.244575058E-1,7.563867799E-1
1.629824000E0,7.524089659E-1,-1.783992987E-1,2.248940370E-1,8.053091888E-1
1.639850000E0,-7.111312414E-2,1.825224080E-1,-3.483640254E-1,3.996611065E-1
1.649838000E0,-5.692617098E-1,3.351822452E-1,-3.046916651E-1,7.274909226E-1
1.659836000E0,-5.674092388E-1,3.449203443E-1,-3.049373760E-1,7.306915160E-1
1.669847000E0,2.863852571E-1,-3.303495580E-1,-1.548747807E-1,4.638249063E-1
1.679846000E0,2.836269976E-1,-3.586246098E-1,-1.540501771E-1,4.824804054E-1
1.689844000E0,2.754338059E-1,-4.035535551E-1,-1.526560182E-1,5.118819328E-1
1.699843000E0,-4.293438326E-1,-7.590952570E-1,-5.051363190E-1,1.007831552E0
1.709843000E0,-3.989450355E-1,-8.135115655E-1,-5.018660078E-1,1.035773961E0
1.719841000E0,-9.009052201E-1,-6.258426210E-1,-4.275486643E-1,1.177330481E0
1.729841000E0,-2.743687831E0,-2.151806880E-2,2.937599044E0,4.019673380E0
1.739841000E0,-2.747439989E0,9.443917486E-2,2.931926368E0,4.019146362E0
1.749839000E0,-1.870002423E-1,-3.044671320E-1,-8.569912418E-1,9.284951877E-1
1.759838000E0,2.422158469E-1,-6.517402314E-1,-2.179714672E0,2.287922616E0
1.769837000E0,3.814007665E-2,-9.632730840E-1,-2.234362311E0,2.433459397E0
1.779835000E0,-4.429005016E-2,-9.047748343E-1,-2.235280762E0,2.411858038E0
1.789833000E0,-1.080992592E0,2.059606065E-1,4.352799259E-1,1.183399074E0
1.799834000E0,-1.953924147E0,3.495630701E-1,2.002632623E0,2.819672204E0
1.809832000E0,-2.005040214E0,4.180459522E-1,2.004612198E0,2.865906269E0
1.819832000E0,-4.230483329E0,1.044380543E0,2.142309887E0,4.855637092E0
1.829831000E0,-4.227184037E0,1.525117418E0,1.617378149E0,4.776084181E0
1.839829000E0,-5.027552378E0,2.762115331E0,9.338699216E-1,5.811856592E0
1.849828000E0,-3.910689749E0,1.561120771E0,4.875757874E-2,4.211053274E0
1.859827000E0,-1.760163939E0,3.626248773E-2,2.076575142E-2,1.760659898E0
1.869825000E0,-1.825932982E0,2.145939108E-2,2.203581234E-2,1.826192032E0
1.879799000E0,-2.274581690E-1,7.277721430E-2,-8.468719773E-2,2.533883640E-1
1.889825000E0,-1.033230342E0,1.551747977E-1,7.131761680E-2,1.047248948E0
1.899823000E0,-1.707049440E0,-1.464860362E-1,-2.277235412E-1,1.728390569E0
1.909824000E0,-3.275633890E0,-1.968341992E-1,3.451633692E-1,3.299645259E0
1.919822000E0,-2.617253487E0,1.582331290E-1,3.269057307E-1,2.642332473E0
1.929820000E0,-2.555697217E0,1.360404149E-1,3.230987182E-1,2.579629438E0
1.939796000E0,9.585186399E-1,-6.408536661E-1,3.877919468E-1,1.216484278E0
1.949819000E0,1.663042856E0,-1.064840536E0,6.607887246E-1,2.082363716E0
1.959817000E0,1.574294694E0,-3.530713629E-1,-2.030423891E-1,1.626127112E0
1.969796000E0,5.093262875E-1,-3.266029180E-1,-1.017036405E0,1.183404319E0
1.979817000E0,-3.639293866E-1,-1.158073804E0,-1.534662230E-1,1.223573217E0
1.989815000E0,-3.397885355E-1,-1.201343493E0,-1.546777478E-1,1.258017346E0
1.999794000E0,6.401568241E-1,-1.295826677E-1,-4.725813246E-1,8.061795926E-1
2.009813000E0,2.069476713E-2,-3.138878918E-1,-3.453557426E-1,4.671450213E-1
2.019811000E0,3.747085094E-1,-4.409798283E-1,-4.559232650E-1,7.367059790E-1
2.029793000E0,3.046121247E-1,-1.243821322E0,-4.367378561E-1,1.353004058E0
2.039810000E0,5.371611171E-1,-1.915312790E0,-4.408518474E-1,2.037477730E0
2.049808000E0,5.470635596E-1,-1.961805171E0,-4.401967034E-1,2.083682126E0
2.059792000E0,1.050991478E0,-2.344490525E0,-9.365955281E-1,2.734671844E0
2.069807000E0,3.504037535E-1,-9.887133691E-1,-1.224198066E0,1.612140757E0
2.079805000E0,2.199478590E-1,5.217867406E-1,-1.915897511E0,1.997824251E0
2.089791000E0,-2.532406624E-1,1.285020511E0,-2.083712454E0,2.461151385E0
2.099805000E0,-1.220724820E0,1.939708250E0,-1.604399230E0,2.797630081E0
2.109803000E0,-9.334028021E-1,2.445623967E0,-1.804401341E0,3.179336657E0
2.119784000E0,-1.123129163E0,1.719779706E0,-1.443973414E0,2.510800783E0
2.129801000E0,-1.454556582E0,5.462316835E-1,-1.246581975E-1,1.558731397E0
2.139799000E0,-1.174662355E0,-9.190559459E-2,5.889095238E-1,1.317229181E0
2.149784000E0,-1.706066523E0,-6.754523720E-1,2.652444077E0,3.225268744E0
2.159798000E0,-1.510357730E0,-8.475525932E-1,3.262568286E0,3.693761998E0
2.169796000E0,-1.518004426E0,-6.786879288E-1,3.260346052E0,3.659892228E0
2.179796000E0,-1.493518626E0,-1.701443093E-1,2.331873403E0,2.774379307E0
2.189796000E0,1.732882293E-1,7.125848226E-1,4.026314492E-1,8.366110349E-1
2.199794000E0,1.093042223E-1,3.657248472E-1,-8.188244187E-1,9.034243220E-1
2.209792000E0,1.215597616E0,1.663958055E-1,-1.443767299E0,1.894684444E0
2.219793000E0,2.028872588E0,3.361759795E-1,-1.719241616E0,2.680509280E0
2.229791000E0,2.021790587E0,1.679507264E-1,-1.726291019E0,2.663817806E0
2.239790000E0,2.049635759E0,-4.192771200E-1,1.692729280E-1,2.098917190E0
2.249789000E0,3.817329523E-1,-5.916612601E-1,1.407519679E0,1.573815345E0
2.259787000E0,2.146248280E-1,3.278501657E-1,7.912512155E-1,8.829654772E-1
2.269787000E0,-3.856761318E-1,8.093862087E-1,5.003905726E-1,1.026763283E0
2.279786000E0,-6.173198656E-1,1.052245706E0,1.307350881E0,1.788147412E0
2.289784000E0,-7.135266629E-1,1.070639365E0,1.310925576E0,1.836821934E0
2.299784000E0,3.799198403E-1,1.469225638E0,9.070569295E-1,1.767969268E0
2.309783000E0,5.251507534E-1,1.136708517E0,1.135646864E-1,1.257293325E0
2.319781000E0,4.944949712E-1,1.160159360E0,1.159957028E-1,1.266471484E0
2.329781000E0,1.321673471E-1,4.400079480E-1,-3.864920011E-1,6.003759396E-1
2.339780000E0,8.776434613E-1,4.312078153E-1,-5.196257468E-2,9.792335443E-1
2.349778000E0,8.565864683E-1,4.559904349E-1,-4.962242761E-2,9.716635424E-1
2.359778000E0,1.529801330E0,1.830599316E-1,-1.070603771E0,1.876165100E0
2.369777000E0,9.925940931E-1,-1.572293631E-1,-1.122080903E0,1.506329864E0
2.379775000E0,9.968605140E-1,-1.397973514E-1,-1.121433251E0,1.506946157E0
2.389749000E0,-4.668591480E-2,-6.289841107E-1,9.882625854E-2,6.384099118E-1
2.399764000E0,-3.891833283E-1,-8.530637401E-1,4.551598744E-2,9.387508257E-1
2.409762000E0,-3.193748458E-1,-8.808691509E-1,4.068366114E-2,9.378624171E-1
2.419767000E0,6.452622200E-2,-1.395673512E0,-3.504379597E-1,1.440442623E0
2.429762000E0,-1.106474465E0,2.457164242E-2,2.019234696E-1,1.125016709E0
2.439760000E0,-1.037856512E0,-1.209829232E-2,1.985476527E-1,1.056746743E0
2.449753000E0,-9.248741996E-1,5.632521243E-1,3.224830430E-1,1.129885195E0
2.459761000E0,-5.771448163E-1,-3.110166165E-1,1.265465192E-1,6.677136334E-1
2.469759000E0,-5.511400556E-1,-3.028684667E-1,1.265477800E-1,6.414818856E-1
2.479755000E0,-5.903060216E-1,-1.437626590E-1,4.076266250E-2,6.089256900E-1
2.489760000E0,-1.115092005E-2,-5.186375765E-1,-7.153561836E-1,8.836536358E-1
2.499758000E0,-2.115170648E-2,-5.101257481E-1,-7.148856289E-1,8.784857062E-1
2.509754000E0,1.042242290E0,-1.291137137E0,-3.591359561E0,3.956155659E0
2.519752000E0,-3.864118211E-1,-1.821173495E0,-7.221116911E-1,1.996855600E0
2.529750000E0,-3.382980802E-1,-1.867550101E0,-7.236613494E-1,2.031224931E0
2.539750000E0,-1.487730376E-1,-5.681028282E-1,-2.643358454E-1,6.440090677E-1
2.549758000E0,3.084185890E-1,-8.731742882E-1,3.590075750E-2,9.267384895E-1
2.559756000E0,3.282181017E-1,-8.592849583E-1,3.644620908E-2,9.205574876E-1
2.569748000E0,-3.026195032E-1,-2.288664526E-1,-3.831993974E-1,5.392589313E-1
2.579756000E0,-1.589035233E0,2.001172829E-1,-8.713099035E-1,1.823255562E0
2.589754000E0,-1.581589973E0,1.783631556E-1,-8.718220465E-1,1.814749002E0
2.599739000E0,-2.105778384E0,3.292074141E-1,-6.893665525E-1,2.240068385E0
2.609725000E0,-2.655635195E0,8.919765949E-1,1.830645984E0,3.346533319E0
2.619723000E0,-2.649324296E0,7.566868620E-1,1.830725360E0,3.308028049E0
2.629738000E0,-3.013875972E0,5.921692004E-1,5.218746974E0,6.055529103E0
2.639743000E0,-8.912043238E-1,1.596937160E0,3.180331657E-1,1.856232349E0
2.649741000E0,-9.441488151E-1,1.618016519E0,3.173298918E-1,1.900024394E0
2.659748000E0,-1.699945950E0,-2.040460819E-1,-5.244904932E-1,1.790681801E0
2.669722000E0,-1.123589558E0,4.757616983E-1,-4.783278219E-1,1.310572468E0
2.679720000E0,-1.153120628E0,4.294794880E-1,-4.774446366E-1,1.319883781E0
2.689736000E0,-9.935743788E-1,-9.216918524E-1,4.238671112E-1,1.419989171E0
2.699745000E0,-1.009461702E0,-8.969813729E-1,4.235112350E-1,1.415256259E0
2.709743000E0,1.164867319E-1,-1.091405021E0,-1.632789472E-1,1.109681978E0
2.719734000E0,8.303732543E-1,-7.134905563E-1,-2.151209642E0,2.413771207E0
2.729741000E0,7.742351601E-1,-6.130424081E-1,-2.149459570E0,2.365467717E0
2.739739000E0,-1.365904460E-1,-6.770039307E-1,-1.979544600E0,2.096565786E0
2.749721042E0,-1.537934369E0,3.024508110E-1,1.370514113E0,2.082072897E0
2.759721042E0,-1.622810066E0,2.687868191E-1,1.373696314E0,2.143081992E0
2.769719042E0,-1.344824078E0,8.638881058E-1,2.392629336E0,2.877417175E0
2.779718042E0,-1.345348135E0,-1.808001107E-1,1.080533366E0,1.734993556E0
2.789718042E0,-1.357689707E0,-1.583138206E-1,1.081464097E0,1.742971370E0
2.799716042E0,-1.507919003E0,-9.243081160E-2,5.085630797E-1,1.594051310E0
2.809715042E0,-5.412398059E-1,-1.047144504E-1,-1.589341005E-1,5.737296331E-1
2.819714042E0,-5.411649980E-1,-8.764645530E-2,-1.586525937E-1,5.707119253E-1
2.829712042E0,-4.279177333E-1,-1.717027933E-1,-9.686038809E-2,4.711447447E-1
2.839712042E0,-8.972825593E-2,-2.579483471E-1,-8.994239742E-1,9.399744651E-1
2.849712042E0,-1.066154990E-1,-2.521034703E-1,-8.982830362E-1,9.390609339E-1
2.859710042E0,-1.208173808E-1,-6.815359613E-1,-8.807534491E-1,1.120185138E0
2.869709042E0,2.172988510E-1,-6.979622519E-1,-1.266881278E0,1.462654528E0
2.879708042E0,1.552121285E-1,-6.902594955E-1,-1.262229672E0,1.446987464E0
2.889706042E0,5.871707812E-1,-1.544733072E0,-3.200061843E0,3.601578209E0
2.899679042E0,-2.638478003E0,-9.508381028E-1,1.217011107E0,3.057249631E0
2.909705042E0,-2.636194665E0,-9.761409053E-1,1.216472651E0,3.063034295E0
2.919703042E0,-2.125368311E0,1.081524177E0,1.910842447E0,3.055847486E0
2.929674042E0,-2.169720903E0,7.889135718E-1,1.864052735E0,2.967282599E0
2.939702042E0,-7.645553870E-1,1.060781307E-2,4.745557831E-1,8.999225838E-1
2.949700042E0,-3.715686642E-1,1.118625710E-1,9.242580492E-2,3.988972755E-1
2.959690042E0,-1.848732884E0,4.681608295E-1,3.602903354E-1,1.940823785E0
2.969700042E0,-1.802746287E0,4.259940724E-1,3.566857462E-1,1.886422499E0
2.979698042E0,-1.710459390E0,4.524849926E-1,1.066456304E-1,1.772508754E0
2.989675042E0,-1.116406838E0,2.230233117E-1,1.238728068E-1,1.145184744E0
2.999697042E0,-5.757707937E-1,-2.332585521E-1,1.822168727E-1,6.473982914E-1
3.009695042E0,1.029513230E-1,-4.166644378E-1,-4.529081482E-1,6.239663608E-1
3.019674042E0,-7.019867443E-2,-3.782767362E-1,-7.138362730E-1,8.109151421E-1
3.029694042E0,-9.173989912E-2,-4.872459222E-1,-1.141855382E0,1.244852807E0
3.039692042E0,-6.345691700E-2,-4.834011586E-1,-1.142189405E0,1.241893754E0
3.049673042E0,-1.530647715E0,-4.577364866E-1,-3.587078961E-1,1.637399301E0
3.059691042E0,-1.518196361E0,-4.620503796E-1,-3.588127074E-1,1.627008698E0
3.069689042E0,-1.519774086E0,-1.530570001E-1,-1.399939915E-1,1.533863761E0
3.079663042E0,-1.793106275E0,-1.174113959E-1,4.231763357E-1,1.846102316E0
3.089687042E0,-1.171072603E0,5.179507022E-2,3.675274342E-1,1.228482880E0
3.099685042E0,-2.474023272E-1,3.452822184E-2,3.379319714E-1,4.202357992E-1
3.109678042E0,-2.006030084E-2,-2.240167445E-2,2.725807850E-1,2.742344527E-1
3.119684042E0,-7.674641575E-1,-3.357433084E-2,-1.290605570E-1,7.789641173E-1
3.129682042E0,-7.591722210E-1,-4.088834109E-2,-1.289875034E-1,7.711368838E-1
3.139669042E0,-1.212054568E0,-4.686838447E-2,-1.752828424E-1,1.225559871E0
3.149656042E0,-1.347925441E0,-3.100090316E-1,-1.865919605E-1,1.395645068E0
3.159654042E0,-1.311613501E0,-3.332473284E-1,-1.858874806E-1,1.365993380E0
3.169668042E0,-1.776375491E0,1.316354058E-1,-6.852550098E-1,1.908510464E0
3.179679042E0,-1.312565428E0,-1.409109902E-1,-5.877226121E-1,1.445026567E0
3.189677042E0,-1.270611217E0,-8.764973522E-2,-5.864818695E-1,1.402175568E0
3.199667042E0,-1.466187717E0,-1.244159674E-1,2.982355350E-1,1.501376098E0
3.209675042E0,-1.659961959E0,-1.387114961E-1,4.278811882E-1,1.719824670E0
3.219673042E0,-1.625542177E0,-9.248768491E-2,4.301024723E-1,1.684021817E0
3.229647042E0,-1.749757211E0,-2.283942168E-1,5.680297745E-2,1.765514314E0
3.239672042E0,-2.254393702E0,-2.041471840E-1,-9.106025166E-2,2.265448964E0
3.249670042E0,-2.225792047E0,-2.057259687E-1,-8.968315015E-2,2.237077665E0
3.259671042E0,-2.284940434E0,-1.508726357E-1,-2.812352854E-1,2.307121285E0
3.269670042E0,-1.951681594E0,-1.862875398E-1,-1.315293976E-1,1.964959052E0
3.279668042E0,-1.922955978E0,-1.562274244E-1,-1.290532206E-1,1.933603226E0
3.289649042E0,-5.543546720E-1,-1.530496020E-2,2.558933660E-2,5.551559766E-1
3.299667042E0,-1.718890454E-1,-1.145795163E-1,3.405191816E-1,3.982808338E-1
3.309665042E0,-1.629980982E-1,-9.740906705E-2,3.417033890E-1,3.909195728E-1
3.319664042E0,-1.538045210E-1,2.587048032E-2,7.373991268E-2,1.725186574E-1
3.329664042E0,3.105230750E-1,-3.702343890E-2,-8.486541904E-2,3.240331071E-1
3.339662042E0,3.049549725E-1,-2.966695639E-2,-8.494790132E-2,3.179525271E-1
3.349662042E0,-5.129499167E-2,3.532707941E-2,-2.960483840E-1,3.025290472E-1
3.359661042E0,-1.486627445E-1,4.524897069E-2,1.960073299E-1,2.501338728E-1
3.369659042E0,-1.482248520E-1,6.449884515E-2,1.968550299E-1,2.547206521E-1
3.379658042E0,-1.200883518E-1,-1.363950417E-2,6.733825307E-2,1.383534916E-1
3.389659042E0,-1.712495062E-1,-1.228828001E-1,5.031001906E-2,2.166971941E-1
3.399657042E0,-1.678766860E-1,-1.015727688E-1,5.157245119E-2,2.028776153E-1
3.409655042E0,-6.826901789E-3,-7.331639154E-2,1.794809423E-1,1.939982178E-1
3.419654042E0,-1.262112636E-1,-3.595266525E-2,9.710279172E-2,1.632508174E-1
3.429652042E0,-1.272428952E-1,-2.537801685E-2,9.760985496E-2,1.623652731E-1
3.439653042E0,-1.680329528E-1,-4.213750735E-2,-5.026896064E-2,1.803818482E-1
3.449651042E0,-1.452613643E-1,-2.555597321E-2,-2.171316024E-1,2.624882940E-1
3.459649042E0,-1.498158520E-1,-2.257947320E-2,-2.172556365E-1,2.648672001E-1
3.469650042E0,-1.154875615E-1,-1.492654645E-1,-7.609047053E-2,2.034878755E-1
3.479641042E0,-1.308532494E-1,-2.042443848E-2,1.596066217E-1,2.073981780E-1
3.489639042E0,-1.344225360E-1,-1.775033545E-2,1.595276843E-1,2.093646929E-1
3.499646042E0,-1.397210818E-1,-4.067898336E-2,1.760694574E-1,2.284233224E-1
3.509639042E0,-5.148127117E-2,6.023109036E-2,-1.602719069E-1,1.787881139E-1
3.519637042E0,-4.860451416E-2,5.824929538E-2,-1.601920925E-1,1.772480908E-1
3.529643042E0,2.271767620E-3,9.586111721E-2,-1.642553957E-1,1.901955566E-1
3.539638042E0,-3.463085190E-2,5.947360184E-2,-1.113653201E-1,1.309146277E-1
3.549636042E0,-2.936838750E-2,6.501885449E-2,-1.106952475E-1,1.316943106E-1
3.559640042E0,3.293771752E-2,2.702265132E-2,-7.094196060E-2,8.275191051E-2
3.569639042E0,-3.484975475E-2,-4.662047852E-3,-1.083358686E-1,1.138986414E-1
3.579637042E0,-3.690540052E-2,1.670308543E-3,-1.081166345E-1,1.142541254E-1
3.589637042E0,-3.207942620E-2,-1.966814910E-2,4.885348678E-3,3.794459522E-2
3.599635042E0,-5.655368964E-2,-7.004177718E-2,-4.255884492E-2,9.957623032E-2
3.609633042E0,-5.754361868E-2,-6.524459812E-2,-4.234017733E-2,9.675131137E-2
3.619634042E0,3.684064717E-2,-2.881440037E-2,1.536070130E-1,1.605696652E-1
3.629633042E0,-8.984306236E-2,-1.343180901E-1,2.610194498E-3,1.616166399E-1
3.639631042E0,-9.172883509E-2,-1.299302572E-1,2.753109527E-3,1.590711493E-1
3.649632042E0,-9.712316561E-2,-8.788440957E-2,1.089275634E-2,1.314352726E-1
3.659603042E0,-1.200884431E-1,-5.673216676E-2,-4.852612493E-2,1.414021136E-1
3.669601042E0,-1.203330852E-1,-5.696648479E-2,-4.855834857E-2,1.417150133E-1
3.679629042E0,-6.433300807E-2,-9.430292331E-3,-7.432507278E-2,9.875162168E-2
3.689602042E0,-2.897875509E-2,6.332750625E-2,-5.204825352E-3,6.983717850E-2
3.699600042E0,-3.176166201E-2,6.126586023E-2,-5.532619462E-3,6.923090843E-2
3.709601042E0,7.892386678E-3,3.991422694E-2,-5.537331495E-2,6.871418550E-2
3.719600042E0,-2.182806945E-2,-1.036346341E-2,4.462415001E-2,5.074623882E-2
3.729598042E0,-2.175678595E-2,-1.138422509E-2,4.456499264E-2,5.088218632E-2
3.739622042E0,-4.178109957E-3,1.344761020E-1,3.364623560E-2,1.386843458E-1
3.749598042E0,-7.046604293E-2,4.420764097E-2,-1.790885393E-1,1.974651453E-1
3.759596042E0,-6.759465805E-2,4.945506934E-2,-1.785607915E-1,1.972277819E-1
3.769620042E0,-1.415154324E-2,2.932652167E-3,-8.842093728E-2,8.959424521E-2
3.779611042E0,-4.601191356E-2,-1.872582347E-2,-4.422633378E-2,6.651106114E-2
3.789609042E0,-4.493861144E-2,-3.313224936E-2,-6.634216161E-2,8.670932564E-2
3.799616042E0,1.622424415E-2,-9.513903175E-2,-4.047860659E-2,1.046574367E-1
3.809616042E0,6.665747729E-2,-6.177373774E-3,6.668282588E-2,9.448798068E-2
3.819614042E0,6.648493418E-2,-2.564414910E-3,6.690719908E-2,9.435780829E-2
3.829614042E0,-2.023029950E-2,-5.873094150E-2,9.721015437E-3,6.287357671E-2
3.839613042E0,-2.227846951E-2,-5.709392668E-2,9.683644648E-3,6.204691484E-2
3.849611042E0,-3.154922307E-2,-5.656319593E-2,-1.320209932E-2,6.609874459E-2
3.859611042E0,-7.881197940E-2,2.410643703E-3,7.873403784E-2,1.114279499E-1
3.869611042E0,-7.757998933E-2,3.463777491E-3,7.889299074E-2,1.107012036E-1
3.879609042E0,-5.578562132E-2,-4.930719417E-2,5.806643285E-2,9.441898943E-2
3.889608042E0,4.104375826E-2,-1.626681462E-2,-4.168747275E-2,6.072104029E-2
3.899607042E0,4.434545710E-2,-1.719348638E-2,-4.151016964E-2,6.312867591E-2
3.909605042E0,1.344045444E-2,-4.178318436E-2,-1.490915190E-1,1.554180213E-1
3.919605042E0,-3.024335252E-2,-1.432716528E-2,-1.641029296E-2,3.727231884E-2
3.929604042E0,-2.892650931E-2,-1.366604276E-2,-1.626897763E-2,3.589127051E-2
3.939602042E0,-2.818498186E-2,9.175149305E-3,-1.471833807E-1,1.501383499E-1
3.949602042E0,-3.047254739E-2,2.852715590E-2,1.278120400E-3,4.176132612E-2
3.959602042E0,-2.583391466E-2,3.038497848E-2,1.750072216E-3,3.992118256E-2
3.969600042E0,-2.090249404E-2,2.959668016E-2,7.197239532E-2,8.057855435E-2
3.979599042E0,-2.195131094E-2,1.560318077E-2,1.375248037E-1,1.401370434E-1
3.989599042E0,-1.579803123E-2,1.906701536E-2,1.382357063E-1,1.404358906E-1
3.999597042E0,-1.009974713E-2,2.105555176E-2,1.388146172E-1,1.407651914E-1
4.009596042E0,5.151303800E-2,5.283569188E-3,-3.157360093E-2,6.064982657E-2
4.019596042E0,1.633858805E-2,-1.952541194E-3,-6.010708370E-2,6.231872421E-2
4.029594042E0,1.718708642E-2,-6.641262113E-4,-5.995146554E-2,6.236998656E-2
4.039569042E0,6.325509670E-2,4.556728020E-3,-9.464595616E-2,1.139290483E-1
4.049593042E0,2.993922422E-2,-1.180515439E-3,-8.187608485E-2,8.718626058E-2
4.059591042E0,3.246607334E-2,5.937615091E-3,-8.117567064E-2,8.762870931E-2
4.069570042E0,-6.088910311E-2,-5.514216721E-2,-2.583518232E-2,8.611386722E-2
4.079589042E0,-1.111283777E-2,-3.387016797E-2,1.022465599E-1,1.082822352E-1
4.089587042E0,-7.709479606E-3,-2.909835121E-2,1.028667851E-1,1.071808079E-1
4.099569042E0,-2.065350315E-2,-4.690377840E-2,5.594009288E-2,7.586715766E-2
4.109587042E0,-6.126383655E-3,-2.457538372E-2,3.103222414E-2,4.005597330E-2
4.119585042E0,-6.327345719E-3,-2.431312925E-2,3.103532590E-2,3.992937530E-2
4.129566042E0,-2.484192996E-2,2.089631742E-4,-3.312303771E-2,4.140411546E-2
4.139584042E0,-6.685847418E-3,-5.037871927E-3,-5.956171207E-2,6.014713837E-2
4.149582042E0,-7.837609003E-3,-5.800404808E-3,-5.971038667E-2,6.050126516E-2
4.159566042E0,4.889346940E-3,-5.212423192E-2,-4.520207476E-3,5.254782148E-2
4.169580042E0,2.096405882E-2,-4.617991594E-2,2.665511956E-2,5.729373262E-2
4.179578042E0,1.720802333E-2,-4.906618838E-2,2.614454571E-2,5.819917680E-2
4.189565042E0,-2.007691287E-2,-2.558261230E-2,-4.662152234E-2,5.684293120E-2
4.199577042E0,-8.914010027E-3,2.088005763E-2,-1.064216729E-1,1.088163997E-1
4.209575042E0,-7.793019415E-3,1.897541850E-2,-1.064704058E-1,1.084285247E-1
4.219564042E0,-2.551988492E-2,2.227926436E-2,5.761504150E-2,6.683654056E-2
4.229575042E0,7.964120708E-3,7.726891632E-3,3.599737589E-2,3.766886173E-2
4.239573042E0,5.527506003E-3,5.649049859E-3,3.565518815E-2,3.652064524E-2
4.249563042E0,-4.170491161E-3,1.608267301E-2,3.998338055E-3,1.708894598E-2
4.259572042E0,-1.528277390E-2,-7.191142782E-3,4.517627335E-2,4.823039899E-2
4.269570042E0,-1.869184224E-2,-1.074338739E-2,4.465711826E-2,4.958894585E-2
4.279562042E0,-8.656018881E-2,-2.245764327E-2,9.539199692E-2,1.307541399E-1
4.289568042E0,-2.383897396E-1,-3.424921373E-2,7.738261839E-2,2.529639228E-1
4.299566042E0,-2.363240828E-1,-3.819441235E-2,7.726963922E-2,2.515521464E-1
4.309556042E0,-2.782359013E-1,-6.162120763E-3,5.625269508E-2,2.839323057E-1
4.319565042E0,-2.045607466E-1,-2.980408045E-2,1.406719761E-1,2.500439703E-1
4.329563042E0,-2.034097587E-1,-3.494587293E-2,1.404097833E-1,2.496230182E-1
4.339558042E0,-3.637943524E-1,-1.683894503E-1,3.076501187E-1,5.053216138E-1
4.349563042E0,-6.984005007E-1,-2.748229729E-1,1.045802842E-1,7.577783064E-1
4.359561042E0,-7.046131673E-1,-2.899822449E-1,1.030558785E-1,7.688887644E-1
4.369561042E0,-9.709925781E-1,-2.852497644E-1,-4.259755075E-1,1.098020559E0
4.379560042E0,-8.105119438E-1,-2.210235091E-1,-2.027224185E-1,8.642206788E-1
4.389558042E0,-8.093142148E-1,-2.184279666E-1,-2.024559499E-1,8.623738670E-1
4.399558042E0,-6.370597733E-1,-4.402782538E-2,-6.176291468E-2,6.415592426E-1
4.409557042E0,-2.553592548E-1,5.580400807E-2,3.222401277E-1,4.149230486E-1
4.419555042E0,-2.740749861E-1,4.786205025E-2,3.201815058E-1,4.241745755E-1
4.429555042E0,-1.424284231E0,-2.718531538E-1,3.454664743E-1,1.490582702E0
4.439555042E0,-1.864531768E0,-2.142250977E-1,-5.812167990E-2,1.877697856E0
4.449553042E0,-1.873345423E0,-2.418965158E-1,-6.040577136E-2,1.889863978E0
4.459551042E0,-1.923926323E0,2.243478145E-3,-2.307382011E-1,1.937714542E0
4.469551042E0,-2.018720068E0,-2.560465128E-2,-5.162890423E-2,2.019542486E0
4.479549042E0,-2.019786746E0,-4.253077372E-2,-5.259233351E-2,2.020918929E0
4.489548042E0,-1.795476736E0,3.950063693E-2,1.515303424E-2,1.795975118E0
4.499535042E0,-1.903870520E0,-2.936140237E-1,-6.384525070E-1,2.029422025E0
4.509533042E0,-1.910554033E0,-3.241583068E-1,-6.402991308E-1,2.040901345E0
4.519546042E0,-1.609714203E0,-2.061475164E-1,-4.807423566E-1,1.692569002E0
4.529539042E0,-1.804540067E0,-2.409973328E-2,-1.540875993E-1,1.811267136E0
4.539537042E0,-1.818521490E0,-4.717768391E-2,-1.558916663E-1,1.825800744E0
4.549542042E0,-2.213829375E0,-8.768335671E-2,-3.041820254E-1,2.236348715E0
4.559514042E0,-1.556068485E0,-4.598085936E-2,-9.824345559E-2,1.559844590E0
4.569512042E0,-1.363784406E0,-5.891228741E-2,-4.576650409E-2,1.365823245E0
4.579540042E0,-8.989822170E-1,9.195361485E-2,5.497900249E-2,9.053436831E-1
4.589534042E0,-2.426206021E-1,1.447770321E-1,3.474326736E-1,4.478109069E-1
4.599532042E0,-2.785976247E-1,1.403288085E-1,3.451518210E-1,4.652296105E-1
4.609536042E0,-7.839806414E-1,-2.693772508E-2,-4.642452416E-1,9.115234124E-1
4.619519042E0,-1.312734997E0,-1.750778610E-1,-5.633731616E-1,1.439206292E0
4.629517042E0,-1.349335059E0,-2.119423264E-1,-5.661274560E-1,1.478555020E0
4.639534042E0,-1.243402953E0,-4.197738775E-1,-5.547693858E-1,1.424791242E0
4.649532042E0,-1.452836331E0,-7.230107005E-1,-8.551927844E-1,1.834347997E0
4.659530042E0,-1.473566757E0,-7.179214302E-1,-8.558579052E-1,1.849135723E0
4.669530042E0,-1.135189045E0,-4.290556745E-1,-5.871237476E-1,1.348131015E0
4.679531042E0,-6.868156316E-1,-1.302971243E-1,-1.283189473E-1,7.107452460E-1
4.689529042E0,-6.978445767E-1,-1.346155215E-1,-1.287831249E-1,7.222835213E-1
4.699527042E0,-2.894769907E-1,1.253476116E-1,5.390653725E-1,6.245802012E-1
4.709521042E0,-1.180364852E0,9.829630894E-2,-8.038539204E-2,1.187175286E0
4.719519042E0,-1.210265393E0,7.145327220E-2,-8.166809756E-2,1.215120394E0
4.729525042E0,-1.627665448E0,-2.141188063E-1,-8.362461247E-1,1.842403119E0
4.739499042E0,-1.509475678E0,-4.804686338E-1,-5.729354788E-1,1.684524263E0
4.749497042E0,-1.511883269E0,-5.057311635E-1,-5.732532750E-1,1.694158890E0
4.759522042E0,-1.085722697E0,-4.156866007E-1,-5.726112142E-1,1.295944724E0
4.769515042E0,-8.614895779E-1,1.994490969E-2,-1.387933114E-1,8.728262574E-1
4.779513042E0,-8.802122162E-1,2.428833568E-2,-1.391343594E-1,8.914717263E-1
4.789519042E0,-1.297461047E0,-2.703176932E-1,-5.946799582E-1,1.452625580E0
4.799512042E0,-1.298378329E0,-2.255156691E-1,-4.749998061E-1,1.400809915E0
4.809510042E0,-1.339509252E0,-2.161671042E-1,-4.755384077E-1,1.437758683E0
4.819487042E0,-1.808118416E0,-2.770459564E-1,-7.581382871E-1,1.980106142E0
4.829494042E0,-1.135614284E0,-5.942853808E-1,-2.096101096E-1,1.298742204E0
4.839492042E0,-1.138100300E0,-6.235643265E-1,-2.098214682E-1,1.314583513E0
4.849513042E0,1.254268323E-1,-6.388909020E-1,4.002971311E-1,7.642978922E-1
4.859505042E0,1.244169377E0,8.098550823E-1,1.252548729E0,1.942344206E0
4.869503042E0,1.247551260E0,7.254113480E-1,1.253200986E0,1.911313288E0
4.879511042E0,1.937315387E-1,9.005476628E-1,1.202056414E0,1.514416596E0
4.889508042E0,-6.194368500E-1,1.599867638E-1,1.357245282E-1,6.540022350E-1
4.899506042E0,-5.880164347E-1,8.998283822E-2,1.387270460E-1,6.108235686E-1
4.909507042E0,-4.560585184E-1,-7.554771461E-1,-5.931263165E-1,1.063265685E0
4.919491042E0,-9.920902093E-1,-6.115440956E-1,-7.023149192E-1,1.360689314E0
4.929489042E0,-9.675577775E-1,-5.761866769E-1,-7.030961072E-1,1.327593038E0
4.939504042E0,-1.037683216E0,-4.420824305E-1,1.721238476E-1,1.140986393E0
4.949504042E0,-2.717575153E-1,-1.043454088E-1,1.228078132E0,1.262107765E0
4.959502042E0,-2.278106830E-1,-1.097633201E-1,1.229646940E0,1.255379341E0
4.969501042E0,3.938075988E-1,3.931908546E-2,1.782835056E0,1.826234172E0
4.979501042E0,3.722260740E-1,7.392648454E-2,1.781061303E0,1.821042762E0
4.989499042E0,-3.516943802E-1,1.511913912E-1,6.883190969E-1,7.876109148E-1
4.999498042E0,-1.653371123E0,4.488094693E-1,-7.996546146E-1,1.890638388E0
5.009498042E0,-1.687406742E0,4.685740815E-1,-8.008418917E-1,1.925681936E0
5.019496042E0,-2.151831347E0,3.143229977E-1,-8.947758032E-1,2.351552855E0
5.029496042E0,-2.129052934E0,-2.399560077E-1,-1.406173650E0,2.562766008E0
5.039495042E0,-2.101725972E0,-2.201197671E-1,-1.405886551E0,2.538153220E0
5.049493042E0,-1.351866172E0,-2.942359847E-1,-9.325236002E-1,1.668447550E0
5.059480042E0,-1.150932582E-1,-6.030242639E-1,1.139537838E0,1.294384489E0
5.069492042E0,-1.013527947E-1,-5.561700498E-1,1.139744172E0,1.272247732E0
5.079490042E0,-6.093983136E-1,-2.064421795E-1,1.082046260E0,1.258891888E0
5.089490042E0,-1.169747040E0,1.410746574E-1,2.848309941E-1,1.212162898E0
5.099488042E0,-1.180934590E0,1.390037198E-1,2.845066016E-1,1.222649806E0
5.109486042E0,-1.378896242E0,-2.825587296E-1,-2.900222801E-1,1.437117673E0
5.119487042E0,-1.886392023E0,-6.797337033E-1,-8.661241541E-1,2.184189511E0
5.129486042E0,-1.913914136E0,-3.497422872E-1,-9.250921545E-1,2.154340382E0
5.139484042E0,-1.941463877E0,-3.398563267E-1,-9.256382114E-1,2.177519324E0
5.149465042E0,-1.860115659E0,-4.873467135E-1,-4.598085205E-1,1.977109243E0
5.159483042E0,-1.722055880E0,-4.265601925E-1,-4.518030976E-1,1.830725564E0
5.169481042E0,-1.461932844E0,-5.210380047E-1,-8.664393921E-1,1.777482901E0
5.179452042E0,-1.049607881E0,-3.885607094E-1,-4.370244793E-1,1.201518424E0
5.189480042E0,-1.083830830E0,-3.337766476E-1,-4.360997787E-1,1.215022278E0
5.199478042E0,-1.127997116E0,-1.259320591E-1,-6.739807740E-1,1.320032750E0
5.209475042E0,-1.735523626E0,-6.441178011E-1,-8.788964465E-1,2.049241070E0
5.219478042E0,-1.240434760E0,-9.124218960E-1,-7.939900513E-1,1.732516180E0
5.229476042E0,-1.075177170E0,-1.018493604E0,-5.123263477E-1,1.567103524E0
5.239461042E0,5.350675216E-1,-6.046336369E-1,1.165197540E0,1.417591054E0
5.249474042E0,1.144262169E0,-5.090962818E-2,3.351365273E0,3.541691248E0
5.259472042E0,1.185525386E0,5.168564415E-1,4.145466567E0,4.342522778E0
5.269458042E0,7.810947481E-1,-1.172230722E-2,4.171109093E-1,8.855664451E-1
5.279471042E0,-1.111809465E0,6.154477333E-1,-1.365302928E0,1.865193900E0
5.289469042E0,7.389570078E-1,2.505643881E0,-1.985692070E0,3.281353641E0
5.299460042E0,1.511742205E0,1.371985857E0,8.239777526E-2,2.043159093E0
5.309468042E0,4.120445162E0,1.481964820E0,1.780496608E0,4.726992303E0
5.319466042E0,4.093254440E0,1.417230588E0,1.779048838E0,4.682765125E0
5.329457042E0,4.022347010E0,1.336314625E0,3.000151095E0,5.192871926E0
5.339466042E0,1.361297439E0,9.635248066E-1,-9.520414598E-1,1.920388948E0
5.349464042E0,-1.214003226E0,1.738004453E-1,-1.805734507E0,2.182816423E0
5.359455042E0,-8.326886787E-1,3.330647491E-1,-2.114597740E0,2.296916664E0
5.369442042E0,-1.468801861E0,-1.635201047E0,-2.103314075E0,3.042234618E0
5.379440042E0,1.075158021E0,-8.922288291E-1,-5.163238332E-1,1.489505741E0
5.389458042E0,9.529311137E-1,-5.066709207E-1,1.266115147E0,1.663682871E0
5.399460042E0,-1.292532867E0,-8.177416971E-2,1.259696640E-1,1.301228875E0
5.409458042E0,-2.730620181E0,2.553325403E-1,-1.005022569E0,2.920881998E0
5.419440042E0,-2.938956475E0,1.507762443E0,-1.029780777E0,3.459951039E0
5.429457042E0,-1.809217985E0,-4.303494806E-1,-8.497493190E-1,2.044637938E0
5.439455042E0,-1.861773637E0,-4.097700590E-1,-8.505819625E-1,2.087487066E0
5.449449042E0,-1.442223342E0,-2.681410124E-1,-1.672416966E0,2.224609242E0
5.459454042E0,-8.945589446E-1,-2.218641012E-1,-1.298231417E0,1.592125685E0
5.469452042E0,-9.698603379E-1,-1.872188003E-1,-1.297402136E0,1.630623272E0
5.479435042E0,-1.041311047E0,-5.458155627E-2,4.485118826E-1,1.135108256E0
5.489437042E0,-1.020985322E0,2.584285679E-2,9.395311958E-1,1.387731151E0
5.499435042E0,-1.010075952E0,5.820090510E-2,9.397057351E-1,1.380828608E0
5.509420042E0,-1.871423443E0,-7.308143945E-1,9.928306860E-1,2.240988209E0
5.519436042E0,2.523659372E-1,4.590375286E-1,-9.133741151E-1,1.052927487E0
5.529434042E0,3.683983770E-1,4.274376403E-1,-9.142677889E-1,1.074386285E0
5.539419042E0,2.483439957E0,6.459107584E-2,1.121749366E0,2.725796703E0
5.549424042E0,2.906120558E0,8.844860923E-1,1.901138116E0,3.583598538E0
5.559422042E0,2.952473776E0,9.281830658E-1,1.903311526E0,3.633348313E0
5.569441042E0,2.675748740E0,-3.558833255E-1,-1.872061082E0,3.284950069E0
5.579433042E0,-1.304220574E0,2.612498239E0,-1.446224007E0,3.258481584E0
5.589431042E0,-1.170216863E0,2.507980136E0,-1.439811219E0,3.119683993E0
5.599440042E0,8.378605409E-1,-1.876243595E0,4.771952163E-1,2.109506006E0
5.609432042E0,4.086951726E0,4.371842910E-1,2.175147851E0,4.650330385E0
5.619430042E0,4.134776103E0,4.124639808E-1,2.179774168E0,4.692325157E0
5.629437042E0,3.732271904E0,3.617611659E-1,3.454482090E0,5.098447922E0
5.639431042E0,1.761582035E0,1.371889085E0,-4.505955288E-2,2.233222177E0
5.649429042E0,1.639206097E0,1.452369431E0,-5.333931531E-2,2.190711910E0
5.659434042E0,9.906511730E-2,8.092220481E-1,-5.438422188E-1,9.800094793E-1
5.669429042E0,4.519964851E-2,-3.085660850E-1,-1.698515721E0,1.726908131E0
5.679427042E0,6.030743307E-2,-3.453088553E-1,-1.698023093E0,1.733827447E0
5.689431042E0,6.252445970E-1,-1.899211312E0,-8.212385148E-1,2.161565893E0
5.699416042E0,2.252048384E0,-6.303093090E-1,9.048343297E-1,2.507536025E0
5.709414042E0,2.287541860E0,-6.166424657E-1,9.069500716E-1,2.536859106E0
5.719428042E0,-2.565696833E0,-8.381796527E-1,1.395133083E0,3.038378134E0
5.729427042E0,-5.183514649E-1,8.306080201E-1,-1.308371366E0,1.634146125E0
5.739425042E0,-1.013889652E0,-2.329497094E-1,-4.571245024E-1,1.136310083E0
5.749424042E0,-8.461154207E-1,-1.179172970E0,-6.741885694E-1,1.600278234E0
5.759425042E0,-9.276781587E-1,-1.171616614E0,-6.778799897E-1,1.640973350E0
5.769423042E0,-1.405397139E0,-4.813004733E-1,-6.974304476E-1,1.641097345E0
5.779392042E0,1.013246367E-1,-4.622889094E-1,-2.377259491E0,2.423910148E0
5.789421042E0,6.994256638E-2,-4.517501072E-1,-2.377869209E0,2.421411179E0
5.799419042E0,-1.950631580E0,-2.190059128E0,1.450672130E0,3.271967630E0
5.809419042E0,-3.055877692E0,-1.316647662E0,-2.018992548E0,3.892079192E0
5.819419042E0,-2.998321501E0,-1.324766521E0,-2.017791384E0,3.849210338E0
5.829417042E0,-1.208416650E0,-1.787162873E0,-1.417241844E0,2.581239310E0
5.839417042E0,1.994735081E0,-1.438155763E-1,1.099214416E0,2.282087487E0
5.849415042E0,2.024155347E0,-2.010250814E-1,1.099806227E0,2.312399120E0
5.859413042E0,2.563679543E0,6.750568078E-1,3.875639492E0,4.695608157E0
5.869414042E0,1.034756392E0,4.267835562E-1,-4.245076736E-2,1.120119218E0
5.879413042E0,1.045756759E0,4.916918160E-1,-4.149944822E-2,1.156326184E0
5.889411042E0,6.266363257E-2,5.212374313E-1,-9.026411122E-1,1.044210787E0
5.899410042E0,1.277428778E0,2.803978362E-1,5.692187328E-1,1.426343996E0
5.909410042E0,1.293104286E0,3.059182282E-1,5.705846058E-1,1.446122903E0
5.919408042E0,1.927035288E0,6.442191041E-1,1.046578365E0,2.285565472E0
5.929408042E0,7.267699485E-1,2.547857160E-1,6.845592642E-1,1.030403661E0
5.939407042E0,7.904519011E-1,1.350969758E-1,6.874079546E-1,1.056217353E0
5.949405042E0,8.462586775E-1,2.715524836E-2,6.914792977E-1,1.093176461E0
5.959400042E0,3.769836244E-1,7.601305796E-1,1.319154363E0,1.568465296E0
5.969404042E0,1.775436428E0,5.453418835E-1,1.174982783E0,2.197761775E0
5.979402042E0,1.701169918E0,6.233183780E-1,1.170048171E0,2.156737725E0
5.989395042E0,-2.741737785E0,-2.410049616E-1,-1.847194043E0,3.314714966E0
5.999401042E0,-2.756649354E0,-1.984993218E-1,-1.847638285E0,3.324497688E0
6.009399042E0,-2.722950096E0,-1.935623715E-1,-1.845929729E0,3.295357368E0
6.019399042E0,-2.564287288E-1,-2.986119861E-1,-1.093219558E-1,4.085047138E-1
6.029399042E0,8.947193775E-1,4.943125107E-2,1.066474174E0,1.392958498E0
6.039397042E0,8.728561997E-1,6.397001018E-2,1.065407277E0,1.378790330E0
6.049371042E0,-8.789443937E-1,-1.140170507E-1,4.401000051E-2,8.874007072E-1
6.059395042E0,-4.866167252E-1,-1.755018823E-2,-1.090486131E0,1.194262889E0
6.069393042E0,-5.092430378E-1,-5.638081762E-2,-1.091845024E0,1.206081599E0
6.079380042E0,-2.816353811E-1,-6.921238071E-1,-3.272120517E-1,8.157337672E-1
6.089393042E0,-2.773200081E-1,-1.044410656E0,-1.614532601E0,1.942785507E0
6.099391042E0,-3.475433322E-1,-1.015136571E0,-1.616621519E0,1.940297338E0
6.109391042E0,-1.346995442E0,-2.312758343E-1,-1.020348839E-2,1.366744066E0
6.119389042E0,-2.305202790E0,-9.578185820E-1,6.346245244E-3,2.496280556E0
6.129387042E0,-2.341747742E0,-8.617203236E-1,8.233148017E-3,2.495277978E0
6.139388042E0,-1.464401831E0,-1.027740391E0,-1.172051135E0,2.138790989E0
6.149388042E0,-2.510377495E0,-1.071299955E0,-1.805618878E0,3.272604206E0
6.159386042E0,-2.451020801E0,-1.136536974E0,-1.806199360E0,3.249857749E0
6.169384042E0,-2.721608745E0,-7.059010897E-1,-2.721385674E0,3.912977190E0
6.179366042E0,3.240034579E0,-6.196515159E-1,3.934680583E0,5.134540229E0
6.189364042E0,4.176482246E0,6.791312208E-1,5.390850996E0,6.853137794E0
6.199382042E0,9.512797869E-1,2.065652452E0,2.663814865E0,3.502536641E0
6.209382042E0,9.973049755E-1,3.030891370E0,-3.616001482E-1,3.211179593E0
6.219380042E0,1.073192991E0,2.941531296E0,-3.620547692E-1,3.152052223E0
6.229378042E0,4.046333165E0,8.978890252E-2,-1.459700523E0,4.302510866E0
6.239364042E0,4.361568548E0,3.228360366E-2,-6.246367150E-2,4.362135273E0
6.249362042E0,4.383461401E0,-9.456465245E-2,-6.220862326E-2,4.384922603E0
6.259358042E0,2.517816907E0,6.422285315E-3,6.367751601E-1,2.597099503E0
6.269375042E0,5.150628081E0,1.071171754E0,3.960964109E0,6.585257416E0
6.279373042E0,5.068216254E0,1.184928750E0,3.956631323E0,6.538027498E0
6.289373042E0,1.960143831E0,1.247987609E0,1.128872152E0,2.583406519E0
6.299371042E0,-5.927487417E-2,8.643665542E-1,-2.147861672E0,2.316020901E0
6.309369042E0,1.670230254E0,-2.989694885E-1,-7.344231498E-1,1.848899462E0
6.319370042E0,2.359260592E0,-1.057798496E-1,7.158806788E-1,2.467748987E0
6.329342042E0,1.423892906E0,2.076954206E-1,3.016646346E-1,1.470241459E0
6.339340042E0,1.386136703E0,2.095407288E-1,2.999622909E-1,1.433617680E0
6.349367042E0,4.389975491E-1,1.762295266E-3,-4.058738764E-1,5.978758712E-1
6.359340042E0,1.563270208E0,-6.024382267E-1,-1.193667926E0,2.057082564E0
6.369338042E0,1.993919979E0,-4.673470068E-1,-1.106461894E0,2.327743120E0
6.379364042E0,2.568305568E0,-4.569665910E-1,-8.994919480E-1,2.759365456E0
6.389340042E0,3.660607844E0,-8.589673814E-1,4.221194515E-1,3.783656906E0
6.399338042E0,3.631535195E0,-8.685458516E-1,4.208483034E-1,3.757596714E0
6.409361042E0,1.403452502E0,3.060967145E-1,1.134540150E0,1.830452260E0
6.419338042E0,2.965769175E0,4.588152522E-2,1.028141236E-1,2.967905432E0
6.429336042E0,2.940817059E0,7.607814569E-2,1.028721298E-1,2.943599078E0
6.439358042E0,3.394974684E0,-9.121623527E-2,5.062167748E-1,3.433719402E0
6.449351042E0,2.261113030E0,3.283931893E-1,-7.441786444E-1,2.402972342E0
6.459349042E0,2.228427387E0,3.432206684E-1,-7.443181005E-1,2.374383811E0
6.469355042E0,1.794287997E0,1.967876225E-1,-4.611018515E-1,1.863010924E0
6.479355042E0,1.977948895E0,8.456881902E-2,4.069880999E-1,2.021156359E0
6.489353042E0,1.973766966E0,1.090156714E-1,4.078474214E-1,2.018410259E0
6.499352042E0,2.501806646E0,-2.695839590E-1,1.563571961E-1,2.521142514E0
6.509347042E0,2.274217371E0,-1.050481254E-1,-3.324620839E-1,2.300789169E0
6.519345042E0,2.251521842E0,-1.315826073E-1,-3.334976989E-1,2.279887125E0
6.529349042E0,1.511842192E0,-1.252332620E-1,-1.690571548E0,2.271427380E0
6.539330042E0,3.930155130E0,2.256171183E-1,1.133742224E0,4.096632014E0
6.549328042E0,3.902899796E0,1.874740678E-1,1.132827574E0,4.068300832E0
6.559347042E0,3.158937791E0,-7.507808909E-2,6.398556194E-1,3.223963384E0
6.569332042E0,3.636248344E0,-1.220020961E0,2.620869515E-1,3.844404080E0
6.579330042E0,3.620793860E0,-1.213697344E0,2.622452283E-1,3.827790744E0
6.589344042E0,4.068064927E0,-1.028334541E0,5.799757823E-1,4.235917384E0
6.599322042E0,1.748283566E0,-5.554650583E-1,8.837209842E-1,2.036172791E0
6.609320042E0,1.718107256E0,-5.450985296E-1,8.843367691E-1,2.007754086E0
6.619341042E0,5.457377034E-1,-5.326478706E-1,-1.647956784E-1,7.801929317E-1
6.629329042E0,2.617688264E-1,-1.548449599E-1,-3.830813202E-1,4.891330882E-1
6.639327042E0,2.596434914E-1,-1.455508837E-1,-3.828179762E-1,4.849220611E-1
6.649338042E0,6.655854148E-1,2.337718645E-2,-1.701371647E-1,6.873842391E-1
6.659328042E0,1.063628335E0,-1.429530115E-1,-1.053006977E-1,1.078345508E0
6.669326042E0,1.066541417E0,-1.381272039E-1,-1.052197503E-1,1.080583599E0
6.679334042E0,1.248676996E0,-1.723200034E-2,-2.339861330E-2,1.249015083E0
6.689334042E0,1.253838187E0,-1.847132113E-2,-2.351359560E-2,1.254194673E0
6.699332042E0,1.443060517E0,2.295092957E-3,-2.842754538E-2,1.443342319E0
6.709332042E0,1.274613344E0,-1.130854705E-1,7.040993250E-2,1.281555718E0
6.719332042E0,1.270698925E0,-1.150292677E-1,7.042112444E-2,1.277836698E0
6.729330042E0,1.906341261E0,-5.724994593E-1,4.324944220E-2,1.990920176E0
6.739329042E0,1.109686706E0,-1.023741188E0,-2.610792570E-1,1.532192215E0
6.749328042E0,1.108026389E0,-1.024130320E0,-2.610614412E-1,1.531247357E0
6.759326042E0,4.482369173E-1,-3.253986840E-1,-2.028898864E-1,5.898855343E-1
6.769326042E0,2.206595017E-1,-1.192744924E-1,2.746510465E-1,3.719545907E-1
6.779326042E0,2.203468949E-1,-1.228602518E-1,2.745676871E-1,3.728737191E-1
6.789324042E0,3.045808786E-1,-1.292098894E-1,6.733879668E-2,3.376377062E-1
6.799324042E0,1.091102409E-1,-7.081423549E-2,-1.273371542E-1,1.820287105E-1
6.809323042E0,1.111136706E-1,-7.241326167E-2,-1.274090018E-1,1.839102553E-1
6.819321042E0,1.131228287E-1,-7.434492591E-2,-1.274882042E-1,1.859494141E-1
6.829305042E0,3.497590249E-1,1.232024184E-3,-9.830289619E-2,3.633130231E-1
6.839319042E0,4.686475006E-1,-8.449391071E-2,1.325821523E-1,4.943154134E-1
6.849317042E0,4.676230319E-1,-8.673803553E-2,1.325466396E-1,4.937240104E-1
6.859304042E0,1.511976312E-1,-1.400287641E-1,-3.854636734E-3,2.061155906E-1
6.869317042E0,1.943316275E-1,-1.431375277E-1,-1.387432538E-1,2.783932897E-1
6.879315042E0,9.642904630E-2,-1.510517158E-1,-1.492856648E-1,2.332410589E-1
6.889301042E0,1.162198796E-1,-1.201131842E-1,-1.132769303E-1,2.019056719E-1
6.899314042E0,2.129377235E-1,-1.092912671E-1,-2.336385891E-2,2.404847709E-1
6.909312042E0,1.672624725E-1,-1.269117509E-1,-5.726101544E-2,2.176284704E-1
6.919312042E0,3.923262432E-2,-1.511227960E-1,-7.184654314E-2,1.718697881E-1
6.929311042E0,3.042745302E-2,-1.535654795E-1,-1.672678812E-1,2.290998264E-1
6.939309042E0,3.343923731E-2,-1.532890524E-1,-1.673064911E-1,2.293625474E-1
6.949295042E0,2.243584138E-1,-7.073600614E-2,-3.603863759E-2,2.379896296E-1
6.959308042E0,3.663576987E-1,2.374539202E-2,6.959617824E-2,3.736648700E-1
6.969306042E0,2.931871586E-1,-1.239443621E-1,2.186182935E-1,3.861539501E-1
6.979305042E0,4.060234829E-2,-1.175505505E-1,-5.217244404E-2,1.348652903E-1
6.989306042E0,4.495960660E-2,-1.053374529E-1,-1.362851848E-1,1.780196529E-1
6.999304042E0,1.133123699E-1,-9.059968293E-2,-1.446570911E-1,2.048747660E-1
7.009302042E0,1.042365958E-1,-5.386658798E-2,3.872187917E-2,1.235567122E-1
7.019303042E0,6.991322980E-2,-6.092894184E-2,1.537985824E-1,1.795945422E-1
7.029301042E0,6.041700897E-2,-6.116544344E-2,1.540956758E-1,1.764565208E-1
7.039300042E0,-1.487382170E-2,-3.144546012E-2,-8.354092305E-4,3.479576759E-2
7.049299042E0,2.184504602E-1,-8.959311216E-2,1.935581870E-2,2.369011967E-1
7.059297042E0,1.344384788E-1,-7.927614782E-2,1.088497840E-1,1.902805499E-1
7.069295042E0,1.034627077E-1,-7.099665034E-2,8.314156850E-2,1.505243391E-1
7.079296042E0,-2.349430207E-2,-7.143534226E-2,4.482940556E-2,8.754807797E-2
7.089294042E0,-2.365899484E-2,-7.328601799E-2,4.478096503E-2,8.908379931E-2
7.099294042E0,3.713584933E-2,-7.446121698E-2,-4.590703826E-2,9.503157529E-2
7.109279042E0,-1.004637256E-1,-8.066102430E-2,-1.223750973E-1,1.776930653E-1
7.119277042E0,-1.737986912E-1,-6.331202940E-2,-1.467965051E-1,2.361432024E-1
7.129291042E0,1.940116386E-1,1.033571472E-1,-1.158914671E-1,2.485036175E-1
7.139278042E0,2.184495648E-1,1.191695349E-1,-7.869786733E-2,2.609883996E-1
7.149276042E0,2.204321364E-1,1.190847686E-1,-7.877670424E-2,2.626352565E-1
7.159288042E0,8.843180945E-2,-2.416586392E-2,-2.406907652E-2,9.478129745E-2
7.169277042E0,5.991794455E-2,-6.364818491E-2,1.043550385E-1,1.361294442E-1
7.179275042E0,5.342745752E-2,-7.381642898E-2,3.192532009E-2,9.655353161E-2
7.189286042E0,8.272618864E-4,-7.080813702E-2,-7.124776541E-2,1.004525794E-1
7.199277042E0,-5.089123686E-2,-6.827284827E-2,-9.754509704E-2,1.294841525E-1
7.209275042E0,-5.188636445E-2,-6.990614919E-2,-9.755448913E-2,1.307514545E-1
7.219283042E0,5.044923761E-2,-6.043355477E-2,-1.464877630E-1,1.663009466E-1
7.229274042E0,1.083769635E-1,-3.847626357E-3,1.410220416E-1,1.778976860E-1
7.239272042E0,1.089450936E-1,-4.234753717E-3,1.409880638E-1,1.782262627E-1
7.249280042E0,2.354444880E-2,-2.975640737E-2,4.831530083E-2,6.143413662E-2
7.259273042E0,2.447300491E-2,-2.988618358E-2,4.827442513E-2,6.182662905E-2
7.269271042E0,-5.458573384E-3,-2.693453652E-2,-1.053257699E-2,2.943128368E-2
7.279276042E0,-6.098180889E-2,-6.069639168E-2,-8.631308000E-2,1.218719851E-1
7.289276042E0,-6.327072887E-2,-6.084334865E-2,-8.622597476E-2,1.230447761E-1
7.299274042E0,5.660816011E-2,-4.418917199E-2,-1.249352459E-1,1.441040679E-1
7.309266042E0,1.522694716E-1,-5.351734018E-2,4.817192984E-2,1.684358409E-1
7.319274042E0,1.499796836E-1,-5.371039423E-2,4.826104506E-2,1.664567224E-1
7.329272042E0,4.529841164E-2,-3.493547813E-2,5.504339952E-2,7.938645703E-2
7.339270042E0,-2.747434473E-3,-8.711196725E-3,-2.514095109E-2,2.674884607E-2
7.349271042E0,-5.843120888E-3,-9.026189773E-3,-2.501940666E-2,2.723205598E-2
7.359269042E0,1.600685449E-2,-2.494470448E-3,-2.561547685E-1,2.566665292E-1
7.369268042E0,2.467211403E-2,-2.677334523E-2,-2.500160920E-2,4.416566187E-2
7.379268042E0,2.820891433E-2,-2.648705094E-2,-2.514097850E-2,4.614515700E-2
7.389266042E0,4.454189157E-2,-3.540175932E-2,-2.391385806E-2,6.171820862E-2
7.399266042E0,3.555005247E-2,-4.085684379E-2,2.631766715E-1,2.686913626E-1
7.409265042E0,3.659505726E-2,-4.075066200E-2,2.631372576E-1,2.687769168E-1
7.419263042E0,-2.487705665E-2,-2.714286642E-2,1.216046353E-1,1.270562492E-1
7.429263042E0,-5.149961681E-2,-8.780614139E-3,1.334890646E-1,1.433479685E-1
7.439262042E0,-5.476826061E-2,-9.630357327E-3,1.335973934E-1,1.447085680E-1
7.449260042E0,3.845437362E-2,-2.155470526E-2,-6.133088310E-2,7.553026805E-2
7.459260042E0,4.624476065E-2,-7.461431467E-3,-1.292039326E-1,1.374332821E-1
7.469259042E0,7.030866147E-2,-3.516646371E-2,-3.715138785E-2,8.694948916E-2
7.479257042E0,6.485889659E-2,-3.567798087E-2,-3.692985375E-2,8.272489882E-2
7.489228042E0,3.210570898E-2,-2.467032103E-2,1.717042756E-2,4.397982346E-2
7.499257042E0,3.947259314E-2,-3.065022737E-2,-3.166710385E-2,5.916356576E-2
7.509255042E0,2.477881429E-2,-3.123143147E-2,-3.099926503E-2,5.050095426E-2
7.519227042E0,-2.860875653E-2,-4.861255865E-2,-4.010897577E-2,6.921251149E-2
7.529254042E0,9.236924796E-3,-4.425625051E-2,-1.104371112E-1,1.193326947E-1
7.539252042E0,-1.411456760E-2,-4.490787702E-2,-1.092194742E-1,1.189320478E-1
7.549244042E0,1.832452175E-2,1.711255498E-2,5.621348675E-2,6.155147219E-2
7.559250042E0,6.236523727E-3,-6.450560228E-4,5.347793543E-2,5.384421885E-2
7.569248042E0,7.689004643E-3,1.571768455E-2,-3.395743938E-3,1.782407016E-2
7.579244042E0,-9.241517487E-3,-1.280676929E-2,-6.381092023E-2,6.573623450E-2
7.589248042E0,-2.389941818E-2,-1.045622400E-2,-1.100392721E-1,1.130891517E-1
7.599246042E0,-2.163602496E-2,-1.014115615E-2,-1.101621733E-1,1.127238442E-1
7.609243042E0,-3.379782467E-2,-2.330709067E-2,-6.710612432E-3,4.159982869E-2
7.619245042E0,-3.367362387E-4,-4.185563501E-2,-7.198426334E-2,8.326909236E-2
7.629243042E0,1.614488190E-2,-2.831971450E-2,-4.291827053E-2,5.389472503E-2
7.639220042E0,1.357226347E-2,-1.736120325E-2,-5.211395361E-2,5.658163903E-2
7.649242042E0,2.894996212E-2,-5.491111654E-3,-1.214459747E-1,1.249695059E-1
7.659240042E0,2.498496690E-3,-8.621267662E-4,-1.152534353E-1,1.152837374E-1
7.669210042E0,-2.072616166E-2,1.832065939E-2,-9.860707018E-2,1.024137424E-1
7.679239042E0,9.093239178E-3,2.903912303E-2,-9.850996071E-2,1.031027159E-1
7.689237042E0,1.921628952E-2,-6.807747018E-3,-4.147506807E-2,4.621463484E-2
7.699233042E0,1.863490155E-2,-1.830719938E-2,8.894905963E-2,9.270570810E-2
7.709237042E0,4.181727637E-3,-3.348259351E-2,2.082304774E-1,2.109466819E-1
7.719235042E0,4.584798081E-4,-3.238472852E-2,2.084767365E-1,2.109775593E-1
7.729208042E0,-4.094818255E-3,-3.138323067E-2,7.777386107E-2,8.396694689E-2
7.739233042E0,6.209510048E-3,-2.088138924E-2,2.590104572E-2,3.384456532E-2
7.749216625E0,4.341611869E-3,-1.875242945E-2,-9.448148495E-2,9.642227026E-2
7.759206625E0,-1.755393410E-2,-1.607708617E-2,-1.283681188E-1,1.305564522E-1
7.769194625E0,2.469540924E-2,-1.533100201E-2,-7.151173865E-3,2.993396312E-2
7.779192625E0,1.791829901E-2,-3.306763191E-3,-6.780121551E-2,7.020687250E-2
7.789190625E0,-3.866819385E-3,-5.675984168E-3,5.545982634E-2,5.588346290E-2
7.799212625E0,2.048283526E-2,-2.174452050E-2,1.773011734E-1,1.798001023E-1
7.809210625E0,7.324447878E-3,-2.417869125E-2,2.232781452E-2,3.371628611E-2
7.819188625E0,2.115724478E-3,-2.682893946E-2,-1.153054938E-1,1.184044982E-1
7.829210625E0,2.701350134E-2,-3.987669969E-2,-2.355937473E-1,2.404668255E-1
7.839208625E0,1.294659655E-2,-5.535566367E-2,-2.086914207E-1,2.162960308E-1
7.849193625E0,4.744117406E-2,-1.446143516E-1,5.764141222E-3,1.523062737E-1
7.859199625E0,1.406139608E-1,-2.049720982E-1,-2.644174872E-2,2.499700243E-1
7.869197625E0,1.432756864E-1,-2.047253822E-1,-2.658613383E-2,2.512911199E-1
7.879192625E0,6.589118140E-2,-9.275908708E-2,1.217387101E-1,1.666319584E-1
7.889191625E0,2.946853478E-2,-4.528045258E-3,-7.647112427E-2,8.207758880E-2
7.899189625E0,3.090198655E-2,-2.685401739E-3,-7.649078096E-2,8.254080038E-2
7.909192625E0,7.158437774E-3,-5.477580717E-2,2.115744178E-2,5.915462472E-2
7.919201625E0,-6.788452006E-2,-2.335458148E-1,-9.958179189E-2,2.628088449E-1
7.929199625E0,-6.378958246E-2,-2.307289369E-1,-9.971594894E-2,2.593226246E-1
7.939190625E0,-3.854863896E-1,-4.475494549E-3,-1.257865548E-1,4.055145423E-1
7.949169625E0,4.353643086E-1,3.261112768E-1,1.649241322E-2,5.442082742E-1
7.959167625E0,4.340360039E-1,3.274668807E-1,1.661357506E-2,5.439649083E-1
7.969171625E0,5.054139886E-1,2.694348550E-1,1.721986006E-1,5.980725701E-1
7.979168625E0,3.307705941E-1,9.163861438E-2,-2.070762735E-1,4.008583348E-1
7.989166625E0,3.243031350E-1,9.395809519E-2,-2.066206658E-1,3.958443464E-1
7.999182625E0,1.102560302E-1,2.053243016E-1,-2.222052314E-1,3.220087357E-1
8.009167625E0,-7.851670414E-1,3.073884923E-1,-2.072311334E-1,8.682855007E-1
8.019165625E0,-7.821821840E-1,3.097053053E-1,-2.073206323E-1,8.664341808E-1
8.029180625E0,-6.125809531E-1,2.826247117E-1,-8.814123938E-2,6.803683046E-1
8.039165625E0,6.789221828E-1,-1.694090151E-2,2.469428091E-1,7.226361986E-1
8.049163625E0,6.809613993E-1,-1.452786639E-2,2.469182691E-1,7.244916272E-1
8.059179625E0,1.088149437E0,-6.959188876E-2,1.452096507E-2,1.090469205E0
8.069164625E0,1.023834670E0,-6.429452882E-1,-7.124744107E-2,1.211070713E0
8.079162625E0,1.035201584E0,-6.405748270E-1,-7.176700273E-2,1.219478959E0
8.089184625E0,1.006813571E0,-9.315618063E-1,-9.307624142E-3,1.371702445E0
8.099163625E0,1.177076597E0,-1.724172426E0,-4.706777909E-2,2.088179889E0
8.109161625E0,1.191164221E0,-1.719163409E0,-4.756450920E-2,2.092046226E0
8.119181625E0,1.374855085E0,-1.767119202E0,-7.116355523E-3,2.238970170E0
8.129157625E0,1.565696510E0,-1.351485957E0,1.145678653E-2,2.068345018E0
8.139155625E0,1.923539968E0,-5.733951065E-1,9.450142030E-2,2.009407494E0
8.149178625E0,1.867055280E0,2.896113122E-1,3.920267927E-1,1.929625647E0
8.159177625E0,1.865410312E0,2.933140980E-1,3.922511065E-1,1.928639345E0
8.169175625E0,1.583502451E0,3.849117910E-1,3.310397853E-1,1.662896400E0
8.179159625E0,9.500053862E-1,3.312555110E-1,-4.394350305E-1,1.097881411E0
8.189175625E0,9.303464625E-1,3.342047004E-1,-4.383782924E-1,1.081393938E0
8.199173625E0,1.336570587E0,7.712644639E-2,2.418663661E-1,1.360466377E0
8.209172625E0,2.008376343E0,6.997122573E-3,-1.435955931E-1,2.013515381E0
8.219171625E0,1.990937022E0,1.427179603E-2,-1.423560108E-1,1.996070927E0
8.229169625E0,1.976190491E0,3.323497808E-1,-1.562643898E-1,2.010025819E0
8.239170625E0,1.694613289E0,3.366523814E-1,1.539022974E-1,1.734570536E0
8.249169625E0,1.685190355E0,3.422991837E-1,1.547090670E-1,1.726548627E0
8.259167625E0,3.241824704E0,1.666846945E-1,2.206411195E-1,3.253597041E0
8.269167625E0,2.889817644E0,-5.342750777E-1,-1.312777536E0,3.218676861E0
8.279166625E0,2.850205682E0,-5.234093064E-1,-1.309773529E0,3.180115788E0
8.289164625E0,1.933219303E0,-4.368527904E-1,-1.762794748E0,2.652474798E0
8.299164625E0,3.654531125E0,8.723011070E-3,-5.405107677E-1,3.694296378E0
8.309164625E0,3.655114093E0,-3.475172995E-3,-5.411470909E-1,3.694957548E0
8.319162625E0,4.965134520E0,-2.549190508E-1,-3.223505670E-1,4.982113448E0
8.329160625E0,4.254849261E0,-9.891631479E-2,-6.945300825E-1,4.312296222E0
8.339161625E0,4.185692195E0,-1.241965872E-1,-6.902286514E-1,4.244038117E0
8.349159625E0,4.110005251E0,-1.483429566E-1,-6.847471060E-1,4.169295791E0
8.359136625E0,-1.036736771E0,1.112430220E0,1.438395462E0,2.093156858E0
8.369157625E0,-1.035027483E0,1.123034365E0,1.438635052E0,2.098132238E0
8.379155625E0,-9.603256488E-1,1.167037878E0,1.433614340E0,2.083135338E0
8.389135625E0,2.417754237E0,4.116751184E-1,1.297058612E-1,2.455979552E0
8.399155625E0,2.527619764E0,5.005350719E-1,1.268980739E-1,2.579825605E0
8.409153625E0,2.623650341E0,5.494602236E-1,1.241847649E-1,2.683443591E0
8.419153625E0,2.925410523E0,-9.589484833E-2,-1.496470739E0,3.287346532E0
8.429152625E0,4.503621390E0,-1.395251489E0,-2.424475611E0,5.301642607E0
8.439150625E0,4.583346421E0,-1.443503736E0,-2.430040845E0,5.384780957E0
8.449127625E0,3.598747226E0,-8.801818107E-1,-6.194589964E-1,3.756252263E0
8.459149625E0,2.561334517E0,-8.347635631E-1,-3.889665427E-1,2.721866949E0
8.469147625E0,2.643857734E0,-8.204167617E-1,-3.893760671E-1,2.795475112E0
8.479132625E0,2.380812844E0,-5.784603302E-1,-1.199635667E0,2.728005111E0
8.489145625E0,1.373709324E0,-4.237404459E-1,-1.471446849E0,2.057131279E0
8.499143625E0,1.421484145E0,-3.964630387E-1,-1.469631727E0,2.082694776E0
8.509130625E0,1.627468104E0,-1.702961213E0,-3.961153851E-1,2.388647467E0
8.519143625E0,9.330231716E-1,-9.502718000E-1,-2.095316656E-1,1.348129167E0
8.529141625E0,9.639193475E-1,-9.563535621E-1,-2.097347101E-1,1.373950979E0
8.539129625E0,1.171620926E0,-8.159140402E-1,-1.380715311E0,1.986148556E0
8.549140625E0,1.104938182E0,-1.160126250E0,-8.429469424E-2,1.604333787E0
8.559138625E0,1.118653850E0,-1.161879172E0,-8.413401458E-2,1.615062903E0
8.569128625E0,1.416978884E-1,2.527009278E-1,2.023379275E0,2.044015592E0
8.579111625E0,-6.620868795E-1,2.458091692E0,5.242019696E-1,2.599107829E0
8.589109625E0,-7.145002974E-1,2.245314292E0,5.126825528E-1,2.411387639E0
8.599127625E0,-3.648776003E0,-3.116518069E-1,6.541406450E0,7.496712047E0
8.609134625E0,-3.553495332E0,1.642582718E0,5.801468207E0,6.998745631E0
8.619132625E0,-3.732392064E0,1.881732523E0,5.812822915E0,7.159649296E0
8.629119625E0,-4.990746567E-2,-1.067738671E-1,-4.036882311E0,4.038602506E0
8.639131625E0,-1.024141137E0,-2.606035129E-1,-1.326541589E0,1.696022360E0
8.649129625E0,-1.140737102E0,-3.315020807E-1,-1.320931186E0,1.776522998E0
8.659125625E0,-2.096177256E0,6.761015591E-1,9.815781581E-1,2.411341554E0
8.669128625E0,-3.034465919E-1,-1.122642199E-1,1.311168492E-1,3.491055962E-1
8.679126625E0,-3.339153728E-1,-1.068552713E-1,1.334261430E-1,3.751267264E-1
8.689112625E0,-1.111801863E0,4.047682045E-1,1.059794681E0,1.588428610E0
8.699126625E0,-7.500773887E-1,-8.660854163E-1,-3.971480765E-1,1.212619739E0
8.709124625E0,-7.081017624E-1,-7.934953769E-1,-3.978733505E-1,1.135493823E0
8.719123625E0,8.540451222E-1,-6.101764319E-1,-2.260613532E0,2.492404841E0
8.729123625E0,1.089216408E0,-1.189615147E0,-6.819176383E-1,1.751167681E0
8.739121625E0,1.156629761E0,-1.171981918E0,-6.845561944E-1,1.783241769E0
8.749121625E0,2.255756688E0,-3.353372238E-2,-2.658944208E-1,2.271621137E0
8.759120625E0,2.089029620E0,-6.861388895E-1,-3.601170385E-1,2.228119299E0
8.769118625E0,2.160753906E0,-7.489572814E-1,-3.639465262E-1,2.315653585E0
8.779118625E0,1.691846387E0,-1.344726722E0,-1.425884760E0,2.589166179E0
8.789118625E0,2.103918385E0,9.266990790E-2,-5.228424189E-1,2.169890430E0
8.799116625E0,2.098632941E0,1.224436102E-1,-5.220259649E-1,2.166047960E0
8.809114625E0,3.761258744E-1,-1.450556355E0,-1.401370162E0,2.051687779E0
8.819115625E0,-1.230313925E-1,9.940606479E-1,-1.248961426E-1,1.009401972E0
8.829113625E0,-7.166497795E-2,1.064566886E0,-1.220333458E-1,1.073932335E0
8.839112625E0,5.431897426E-1,2.098221991E-1,2.272907924E-1,6.250932379E-1
8.849113625E0,4.993543729E-1,1.347307208E-1,3.307989394E-2,5.182677264E-1
8.859111625E0,5.592550773E-1,5.359060854E-2,2.934842931E-2,5.625829051E-1
8.869109625E0,-1.693285241E0,8.464148712E-1,1.746439354E0,2.575593807E0
8.879109625E0,-1.266647390E0,1.607614907E0,2.327498955E0,3.099366497E0
8.889107625E0,-1.292821135E0,1.519337445E0,2.325391764E0,3.063856984E0
8.899107625E0,-5.158597105E-1,-1.244204460E0,1.428602692E0,1.963431086E0
8.909104625E0,-7.343820549E-2,-1.656676408E0,1.868633444E-1,1.668798310E0
8.919102625E0,-1.617429385E-1,-1.565108719E0,1.889056489E-1,1.584743330E0
8.929103625E0,2.448831274E-1,-4.834771724E-1,-2.881318935E-1,6.137897933E-1
8.939098625E0,-2.847347709E-1,-8.077025760E-2,-4.229605369E-1,5.162299294E-1
8.949096625E0,-1.423014800E0,8.237529637E-1,3.672355850E-1,1.684755781E0
8.959100625E0,-1.509921820E0,7.761462495E-1,3.708506992E-1,1.737756354E0
8.969097625E0,-1.777325371E0,-5.596685485E-1,5.776961356E-1,1.950858063E0
8.979095625E0,-1.821713924E0,-5.284402142E-1,5.809896895E-1,1.983794268E0
8.989097625E0,-5.726886167E-1,-5.275178891E-1,-1.374148888E0,1.579408922E0
8.999095625E0,-2.526837407E0,-5.255800122E-1,-1.376211639E0,2.924910273E0
9.009093625E0,-2.572087255E0,-5.005910955E-1,-1.371885138E0,2.957751363E0
9.019095625E0,-3.945671009E0,7.397267937E-1,1.215001200E0,4.194251227E0
9.029095625E0,2.555020401E0,-8.975994967E-2,3.043514485E-1,2.574648695E0
9.039093625E0,2.690750064E0,1.622330397E-3,3.003961908E-1,2.707466789E0
9.049092625E0,5.033954494E0,-9.269219676E-1,-1.418160588E0,5.311408630E0
9.059089625E0,2.784530925E0,-7.738477090E-1,-2.171118973E0,3.614721337E0
9.069087625E0,2.895401735E0,-8.476925609E-1,-2.177645489E0,3.720762524E0
9.079089625E0,2.210666470E0,-1.394599232E0,1.737925767E-2,2.613858316E0
9.089070625E0,3.282902856E0,-1.176711439E0,-3.373885824E-1,3.503702617E0
9.099068625E0,3.373892548E0,-1.127803938E0,-3.348636450E-1,3.573125566E0
9.109087625E0,4.913924605E0,-1.364831788E0,-1.663005727E0,5.364234231E0
9.119071625E0,2.772446192E0,-2.185456638E0,-2.201654156E0,4.160523961E0
9.129069625E0,2.786979446E0,-2.082467874E0,-2.194468074E0,4.113346206E0
9.139074625E0,6.423193438E-1,-7.513837297E-1,-7.408999644E-1,1.235347889E0
9.149076625E0,2.507712334E0,-3.490787745E-1,-2.406192391E0,3.492884046E0
9.159074625E0,2.595854140E0,-4.028457131E-1,-2.407889838E0,3.563520289E0
9.169081625E0,4.149469279E-1,-8.502298323E-2,-2.786151663E-1,5.069874471E-1
9.179066625E0,-7.177283259E-1,1.844899888E0,4.379460443E0,4.806086071E0
9.189064625E0,-8.373645508E-1,1.755664360E0,4.373727541E0,4.786755617E0
9.199078625E0,-4.622603677E-1,1.006441323E0,5.026135597E0,5.146712332E0
9.209052625E0,-1.650632872E0,4.864728106E-1,1.812786980E0,2.499488209E0
9.219050625E0,-6.711402697E-1,1.054401063E0,-8.438796647E-2,1.252721913E0
9.229075625E0,-2.307586408E0,8.774656329E-1,1.109911385E0,2.706807021E0
9.239056625E0,-1.272767086E0,1.033152062E0,1.576110840E0,2.274085446E0
9.249054625E0,-1.399556794E0,1.015072471E0,1.583546744E0,2.344515223E0
9.259072625E0,2.736686668E0,-3.126136373E-1,-1.695179300E0,3.234318176E0
9.269054625E0,-7.915422606E-1,-6.556317727E-1,-3.321536205E-2,1.028345969E0
9.279052625E0,1.999631357E-1,-7.041273368E-1,-1.357641760E0,1.542391555E0
9.289070625E0,-1.067127528E0,-3.219202393E-2,-3.440485245E-1,1.121680380E0
9.299069625E0,-1.578124621E0,3.834567480E-2,7.970503378E-1,1.768399545E0
9.309067625E0,-5.953507800E-1,-1.684651352E-1,-2.782223248E-1,6.784030624E-1
9.319067625E0,-2.003052344E-1,-4.127855137E-2,-1.555012331E0,1.568403474E0
9.329065625E0,-1.547361469E-1,-4.058612227E-2,-1.558042358E0,1.566233220E0
9.339063625E0,-2.379719853E0,2.632606887E-1,-9.568395388E-1,2.578355032E0
9.349064625E0,-2.528666123E0,9.532693020E-1,1.453786211E0,3.068610284E0
9.359063625E0,-2.505197154E0,9.360569995E-1,1.451465159E0,3.042855007E0
9.369061625E0,1.742726628E-1,1.259146042E-2,6.702471806E-1,6.926476658E-1
9.379061625E0,2.325834983E0,-2.506781457E0,-1.770071023E0,3.850534128E0
9.389060625E0,2.314188792E0,-2.533316122E0,-1.771030989E0,3.861309506E0
9.399058625E0,1.923589962E0,-1.147767064E0,-1.587603980E0,2.745551670E0
9.409057625E0,3.619152547E0,-2.397242935E0,-3.347731228E-1,4.353976561E0
9.419057625E0,3.678294502E0,-2.502759157E0,-3.406564816E-1,4.462028763E0
9.429055625E0,3.171216067E0,-1.863931259E0,9.314120445E-1,3.794519664E0
9.439055625E0,1.793299233E0,-8.158394882E-1,3.910640121E-1,2.008593356E0
9.449054625E0,1.751388584E0,-7.996136110E-1,3.930506402E-1,1.965001960E0
9.459052625E0,4.581972472E-1,-6.834904663E-1,-8.350839905E-1,1.172377587E0
9.469052625E0,-5.279164499E-1,-9.717978859E-1,-2.301437184E0,2.553370326E0
9.479052625E0,-9.400669469E-1,-1.326793166E0,-2.576170073E0,3.046433688E0
9.489050625E0,-1.104494525E0,-1.229658927E0,-2.559142396E0,3.046502755E0
9.499029625E0,-5.055861087E0,6.030501743E-1,3.923349263E0,6.427913370E0
9.509048625E0,-4.360445883E0,1.880855879E0,5.001175588E0,6.896583530E0
9.519046625E0,-4.401015034E0,1.797094953E0,5.001453915E0,6.900219190E0
9.529028625E0,-3.792367394E-1,8.131731031E-2,1.527002268E0,1.575490062E0
9.539043625E0,-3.253937504E0,2.504847783E0,1.486177301E-1,4.109070323E0
9.549041625E0,-5.263307435E0,3.389399364E0,-5.129507207E-1,6.281206225E0
9.559027625E0,-5.000893752E0,3.739110222E0,-4.836781704E-1,6.262892953E0
9.569042625E0,-3.565851375E0,3.959779171E0,5.539582673E-1,5.357426330E0
9.579040625E0,-3.462495992E0,3.949023218E0,5.449384256E-1,5.280210295E0
9.589025625E0,4.062742737E-2,-9.759140334E-1,-1.061230611E0,1.442313835E0
9.599040625E0,-1.395575425E0,1.428242905E-1,-8.166135134E-1,1.623233555E0
9.609038625E0,-4.580653559E-1,-2.153752907E-2,-3.950767735E-1,6.052878591E-1
9.619036625E0,-5.305724654E-2,-1.485847518E0,1.637796882E-1,1.495787987E0
9.629037625E0,-4.883627404E-1,-2.091685279E0,2.796122628E-1,2.166062901E0
9.639035625E0,-4.841000836E-1,-2.061219824E0,2.810522127E-1,2.135876962E0
9.649023625E0,-2.087156172E0,7.866126741E-2,-4.201754716E-1,2.130482553E0
9.659034625E0,-2.796266067E-1,5.392960086E-1,-1.194535872E0,1.340129536E0
9.669032625E0,7.199295833E-1,7.039508971E-1,-6.011111645E-1,1.172680733E0
9.679022625E0,2.170041331E0,3.224034843E-1,-1.032912984E0,2.424857236E0
9.689007625E0,2.542088115E0,-1.003434374E-1,-1.254768479E0,2.836674941E0
9.699005625E0,2.529185649E0,-2.045581153E-1,-1.258903776E0,2.832571762E0
9.709020625E0,9.865086034E-1,-4.620572866E-1,8.192114313E-1,1.363012667E0
9.719028625E0,-1.235986053E0,6.555875532E-1,2.655581693E0,3.001594692E0
9.729026625E0,-1.841137205E0,1.223401237E0,1.941603041E0,2.942162327E0
9.739014625E0,-1.064725199E0,6.375754246E-1,3.031268040E-1,1.277508525E0
9.749026625E0,-5.037865623E-1,7.196123718E-1,-1.597066968E0,1.822708360E0
9.759024625E0,-5.122419285E-1,8.601138011E-1,-1.585787543E0,1.875342549E0
9.769011625E0,-1.186244008E0,2.154143921E0,-3.158214783E0,4.002728006E0
9.779023625E0,-1.606014670E0,1.948299418E0,-1.597417947E0,2.987791465E0
9.789021625E0,-4.480907004E0,2.149538435E-1,5.099283680E0,6.791717513E0
9.799021625E0,-6.291084225E0,3.045170270E0,8.675850663E0,1.114096887E1
9.809021625E0,-1.551510872E0,5.752453921E0,3.207996661E-1,5.966642652E0
9.819019625E0,-1.562348979E0,5.707435623E0,3.196915822E-1,5.926040705E0
9.829017625E0,-6.276499222E-1,1.916357979E0,-2.787281747E0,3.440248809E0
9.839017625E0,-2.150201143E0,1.814493782E0,1.077325072E0,3.012703429E0
9.849015625E0,-2.562337059E-1,1.740549016E0,-6.418630417E-1,1.872739905E0
9.859016625E0,-1.076249915E0,8.399172990E-1,4.874919803E-1,1.449628704E0
9.869014625E0,-1.733061802E0,2.728013895E-1,1.747688612E0,2.476356051E0
9.879012625E0,-1.746249758E0,2.843388047E-1,1.749322470E0,2.488044590E0
9.889011625E0,-1.257152096E0,-3.550995565E-2,1.594718142E0,2.030964869E0
9.899011625E0,-2.757892618E-1,-8.686682776E-1,2.717594522E-1,9.510507312E-1
9.909009625E0,2.095961494E0,-3.473503741E-1,-4.652139425E-1,2.174886406E0
9.919009625E0,5.121612443E0,-8.684052260E-1,-4.902664622E0,7.142909914E0
9.929009625E0,-1.239139748E-1,-2.813076739E0,-1.107866980E0,3.025908898E0
9.939007625E0,-8.716619790E-2,-2.843453609E0,-1.113393622E0,3.054909447E0
9.949006625E0,2.005143089E-1,-1.662781632E0,-1.150102441E0,2.031694950E0
9.959006625E0,1.480799178E0,-2.204662695E0,-8.785763846E-1,2.797355942E0
9.969004625E0,1.555286566E0,-2.313541797E0,-8.886450706E-1,2.925932674E0
9.979003625E0,8.963441726E-2,-1.609502388E0,-1.761108264E0,2.387474520E0
9.989003625E0,-6.613156318E-1,-1.826397251E0,-8.429707881E-1,2.117466655E0
9.999001625E0,-5.878575366E-1,-1.852114329E0,-8.469680909E-1,2.119730860E0
1.000900062E1,-2.925713701E0,-1.067820057E0,-1.157670931E0,3.322686010E0
1.001900062E1,-4.400064862E0,-1.398736096E-2,-6.243340302E-2,4.400530009E0
1.002899862E1,-4.339440345E0,2.026572769E-2,-6.301322297E-2,4.339945147E0
1.003899762E1,-3.348625267E0,1.470502217E-3,-7.407955916E-1,3.429587651E0
1.004899762E1,-3.776828272E0,-6.388745297E-1,-8.720296957E-1,3.928489309E0
1.005899562E1,-3.730408396E0,-5.987174241E-1,-8.705283500E-1,3.877141855E0
1.006899562E1,-5.189734844E0,7.274379929E-1,-6.480078075E-1,5.280381416E0
1.007897562E1,-5.617418908E0,2.461808073E-1,-7.228724869E-1,5.669086770E0
1.008897362E1,-5.499591665E0,1.733376930E-1,-7.231122959E-1,5.549634748E0
1.009898162E1,-4.584478734E0,2.665788922E-1,-6.142733932E-1,4.633124364E0
1.010899062E1,-6.448683059E0,1.246062578E-1,2.058194328E0,6.770317851E0
1.011898862E1,-6.329800978E0,1.168187715E-1,2.065112607E0,6.659182918E0
1.012897462E1,-5.148624240E0,8.356103130E-1,1.225670541E0,5.358063497E0
1.013898862E1,-4.611475037E0,-4.481978871E-1,-1.562700543E-1,4.635839049E0
1.014898662E1,-4.530643420E0,-3.850475926E-1,-1.468625604E-1,4.549347212E0
1.015897762E1,-4.093970724E0,2.522947702E-2,6.153759588E-1,4.140038694E0
1.016898462E1,-1.716643844E0,-5.173467945E-2,1.118840522E0,2.049718683E0
1.017898262E1,-1.676627254E0,-1.595455160E-2,1.124947354E0,2.019118631E0
1.018895862E1,-1.829772410E0,-5.375497377E-1,1.244054516E-1,1.911152404E0
1.019895662E1,-5.987824013E-1,-1.256183213E0,-4.094991501E-1,1.450595113E0
1.020895462E1,-5.807429735E-1,-1.223333555E0,-4.053954646E-1,1.413560353E0
1.021895062E1,5.058284649E-2,-6.577685646E-1,-1.017389851E-1,6.675094981E-1
1.022896362E1,-3.369597257E-1,1.166292212E-1,-1.193676642E-1,3.760224344E-1
1.023896162E1,-3.132724358E-1,1.003604035E-1,-1.174261510E-1,3.492860297E-1
1.024897062E1,-1.485182726E-1,5.188442299E-2,-6.094724637E-2,1.687134775E-1
1.025895362E1,1.348113667E-1,1.939252460E-1,3.020876259E-1,3.834553942E-1
1.026895162E1,1.426775711E-1,1.856913066E-1,3.026378854E-1,3.826589086E-1
1.027896762E1,6.482022731E-2,1.329739249E-1,2.363220363E-1,2.788042887E-1
1.028895462E1,-1.860807288E-3,2.787648870E-2,-4.632687292E-3,2.832001091E-2
1.029895262E1,-6.331464465E-3,2.238140106E-2,-5.521550865E-3,2.390610967E-2
1.030896562E1,-9.061293966E-2,3.898491708E-2,6.919846251E-2,1.204946298E-1
1.031895162E1,-1.968686247E-1,7.716634450E-2,3.257164070E-2,2.139458153E-1
1.032894962E1,-3.601847931E-1,1.553678837E-1,1.323292884E-5,3.922655538E-1
1.033896462E1,-1.672127164E-1,1.122213708E-1,-3.612619508E-2,2.045943072E-1
1.034896862E1,-1.892183470E-1,9.514849694E-2,-3.967531336E-2,2.154784208E-1
1.035896662E1,9.219168789E-2,4.215981814E-2,5.659952176E-2,1.161045367E-1
1.036896662E1,1.000519994E-1,9.078018830E-2,-1.187653553E-1,1.798795563E-1
1.037896562E1,9.838633779E-2,8.493321933E-2,-1.192327762E-1,1.763802090E-1
1.038896362E1,5.095796821E-2,1.690527621E-1,-2.366768709E-1,2.952820551E-1
1.039896462E1,-2.112410123E-2,4.060361001E-1,2.019249679E-1,4.539661165E-1
1.040896362E1,-2.041021330E-2,4.078662786E-1,2.020943179E-1,4.556463446E-1
1.041896162E1,-4.550525232E-2,1.387074761E-1,9.334342492E-2,1.732728683E-1
1.042896162E1,1.085045882E-1,9.855547763E-2,-1.554462364E-1,2.136585131E-1
1.043896062E1,1.012971183E-1,1.088256186E-1,-1.557824330E-1,2.153422575E-1
1.044895862E1,1.060486845E-1,2.206976502E-2,-6.659071396E-2,1.271523543E-1
1.045895962E1,-1.432690809E-1,-1.178323041E-1,4.530989593E-2,1.909540995E-1
1.046895862E1,-1.505453469E-1,-1.116940159E-1,4.479753823E-2,1.927336870E-1
1.047895662E1,-9.054607127E-2,-8.795207282E-2,-1.253630611E-1,1.779046239E-1
1.048895462E1,-1.900743543E-2,-1.120633589E-1,-1.924230506E-2,1.152811577E-1
1.049895562E1,-1.956621797E-2,-1.111774235E-1,-1.925871381E-2,1.145170487E-1
1.050895362E1,2.234324569E-2,-1.022441502E-2,9.174384599E-2,9.497732659E-2
1.051895362E1,4.270221134E-2,6.310187681E-2,-2.912289353E-2,8.156879696E-2
1.052895162E1,4.056051329E-2,6.091357463E-2,-2.947520654E-2,7.889490866E-2
1.053894962E1,1.450480415E-2,6.889926779E-2,6.627411007E-2,9.669413690E-2
1.054892562E1,-5.529313044E-2,1.118947947E-1,-4.056833851E-2,1.312385821E-1
1.055894962E1,-5.615297721E-2,1.124457029E-1,-4.063902130E-2,1.320936145E-1
1.056894762E1,-5.131017616E-2,9.007479482E-2,-8.176667796E-2,1.320302710E-1
1.057892162E1,9.206835732E-2,1.044335830E-1,-9.099723877E-2,1.663233392E-1
1.058894662E1,9.470544244E-2,1.078465937E-1,-9.053497983E-2,1.696955838E-1
1.059894462E1,6.538483994E-2,8.177357585E-2,-7.819443120E-2,1.306769454E-1
1.060891562E1,4.257478772E-2,4.793636927E-2,3.468582886E-3,6.420700208E-2
1.061894462E1,4.467957979E-2,5.027717872E-2,3.819480065E-3,6.736948848E-2
1.062894262E1,4.845521373E-2,5.274773697E-2,4.367927480E-3,7.175869483E-2
1.063892262E1,-8.369565614E-2,4.767099248E-2,4.214280182E-2,1.051356368E-1
1.064894062E1,-8.190367640E-2,5.750145020E-2,7.606821000E-2,1.257020348E-1
1.065893862E1,-8.244260696E-2,5.718068474E-2,7.599067957E-2,1.258610247E-1
1.066892062E1,-8.956460013E-3,9.496884123E-2,-1.031042003E-1,1.404627178E-1
1.067893762E1,1.021180597E-3,3.909418692E-2,-2.121507568E-2,4.449132159E-2
1.068893562E1,-1.328387807E-4,3.828884717E-2,-2.138664578E-2,4.385706421E-2
1.069891962E1,1.182671314E-2,4.464991888E-2,-9.459733405E-3,4.714841413E-2
1.070893562E1,4.268879929E-2,2.738108107E-2,-1.225762895E-2,5.217572858E-2
1.071893362E1,4.324925034E-2,2.635115342E-2,-1.224225717E-2,5.210329934E-2
1.072890962E1,-2.887125083E-2,4.564254312E-2,5.334996364E-2,7.591448799E-2
1.073893262E1,-2.303458073E-2,2.963732516E-2,1.181798457E-2,3.935260743E-2
1.074893062E1,-2.238412824E-2,3.155958817E-2,1.198372230E-2,4.050514045E-2
1.075891762E1,-1.197968292E-2,3.637294529E-2,-7.237206164E-2,8.187929689E-2
1.076892962E1,2.036661728E-2,4.945939993E-2,-1.458704432E-2,5.544198051E-2
1.077892762E1,1.875369139E-2,4.790192095E-2,-1.484577562E-2,5.354149816E-2
1.078891562E1,-2.162315337E-3,2.308885020E-2,-7.929255543E-3,2.450803347E-2
1.079892562E1,-9.597712277E-3,6.767134565E-3,-6.254195109E-2,6.363494196E-2
1.080892362E1,-1.170949474E-2,6.475045016E-3,-6.279674808E-2,6.420646420E-2
1.081891462E1,-1.266814403E-3,6.389574140E-2,-6.138808074E-2,8.861583970E-2
1.082892362E1,-3.068871450E-3,7.724997796E-2,2.685020643E-2,8.184076400E-2
1.083892162E1,6.649940860E-4,8.166834424E-2,2.748619163E-2,8.617221941E-2
1.084890862E1,3.889421215E-2,2.322254587E-2,-6.532574651E-2,7.949527994E-2
1.085892162E1,6.512233193E-2,-3.687616444E-2,-1.058492853E-1,1.296334865E-1
1.086891962E1,6.705719386E-2,-3.729201339E-2,-1.056461402E-1,1.305697839E-1
1.087891162E1,-8.300604557E-3,-1.271804693E-2,-4.253860351E-2,4.516836882E-2
1.088891862E1,-9.962376393E-3,1.426465831E-2,3.421434514E-2,3.838425241E-2
1.089891662E1,-1.221156728E-2,1.445342174E-2,3.396417567E-2,3.887915900E-2
1.090891662E1,-3.582083794E-2,-2.004848764E-2,4.775924432E-2,6.297634243E-2
1.091891562E1,9.219819977E-3,2.695750969E-2,2.840385502E-3,2.863180397E-2
1.092891362E1,6.809989403E-3,2.449637779E-2,2.447963671E-3,2.554292478E-2
1.093891262E1,8.037708831E-4,1.782566746E-2,4.761307307E-2,5.084687989E-2
1.094891262E1,-4.054071955E-2,5.221710672E-2,1.302128239E-1,1.460327213E-1
1.095891062E1,-4.346087387E-2,5.209150578E-2,1.298743341E-1,1.465254763E-1
1.096890962E1,-8.216392660E-3,-1.243040504E-2,-8.485992813E-2,8.615817710E-2
1.097891062E1,7.313046950E-3,-8.010833337E-3,-1.281519180E-1,1.286101403E-1
1.098890862E1,4.870821430E-3,-8.474839021E-3,-1.284491484E-1,1.288205400E-1
1.099890662E1,2.258252929E-2,-1.755556950E-2,-1.445315130E-1,1.473347444E-1
1.100890662E1,2.087252249E-2,4.236451637E-2,-1.540080224E-1,1.610865773E-1
1.101890462E1,2.327827714E-2,4.742865737E-2,-1.534959524E-1,1.623341096E-1
1.102890462E1,1.336437097E-2,8.077676263E-2,-2.246865705E-2,8.490189834E-2
1.103890462E1,-6.540321755E-2,7.827678557E-2,8.386114147E-2,1.320512290E-1
1.104890262E1,-6.438571067E-2,8.060340182E-2,8.408875348E-2,1.330914970E-1
1.105890162E1,-6.476944790E-2,1.192618935E-1,1.374252914E-1,1.931429298E-1
1.106890062E1,4.473690991E-2,-7.142150538E-2,-2.713899949E-2,8.853783277E-2
1.107889862E1,4.189370130E-2,-7.075705611E-2,-2.743065907E-2,8.668381772E-2
1.108889762E1,3.504633540E-2,-1.567164161E-1,-2.013319141E-1,2.575321734E-1
1.109888862E1,5.426397481E-2,-3.001106274E-2,-7.859544627E-3,6.250612202E-2
1.110888662E1,-2.920057927E-2,-1.750165748E-2,1.156320243E-1,1.205393997E-1
1.111889562E1,-5.186300299E-2,4.023471089E-4,1.937763384E-2,5.536628627E-2
1.112888462E1,-7.964410214E-2,1.958105071E-2,-1.242816185E-1,1.489044031E-1
1.113888262E1,-8.257025898E-2,3.196403734E-2,-2.516658747E-2,9.204838117E-2
1.114889362E1,-1.363632017E-2,9.012179296E-3,1.223880251E-1,1.234746828E-1
1.115888662E1,-1.151553940E-1,6.120230374E-2,1.936567309E-1,2.334725169E-1
1.116888462E1,-1.164495290E-1,6.161585263E-2,1.935294260E-1,2.341167334E-1
1.117888962E1,-2.360805097E-1,1.271160563E-1,7.042229388E-2,2.772215690E-1
1.118886462E1,1.174015105E-1,2.699897695E-2,-7.248032193E-2,1.405896742E-1
1.119886262E1,1.211378996E-1,3.147562124E-2,-7.183285700E-2,1.443089214E-1
1.120888762E1,1.348642657E-1,5.199034895E-2,1.523111170E-2,1.453387537E-1
1.121885762E1,2.069644273E-1,-6.877868496E-3,-4.003267874E-2,2.109127654E-1
1.122885562E1,2.054070762E-1,-1.288256040E-2,-4.050212793E-2,2.097580742E-1
1.123888462E1,1.445875275E-2,-2.111591741E-2,-1.037823128E-1,1.068910939E-1
1.124888462E1,-5.185084718E-3,7.205839964E-2,-1.523396678E-2,7.383340576E-2
1.125888262E1,-7.826132129E-3,6.850596031E-2,-1.569908766E-2,7.071616715E-2
1.126888262E1,3.412680135E-2,1.023750251E-1,1.200837380E-1,1.614477886E-1
1.127885662E1,1.530007801E-2,3.285965490E-2,-1.412097464E-1,1.457876599E-1
1.128885462E1,1.544641943E-2,3.600468491E-2,-1.410478790E-1,1.463879550E-1
1.129887862E1,4.642056541E-2,2.288585132E-2,-2.423153958E-1,2.477809155E-1
1.130887362E1,1.097509016E-2,-3.642385261E-2,-7.198997351E-2,8.142300614E-2
1.131887162E1,1.095670912E-2,-4.109535994E-2,-7.220877358E-2,8.380325211E-2
1.132887562E1,3.183887266E-2,2.573565632E-2,-7.582962533E-2,8.617522785E-2
1.133884862E1,3.705784382E-2,2.631289070E-2,7.214291931E-2,8.526577750E-2
1.134884662E1,3.784569675E-2,2.899682893E-2,7.235457481E-2,8.665043189E-2
1.135886262E1,7.309776734E-3,2.770519726E-2,8.934794937E-2,9.382998907E-2
1.136884762E1,1.426973922E-2,4.554394901E-2,-1.295293210E-1,1.380424635E-1
1.137884562E1,1.130319662E-2,4.043877244E-2,-1.300944087E-1,1.367026399E-1
1.138887062E1,-2.728049983E-2,1.358184999E-3,1.426071852E-1,1.451994477E-1
1.139886662E1,-4.082975074E-3,-8.561663464E-5,1.183639331E-3,4.251942818E-3
1.140886462E1,-7.859596018E-3,3.544525027E-3,9.239073961E-4,8.671246284E-3
1.141886862E1,8.494583652E-3,-1.149293169E-1,-7.390048727E-2,1.369021104E-1
1.142886662E1,7.124736342E-2,-2.805915938E-2,7.559971098E-2,1.076049233E-1
1.143886462E1,7.007998052E-2,-2.749043086E-2,7.549655787E-2,1.066145286E-1
1.144886462E1,-1.578060950E-2,1.965379373E-2,1.211520151E-1,1.237461515E-1
1.145886462E1,-2.561515114E-2,5.279657036E-2,4.659117620E-2,7.492897643E-2
1.146886262E1,3.919653604E-3,5.559818151E-2,-5.420864096E-2,7.775022975E-2
1.147886162E1,3.704609457E-2,1.145954454E-2,-1.867208185E-1,1.907050035E-1
1.148886162E1,5.781654204E-2,3.406427954E-2,-1.834293843E-1,1.953188846E-1
1.149885962E1,1.636547724E-3,-8.747817198E-3,-3.343219553E-2,3.459644913E-2
1.150883662E1,2.498461801E-2,-2.292379655E-2,9.975517097E-2,1.053604562E-1
1.151885862E1,2.400251647E-2,-2.121418261E-2,9.972725051E-2,1.047458201E-1
1.152885662E1,2.044422080E-2,-2.748629898E-2,-1.263289389E-1,1.308910371E-1
1.153885762E1,-4.579322312E-2,-4.529577125E-2,8.671854786E-2,1.080223714E-1
1.154885562E1,-4.305076478E-2,-4.937025730E-2,8.683038499E-2,1.087672120E-1
1.155885362E1,-1.283128763E-2,-8.323125931E-2,1.082370780E-1,1.371398904E-1
1.156885362E1,7.861678289E-2,-5.471856813E-4,6.492935097E-2,1.019643005E-1
1.157885362E1,7.750330858E-2,2.316280406E-3,6.493944656E-2,1.011398028E-1
1.158885162E1,-6.556035805E-3,-2.083679138E-3,-7.485573958E-2,7.517117182E-2
1.159885062E1,-6.366920748E-2,7.388068896E-2,-3.610129644E-2,1.039972489E-1
1.160884962E1,-6.431506899E-2,7.276885918E-2,-3.622384586E-2,1.036527953E-1
1.161884762E1,4.799234723E-2,5.622119777E-2,-2.210312384E-2,7.715333145E-2
1.162884762E1,6.522086208E-2,5.747078430E-2,1.280551740E-1,1.547733164E-1
1.163884762E1,6.584156686E-2,5.949814644E-2,1.282175530E-1,1.559323002E-1
1.164884562E1,4.349018760E-2,8.038222175E-2,-3.154785948E-2,9.668487694E-2
1.165884562E1,-9.978245188E-2,4.000299955E-2,-9.908822293E-2,1.462027825E-1
1.166884462E1,-1.026963296E-1,4.074550458E-2,-9.937177635E-2,1.485983923E-1
1.167884262E1,-5.309887141E-2,-2.773485361E-2,-1.451407564E-1,1.570176786E-1
1.168884262E1,-5.062708433E-2,5.145713313E-2,-2.326864568E-1,2.436266106E-1
1.169884162E1,-8.172297003E-2,-2.718882417E-2,-2.459772328E-1,2.606197902E-1
1.170883962E1,-6.639693358E-2,-2.359144351E-2,-2.440836120E-1,2.540510159E-1
1.171881762E1,1.411613881E-1,-1.489533077E-2,-1.054169751E-1,1.768082209E-1
1.172883862E1,2.170699508E-1,-3.051507903E-2,-2.200186880E-2,2.203057326E-1
1.173883662E1,1.375415779E-1,-2.212090532E-2,1.768699229E-1,2.251443753E-1
1.174880662E1,-2.280496331E-2,-1.607720723E-2,7.825672232E-2,8.308223355E-2
1.175883562E1,-2.774094122E-3,-2.141147132E-2,1.128248925E-2,2.436064995E-2
1.176883362E1,1.092514786E-2,-2.169994919E-2,1.292406535E-2,2.751868666E-2
1.177881462E1,-4.502666229E-2,3.621000212E-2,1.817947220E-1,1.907560891E-1
1.178883362E1,-7.444765418E-2,6.695163335E-2,2.773287058E-1,2.948494285E-1
1.179883162E1,-2.063210691E-1,1.934104535E-2,4.276024222E-1,4.751697497E-1
1.180881362E1,-4.443706652E-1,-3.067720450E-2,2.751531030E-1,5.235605114E-1
1.181883062E1,-8.700466856E-1,-1.393841726E-1,1.607623970E-1,8.956861789E-1
1.182882862E1,-8.880857845E-1,-1.311682407E-1,1.590078486E-1,9.116934594E-1
1.183880562E1,-9.730672433E-1,-1.968396079E-1,-3.555680509E-1,1.054530384E0
1.184882862E1,-1.282385024E0,-3.123284394E-1,-6.800085955E-1,1.484746475E0
1.185882662E1,-5.958006502E-1,-4.202048173E-1,-4.491096142E-1,8.563001511E-1
1.186881062E1,-3.693547622E-1,-1.992460112E-1,-1.594974021E-2,4.199717938E-1
1.187882462E1,-1.084864801E-1,2.556202827E-2,5.781892021E-1,5.888340064E-1
1.188882262E1,-8.805846839E-1,-1.606298845E-1,7.094984429E-1,1.142199363E0
1.189880962E1,-1.581365878E0,-4.634332826E-1,4.137767904E-1,1.699029041E0
1.190879462E1,-2.225020068E0,-2.627500075E-1,8.608107344E-2,2.242133320E0
1.191879262E1,-2.819985517E0,4.338657768E-1,4.321503865E-1,2.885708195E0
1.192879762E1,-3.691049326E0,7.428120039E-1,5.608177091E-1,3.806590509E0
1.193881962E1,-4.252408926E0,8.214904567E-1,1.562484561E-1,4.333848385E0
1.194881762E1,-3.743711689E0,8.131478687E-1,3.261181473E-1,3.844858868E0
1.195880762E1,-3.354299698E0,5.482912190E-1,1.167664389E-1,3.400821096E0
1.196881662E1,-3.282335091E0,2.787321289E-1,-2.123772679E-1,3.300987633E0
1.197881462E1,-3.351771069E0,3.061477497E-1,-2.159276424E-1,3.372642954E0
1.198880662E1,-3.196673382E0,7.329250018E-2,-5.336146346E-1,3.241733653E0
1.199881362E1,-2.485438535E0,-1.362336265E-2,-8.106310078E-1,2.614328392E0
1.200881162E1,-2.187323654E0,-2.187164948E-2,-3.498058757E-1,2.215226238E0
1.201881062E1,-1.554465909E0,1.609064943E-1,-4.995460519E-1,1.640671027E0
1.202881062E1,-6.756167518E-1,-5.033634432E-1,2.305369473E-1,8.734872840E-1
1.203880862E1,-7.265250964E-1,-5.214623664E-1,2.264636124E-1,9.225223482E-1
1.204880762E1,-5.384805413E-1,-6.732972345E-1,1.926876463E-1,8.834132602E-1
1.205880762E1,-2.457216949E0,6.147886790E-1,-8.214757656E-1,2.662837338E0
1.206880563E1,-2.859228228E0,3.438133202E-1,-5.864630122E-1,2.938933909E0
1.207880562E1,-2.550367480E0,7.631619224E-1,-1.593697364E-1,2.666868785E0
1.208880562E1,-3.019396913E0,6.616418333E-1,-2.502415707E-1,3.101152766E0
1.209880362E1,-3.041948454E0,6.596591156E-1,-2.511548875E-1,3.122767895E0
1.210880362E1,-2.117689309E0,1.755034469E-1,-7.606446230E-1,2.256986865E0
1.211880262E1,3.679365200E-1,-6.088328514E-1,-1.091435152E-1,7.196992640E-1
1.212880062E1,-1.745892713E-1,-1.756556572E-1,-3.503387763E-1,4.290379724E-1
1.213880062E1,-1.235616655E0,-1.185167230E-2,6.141765030E-2,1.237198896E0
1.214879662E1,-2.264248454E0,-6.526836066E-1,-7.178381804E-1,2.463353122E0
1.215879462E1,-2.379481433E0,-6.439503515E-1,-7.159286991E-1,2.566935497E0
1.216879762E1,-2.103401053E0,-1.015759227E0,-1.379184072E0,2.712602348E0
1.217879662E1,-1.617590987E0,-1.158590406E0,-1.052776706E0,2.251060000E0
1.218879462E1,-1.730203975E0,-1.153478843E0,-1.047350710E0,2.328317579E0
1.219879362E1,-6.598544126E-1,-2.057289106E-1,8.551930037E-1,1.099585060E0
1.220879362E1,-1.431314046E0,1.075656130E0,2.487571015E0,3.064915262E0
1.221879162E1,-1.425737556E0,9.534040073E-1,2.479534894E0,3.014929530E0
1.222879062E1,-2.833895751E0,-1.812160304E0,-5.185546191E-1,3.403496582E0
1.223879062E1,-3.053896362E0,-1.290315457E0,-1.379188603E0,3.590732262E0
1.224878862E1,-3.032182435E0,-1.282481796E0,-1.379975492E0,3.569765011E0
1.225878962E1,-3.544133355E0,-7.459369753E-1,-2.251684834E0,4.264667372E0
1.226878062E1,-3.390967295E0,-4.594498304E-1,-1.588842859E0,3.772820559E0
1.227877862E1,-3.325129108E0,-5.115441364E-1,-1.593768115E0,3.722668102E0
1.228878662E1,-2.845062763E0,-5.156812242E-1,-8.243474793E-1,3.006635664E0
1.229877962E1,3.841259344E-2,4.186419662E-1,1.716510820E0,1.767242490E0
1.230877762E1,8.779186824E-2,3.228506501E-1,1.713676382E0,1.746031700E0
1.231878362E1,-1.079341265E0,5.914016437E-1,2.645035363E0,2.917352488E0
1.232877462E1,-2.714032508E0,-3.765013388E-1,-1.116958340E-1,2.742298611E0
1.233877262E1,-2.656844400E0,-3.431036875E-1,-1.119721972E-1,2.681245993E0
1.234878062E1,-2.642047143E0,-5.762116738E-1,-1.421832347E0,3.055166153E0
1.235877662E1,1.415106149E0,3.882791934E-2,1.026644696E0,1.748723063E0
1.236877462E1,1.461466821E0,4.576488240E-2,1.027264281E0,1.786967151E0
1.237877762E1,3.211139101E0,1.209733151E0,3.190048779E0,4.685219294E0
1.238877462E1,-1.080635528E-1,1.176509125E0,1.610998398E0,1.997790602E0
1.239877262E1,-1.895191680E-1,1.278832549E0,1.614298713E0,2.068161148E0
1.240874862E1,-2.272012971E0,1.950327817E0,1.303514121E-1,2.997134136E0
1.241877462E1,-3.538216850E0,9.364293209E-1,-2.222407971E0,4.281935957E0
1.242877262E1,-3.509450010E0,9.281657434E-1,-2.223068706E0,4.256731786E0
1.243875762E1,-1.963179997E0,4.174524963E-1,-1.678741461E0,2.616584641E0
1.244874262E1,-1.119257502E0,-2.401734766E0,-1.217596048E-1,2.652525710E0
1.245874062E1,-1.133207789E0,-2.458826395E0,-1.237787123E-1,2.710222925E0
1.246876562E1,-7.789333979E-1,-1.931909088E0,-3.702737617E-1,2.115682543E0
1.247874162E1,-1.873561477E0,-1.468846446E0,-9.899679624E-1,2.578328733E0
1.248873962E1,-2.101767194E0,-1.392754582E0,-9.791827731E-1,2.704808601E0
1.249874362E1,-3.176533525E0,-5.063668655E-1,-1.651107812E0,3.615650653E0
1.250873962E1,-3.982754343E0,5.126896572E0,4.678078331E0,8.001988346E0
1.251873762E1,-3.749567968E0,4.907452322E0,4.658599794E0,7.735948570E0
1.252875462E1,-5.127898200E0,2.151702416E0,4.380845315E-3,5.561041487E0
1.253875462E1,-4.529026957E0,-3.351211491E0,-5.176871554E0,7.651320326E0
1.254875262E1,-4.921223685E0,-1.958943251E0,-5.833984573E0,7.879801851E0
1.255874462E1,6.755350809E0,3.092430683E0,6.406571996E0,9.810303605E0
1.256876062E1,6.852506974E0,2.849875314E0,6.409659326E0,9.806241574E0
1.257875862E1,7.067252401E0,6.227700553E-1,1.290523647E1,1.472681321E1
1.258874262E1,-3.668034685E0,2.855829241E0,-4.324691913E0,6.349267615E0
1.259875862E1,-3.508231158E0,2.871056853E0,-4.321364847E0,6.262974330E0
1.260875662E1,-5.691782408E-1,1.058348445E0,-3.331834403E0,3.541918377E0
1.261874962E1,8.485711489E0,-2.322450103E-2,3.781217484E0,9.290072364E0
1.262875462E1,8.510639924E0,3.934251086E-2,3.782982466E0,9.313618850E0
1.263875262E1,6.056351845E0,2.383191053E0,3.513976925E0,7.396420154E0
1.264874862E1,-4.365999349E-1,7.135017391E-1,-9.217364375E-1,1.244709723E0
1.265875162E1,-4.710253805E-1,7.683527150E-1,-9.225439379E-1,1.289696911E0
1.266874962E1,1.257587129E0,-1.626507187E-1,-6.342804455E-1,1.417847780E0
1.267874762E1,-4.330572166E-1,-9.036491722E-1,-1.337991753E0,1.671628640E0
1.268874862E1,-4.370905163E-1,-8.570695214E-1,-1.336613564E0,1.646861289E0
1.269874662E1,-1.250875110E-1,9.843642284E-2,-1.730447804E0,1.737753210E0
1.270874662E1,-8.344088564E-1,5.173315826E-2,-8.493169905E-1,1.191744020E0
1.271874562E1,-9.465634228E-1,9.382698052E-2,-8.516984884E-1,1.276783510E0
1.272874362E1,-5.943592750E-1,4.433245618E-1,-1.870791797E0,2.012377093E0
1.273871350E1,-2.042577731E0,-3.771533910E0,1.129434727E0,4.435337036E0
1.274874250E1,-2.231279805E0,-3.703149554E0,1.135766677E0,4.470110975E0
1.275874050E1,-4.708723936E-2,-1.796296077E-1,-2.724871491E0,2.731191800E0
1.276871250E1,9.969535578E-1,2.663859523E-1,1.047434471E0,1.470373028E0
1.277873950E1,1.134182520E0,1.770309589E-1,1.041063564E0,1.549684901E0
1.278873750E1,1.615844570E0,-2.507136968E0,-1.464503719E0,3.322869331E0
1.279872850E1,2.558364716E0,-2.730121998E-1,-2.241809763E0,3.412546952E0
1.280870750E1,2.668418378E0,-3.441200067E-1,-2.242369634E0,3.502441548E0
1.281870550E1,5.813329284E0,1.310878415E-1,-2.097437916E-1,5.818588647E0
1.282871250E1,7.760674875E0,-1.697650077E-1,3.478812062E0,8.506410996E0
1.283873350E1,7.146626015E0,-4.589859178E-2,3.654981945E0,8.027157847E0
1.284873150E1,3.852106788E0,4.377947403E-1,2.714376324E0,4.732676808E0
1.285870850E1,2.272159736E0,7.379365224E-1,-2.153186915E-1,2.398670948E0
1.286873150E1,3.340623645E0,3.462611109E-1,-1.026014731E0,3.511747332E0
1.287872950E1,2.841833054E0,1.786774983E-1,-3.669229417E-1,2.870988192E0
1.288872750E1,2.678061022E0,-1.584579545E-1,-2.246443792E-1,2.692133885E0
1.289872850E1,2.230464265E0,-5.052425921E-1,-2.968170736E-1,2.306152920E0
1.290872650E1,1.745300317E0,-3.149739024E-1,-6.650018262E-2,1.774740553E0
1.291872450E1,6.646303453E-1,2.094368493E-1,5.824116958E-1,9.081853737E-1
1.292872650E1,9.996061472E-1,1.926605481E-1,9.467236365E-1,1.390185664E0
1.293872450E1,1.021905162E0,2.125311228E-1,9.480742702E-1,1.410072502E0
1.294872250E1,1.471324057E0,5.082155724E-1,4.429288515E-1,1.618413889E0
1.295872150E1,2.218706830E0,3.741727582E-1,-1.874142069E-1,2.257828455E0
1.296871950E1,2.211461399E0,3.766104259E-1,-1.877654601E-1,2.251144775E0
1.297870350E1,3.303561361E0,-5.674590863E-1,-3.780909044E-1,3.373200293E0
1.298871950E1,3.788188827E0,-3.216433828E-1,-5.831312688E-1,3.846280168E0
1.299871750E1,3.803797385E0,-3.191888678E-1,-5.822558675E-1,3.861318165E0
1.300870250E1,4.350855280E0,1.905918329E-2,-2.786769093E-1,4.359812580E0
1.301868750E1,4.127052808E0,-3.459942220E-1,6.835301542E-1,4.197557665E0
1.302868550E1,4.154383571E0,-3.398704696E-1,6.852825648E-1,4.224219098E0
1.303870150E1,2.344212344E0,3.344204626E-1,4.467568774E-1,2.409722031E0
1.304871450E1,2.367043089E0,3.418770147E-1,4.483987390E-1,2.433276456E0
1.305871250E1,1.510757533E0,2.538736235E-1,4.845405251E-1,1.606741940E0
1.306868850E1,6.571089256E-1,-2.961844779E-1,3.410360755E-1,7.973850951E-1
1.307871250E1,8.080505584E-1,9.796521035E-2,5.331433491E-1,9.730286317E-1
1.308871050E1,8.014024204E-1,1.069227062E-1,5.328027488E-1,9.682753088E-1
1.309870050E1,1.160700008E0,-1.836729208E-1,-6.994739764E-1,1.367561368E0
1.310870850E1,1.592233513E0,1.039250489E-1,1.429289557E-1,1.602010195E0
1.311870650E1,1.583939530E0,1.150045632E-1,1.425427014E-1,1.594493307E0
1.312870750E1,1.550783917E0,1.243124260E-1,2.120016756E-1,1.570136634E0
1.313870550E1,2.164670225E0,-5.100445449E-1,-1.799100434E-2,2.224020300E0
1.314870350E1,2.174448085E0,-5.017294753E-1,-1.704586017E-2,2.231646814E0
1.315870250E1,2.472376148E0,-1.104295500E0,-1.161728004E-2,2.707812277E0
1.316868150E1,2.106457977E0,-1.280947925E0,1.778264726E-1,2.471763551E0
1.317867950E1,2.106050718E0,-1.275067965E0,1.779495199E-1,2.468382866E0
1.318870050E1,9.643562076E-1,-1.028615646E0,-1.948229215E-1,1.423372408E0
1.319870050E1,2.058511128E-2,-3.485170763E-1,3.696960568E-1,5.084909770E-1
1.320869850E1,2.287825222E-2,-3.483375668E-1,3.698836428E-1,5.086023831E-1
1.321869850E1,1.508051278E-2,-1.270383249E-1,3.919725232E-1,4.123210119E-1
1.322869650E1,-4.759620019E-1,-8.632495715E-2,-4.962390495E-1,6.929971282E-1
1.323869450E1,-4.772566486E-1,-8.740746863E-2,-4.963715985E-1,6.941172365E-1
1.324869550E1,-4.475962086E-1,-2.643005886E-2,2.504371235E-1,5.135753760E-1
1.325869550E1,-1.344399132E-2,-1.172831318E-1,-5.502632656E-1,5.627839153E-1
1.326869350E1,-1.790499294E-1,-8.772432377E-2,-5.590792588E-1,5.935689108E-1
1.327869250E1,8.829045667E-1,9.842646430E-2,1.556084126E0,1.791816411E0
1.328869150E1,-3.567347166E-1,-5.418716706E-1,9.644591186E-1,1.162353628E0
1.329868950E1,-3.225287609E-1,-5.763623127E-1,9.648311477E-1,1.169237983E0
1.330868950E1,-4.155142905E-2,1.931795433E-1,-1.411242601E0,1.425008960E0
1.331868850E1,-7.107161347E-2,-1.975387705E-1,6.505104889E-1,6.835470988E-1
1.332868650E1,-8.277271883E-2,-1.951060364E-1,6.500707052E-1,6.837467442E-1
1.333868750E1,-9.981678600E-2,-5.106808316E-2,-5.196857995E-1,5.316433674E-1
1.334868650E1,-3.292778639E-2,-1.203266075E-1,-3.809575384E-1,4.008632905E-1
1.335868450E1,-4.963518185E-2,-1.148370953E-1,-3.815215389E-1,4.015095196E-1
1.336868450E1,1.640704044E-1,-1.570890299E-1,2.832025628E-1,3.630423564E-1
1.337866850E1,-5.870610796E-3,-2.371234611E-2,-1.644692576E-1,1.662734980E-1
1.338866650E1,-6.356931831E-3,-2.393875213E-2,-1.644983658E-1,1.663525978E-1
1.339868150E1,-8.705507339E-2,-1.873829791E-2,1.421743908E-1,1.677595512E-1
1.340866850E1,-1.190530794E-2,-1.451829043E-2,-1.189596747E-1,1.204322271E-1
1.341866650E1,-8.591665134E-3,-1.585008516E-2,-1.188604548E-1,1.202200050E-1
1.342867850E1,1.100364033E-1,-2.033575951E-2,-3.937019834E-2,1.186236304E-1
1.343867050E1,2.228066450E-2,-3.207645234E-2,1.194670440E-2,4.084177459E-2
1.344866850E1,2.558923838E-2,-3.319480543E-2,1.205383635E-2,4.361191579E-2
1.345867550E1,-1.779685851E-2,-4.255874899E-2,-2.962334301E-1,2.998036364E-1
1.346866950E1,-7.459280674E-2,-1.155640595E-1,2.362785110E-1,2.733983787E-1
1.347866750E1,-7.853207136E-2,-1.157670949E-1,2.360983985E-1,2.744298823E-1
1.348867250E1,1.441794558E-2,-6.294619469E-2,-1.581223357E-2,6.648403802E-2
1.349866850E1,2.554601010E-2,-3.620347197E-2,8.458737480E-2,9.548986328E-2
1.350866650E1,2.390796517E-2,-3.673510036E-2,8.449919147E-2,9.519018729E-2
1.351867050E1,9.277493280E-3,-1.271544309E-2,-2.617678762E-2,3.054469815E-2
1.352866650E1,3.369541845E-2,-7.707742000E-3,-3.243733747E-3,3.471760821E-2
1.353866450E1,3.450745281E-2,-8.404159660E-3,-3.234485553E-3,3.566309151E-2
1.354866750E1,3.180181822E-2,-9.462208193E-3,1.399936534E-1,1.438718597E-1
1.355863550E1,4.398286577E-2,-4.039204039E-2,-2.085493699E-1,2.169305167E-1
1.356863350E1,4.583039406E-2,-4.118964172E-2,-2.084999061E-1,2.174148625E-1
1.357866450E1,2.197069583E-2,-5.284881614E-2,-3.169746141E-2,6.542505562E-2
1.358863250E1,5.138201012E-2,-2.697369688E-2,-1.324351039E-1,1.445916597E-1
1.359863050E1,5.636033409E-2,-2.799100734E-2,-1.322586368E-1,1.464661420E-1
1.360866050E1,-7.787625130E-2,-3.401360748E-2,5.914546341E-2,1.035365725E-1
1.361862950E1,-4.654264031E-3,-9.991866003E-3,1.799827430E-1,1.803199582E-1
1.362862750E1,-3.279370927E-3,-1.051944360E-2,1.800232898E-1,1.803601892E-1
1.363865850E1,4.761412260E-3,-3.394890267E-3,9.868439047E-2,9.885749971E-2
1.364865650E1,2.639328078E-2,-2.262284310E-3,4.985339263E-2,5.645426430E-2
1.365865450E1,2.693481290E-2,-2.631703286E-3,4.986355674E-2,5.673433086E-2
1.366865650E1,2.442774153E-2,-2.173841290E-2,-3.769124117E-2,4.989892597E-2
1.367862850E1,-3.222520174E-3,-3.349851803E-2,-2.404052018E-1,2.427492459E-1
1.368862650E1,-1.840867512E-3,-2.827626238E-2,-1.092336354E-1,1.128491157E-1
1.369865250E1,-3.183258234E-2,-1.947341626E-2,-2.305044358E-2,4.386171666E-2
1.370862950E1,3.955110115E-2,-8.747801780E-3,9.627128111E-2,1.044460301E-1
1.371862750E1,3.826704345E-2,-8.846928074E-3,9.621250746E-2,1.039205530E-1
1.372864950E1,1.233894979E-2,-8.266617045E-3,-4.708563137E-2,4.937249559E-2
1.373863250E1,6.197879571E-2,5.511622590E-3,-9.171704016E-2,1.108321459E-1
1.374863050E1,6.037872341E-2,5.834962766E-3,-9.177269834E-2,1.100084778E-1
1.375864650E1,1.704098625E-3,-3.298105715E-3,-1.275891874E-1,1.276431831E-1
1.376862450E1,1.774602684E-3,-6.405866288E-3,-9.055047495E-2,9.079412344E-2
1.377862250E1,3.836850406E-3,-6.944614120E-3,-9.048325025E-2,9.083043356E-2
1.378864450E1,-9.018375403E-3,-2.109272955E-2,3.786258515E-2,4.426973784E-2
1.379862550E1,1.361968987E-2,-2.491638146E-2,-1.447316751E-2,3.187153268E-2
1.380862350E1,-2.148643445E-2,-2.593572017E-2,2.675636547E-2,4.301431784E-2
1.381864150E1,2.287006155E-2,-2.575293986E-2,-3.816647134E-2,5.140946568E-2
1.382862450E1,-4.676387805E-3,-3.078728919E-3,-1.088711583E-2,1.224240441E-2
1.383862250E1,2.792454322E-3,7.721831278E-3,5.072111943E-2,5.138147950E-2
1.384863950E1,-2.515220070E-3,8.169821643E-3,5.531803136E-2,5.597460952E-2
1.385862150E1,3.490089105E-3,-3.109149286E-3,-3.046034361E-2,3.081687953E-2
1.386861950E1,-2.369481817E-2,-6.984095959E-3,-7.078426576E-1,7.082735700E-1
1.387863550E1,-1.477632052E-2,-1.043988606E-2,-1.839173527E-1,1.848050959E-1
1.388861950E1,1.204171206E-1,-7.585599261E-2,8.708415415E-2,1.668474287E-1
1.389861750E1,1.349154106E-1,8.025934800E-2,-5.565427367E-1,5.782590671E-1
1.390863350E1,-1.307769627E-4,-3.540601911E-2,2.506443525E-1,2.531327610E-1
1.391863350E1,-1.131991257E-1,-4.503037162E-2,9.171174295E-1,9.251735815E-1
1.392863150E1,-1.360182960E-1,-1.162489603E-1,7.841469216E-1,8.043016798E-1
1.393863050E1,-1.145778444E-1,4.153402445E-2,3.022608131E-1,3.259060551E-1
1.394863050E1,5.608397549E-2,6.922523179E-3,-1.556250333E-1,1.655671605E-1