"Time (s)","Linear Acceleration x (m/s^2)","Linear Acceleration y (m/s^2)","Linear Acceleration z (m/s^2)","Absolute acceleration (m/s^2)"
0.000000000E0,-3.011902794E-2,-2.681409359E0,6.405372620E-1,2.757018551E0
9.984000000E-3,-6.736928970E-2,-2.805674553E0,7.753343582E-1,2.911613244E0
1.997600000E-2,-4.872626066E-2,-2.718218803E0,6.066179276E-1,2.785511268E0
2.997066600E-2,-4.882749170E-2,-2.710068464E0,5.158615112E-1,2.759160797E0
3.996666600E-2,-7.157540321E-2,-2.779386044E0,6.657581329E-1,2.858906034E0
4.996346600E-2,-2.528258227E-2,-2.677907944E0,7.602825165E-1,2.783856977E0
5.996079900E-2,-2.788549475E-2,-2.673605919E0,7.332267761E-1,2.772465999E0
6.995851300E-2,-3.740151227E-2,-2.625399113E0,7.091646194E-1,2.719748855E0
7.995651300E-2,-5.281922594E-2,-2.599645615E0,5.872793198E-1,2.665678936E0
8.995473500E-2,-7.231508195E-2,-2.662121296E0,6.951045990E-1,2.752324412E0
9.985313500E-2,-3.686729446E-2,-2.653167725E0,7.375364304E-1,2.754018547E0
1.097621350E-1,-3.515194356E-2,-2.648309708E0,7.294244766E-1,2.747151258E0
1.196774680E-1,-1.972648129E-2,-2.680863380E0,7.497072220E-1,2.783788519E0
1.295993140E-1,-3.171002120E-2,-2.621496201E0,5.804977417E-1,2.685186303E0
1.395267420E-1,-5.787099153E-2,-2.605198145E0,6.100034714E-1,2.676286730E0
1.494590080E-1,-5.794584751E-2,-2.645642281E0,7.254362106E-1,2.743909345E0
1.593955080E-1,-2.923998982E-3,-2.655042410E0,6.709108353E-1,2.738499607E0
1.693357430E-1,-5.116612837E-2,-2.673018932E0,6.360588074E-1,2.748130090E0
1.792792980E-1,-4.846545309E-2,-2.670572519E0,6.279649734E-1,2.743837912E0
1.892258240E-1,-1.462346129E-2,-2.621707201E0,6.371793747E-1,2.698065983E0
1.991750240E-1,-5.777955055E-2,-2.616894007E0,7.089986801E-1,2.711853950E0
2.091266430E-1,-4.578787088E-2,-2.576179504E0,6.778678894E-1,2.664263922E0
2.190811880E-1,-2.993479371E-2,-2.325829268E0,5.422868729E-1,2.388399658E0
2.290370140E-1,-4.805511981E-2,-2.126089573E0,4.866256714E-1,2.181598201E0
2.389946800E-1,-1.284066960E-2,-1.925410509E0,3.855829239E-1,1.963681416E0
2.489540400E-1,-2.297535539E-3,-1.743571758E0,4.238386154E-1,1.794348608E0
2.589155400E-1,-4.550415277E-2,-1.547225833E0,4.415235519E-1,1.609633950E0
2.688779100E-1,-4.354541749E-2,-1.390715480E0,4.039392471E-1,1.448845287E0
2.788416240E-1,-4.608122632E-2,-1.249093890E0,2.573385239E-1,1.276159137E0
2.888065890E-1,-3.602065146E-2,-1.151635528E0,2.113246918E-1,1.171417945E0
2.987727220E-1,1.440703869E-2,-1.059038401E0,1.933174133E-1,1.076634348E0
3.087393880E-1,-1.736291870E-2,-9.590196609E-1,1.932163239E-1,9.784440346E-1
3.187060540E-1,-8.484188467E-3,-8.486506343E-1,1.674346924E-1,8.650515920E-1
3.286727200E-1,-1.686793566E-2,-7.464634776E-1,1.203184128E-1,7.562861701E-1
3.386393860E-1,-2.538750321E-2,-6.466240287E-1,1.448068619E-1,6.631260718E-1
3.486060520E-1,-2.406622842E-2,-5.667467713E-1,1.566543579E-1,5.884910144E-1
3.585732180E-1,7.685720921E-4,-5.224558711E-1,1.938419342E-1,5.572570533E-1
3.685398840E-1,1.097591221E-2,-4.741643071E-1,1.435413361E-1,4.955364527E-1
3.785065500E-1,-1.001715660E-2,-4.499543905E-1,1.157121658E-1,4.647027031E-1
3.884732160E-1,1.685963944E-2,-4.151212573E-1,1.029520035E-1,4.280292288E-1
3.984732160E-1,-1.128704846E-2,-3.739152551E-1,1.147212982E-1,3.912812182E-1
4.084727160E-1,-5.939360708E-3,-3.001443148E-1,1.438131332E-1,3.328725026E-1
4.184727160E-1,6.683330983E-3,-2.737987041E-1,8.973598480E-2,2.882064265E-1
4.284727160E-1,-6.272289902E-3,-2.441252470E-1,7.450771332E-2,2.553191673E-1
4.384727160E-1,-2.863686532E-2,-2.221935987E-1,8.362483978E-2,2.391300466E-1
4.484727160E-1,-2.520634234E-2,-2.244017124E-1,1.098413467E-1,2.511107518E-1
4.584727160E-1,-1.703578234E-2,-1.946043968E-1,1.099328995E-1,2.241569350E-1
4.684732490E-1,1.674826816E-2,-1.786916852E-1,6.955909729E-2,1.924829625E-1
4.784732490E-1,1.384386793E-2,-1.461876631E-1,6.538677216E-2,1.607417665E-1
4.884732490E-1,9.302154183E-3,-1.117681861E-1,5.434417725E-2,1.246272326E-1
4.984732490E-1,9.756706655E-3,-1.175369620E-1,1.392736435E-1,1.825028179E-1
5.084732490E-1,2.407774329E-3,-1.361603737E-1,1.668376923E-1,2.153607678E-1
5.184727150E-1,-1.183317602E-2,-9.264916182E-2,1.106309891E-1,1.447864185E-1
5.284727150E-1,-1.589798927E-2,-9.084373713E-2,1.622581482E-2,9.364084421E-2
5.384727150E-1,-1.460721344E-2,-8.542692661E-2,1.531887054E-2,8.801021685E-2
5.484727150E-1,-3.020630032E-2,-4.039603472E-2,7.676887512E-2,9.185706498E-2
5.584722150E-1,8.610129356E-3,-4.978460073E-2,1.168289185E-1,1.272856511E-1
5.684722150E-1,1.856419817E-2,-6.447052956E-2,6.595420837E-2,9.407994599E-2
5.784722150E-1,-2.531595528E-3,-7.162517309E-2,7.491111755E-2,1.036737668E-1
5.884722150E-1,6.934687495E-3,-6.630969048E-2,9.101009369E-2,1.128180043E-1
5.984722150E-1,6.783083081E-3,-2.974230051E-2,4.245948792E-2,5.228214580E-2
6.084727150E-1,2.013638616E-3,-2.075529099E-2,5.627155304E-2,6.001103670E-2
6.184727150E-1,2.293137088E-2,-5.111587048E-2,9.411144257E-2,1.095246256E-1
6.284727150E-1,-6.642490625E-3,-2.724480629E-2,7.456111908E-2,7.966029519E-2
6.384727150E-1,-4.301965237E-5,-4.782718420E-2,1.006164551E-1,1.114051724E-1
6.484727150E-1,-1.688034832E-2,-3.974801302E-2,7.161426544E-2,8.362687196E-2
6.584722150E-1,-1.138800383E-2,-5.768120289E-3,7.138538361E-2,7.251779668E-2
6.684722150E-1,-1.502931118E-3,-2.251321077E-2,6.161403656E-2,6.561549331E-2
6.784722150E-1,-3.866679966E-3,-1.993304491E-2,5.422210693E-2,5.789917421E-2
6.884722810E-1,-6.473869085E-3,-1.497560740E-2,6.837940216E-2,7.029880822E-2
6.984722810E-1,2.635097504E-2,-2.497345209E-2,8.976268768E-2,9.682658362E-2
7.084722810E-1,2.545277029E-2,-2.814918756E-2,9.202003479E-2,9.953847035E-2
7.184728140E-1,-2.084352076E-3,-1.939809322E-2,1.182241440E-1,1.198231145E-1
7.284728140E-1,-7.493607700E-3,-4.571324587E-2,5.577468872E-2,7.250290274E-2
7.384728140E-1,-3.136018664E-2,2.128213644E-2,2.685642242E-2,4.645059809E-2
7.484728140E-1,-9.155161679E-3,7.913172245E-3,7.466602325E-2,7.564026910E-2
7.584728140E-1,3.423349932E-2,-2.488225698E-2,7.460975647E-2,8.577689053E-2
7.684722800E-1,1.229149848E-2,-9.492278099E-3,7.692050934E-2,7.847260054E-2
7.784722800E-1,-9.232878685E-3,-2.999240160E-2,1.199340820E-1,1.239716671E-1
7.884722800E-1,5.212336779E-3,3.319978714E-5,7.913017273E-2,7.930166324E-2
7.984727800E-1,-2.125263214E-2,4.378181696E-2,5.034637451E-2,7.002341962E-2
8.084727800E-1,7.695838809E-3,-4.145562649E-3,6.232166290E-2,6.293171928E-2
8.184727800E-1,-4.612244666E-3,2.211105824E-2,7.669162750E-2,7.994859240E-2
8.284727800E-1,-2.144896239E-2,-1.034438610E-2,1.029434204E-1,1.056617817E-1
8.384727800E-1,1.700406894E-2,6.806492805E-3,1.005201340E-1,1.021751635E-1
8.484727800E-1,5.419179797E-4,-7.396101952E-3,4.304599762E-2,4.368013176E-2
8.584732800E-1,-1.123192161E-2,-8.916437626E-3,5.494880676E-2,5.678935013E-2
8.684732800E-1,1.258054376E-2,-8.578360081E-3,6.928634644E-2,7.093980649E-2
8.784732800E-1,-4.612952471E-3,1.848983765E-2,8.838081360E-2,9.041195518E-2
8.884732800E-1,9.074866772E-3,1.811492443E-2,7.164669037E-2,7.445637605E-2
8.984732800E-1,-3.279894590E-3,3.217422962E-2,6.687927246E-2,7.428846374E-2
9.084727800E-1,-1.741418242E-2,1.287937164E-3,1.099586487E-1,1.113365032E-1
9.184727800E-1,2.045405656E-2,-3.105849028E-2,8.352661133E-2,9.143135703E-2
9.284727800E-1,2.053088695E-2,-8.034765720E-3,1.637172699E-2,2.746103100E-2
9.384727800E-1,-1.487062126E-2,-1.661634445E-2,4.324913025E-3,2.271438206E-2
9.484727800E-1,2.614061534E-2,-2.034366131E-3,9.289741516E-2,9.652668108E-2
9.584727800E-1,-1.205227524E-2,5.079507828E-3,6.656742096E-2,6.784010813E-2
9.684733130E-1,-3.574196249E-2,1.855832338E-2,7.142734528E-2,8.199856647E-2
9.784733130E-1,-9.135395288E-3,-4.456162453E-3,7.633304596E-2,7.700679669E-2
9.884732460E-1,9.756892920E-3,8.134329319E-2,7.396793365E-2,1.103774593E-1
9.984732460E-1,1.388197765E-2,-2.420723438E-2,7.637405396E-2,8.131233373E-2
1.008473246E0,2.545064688E-2,-4.167318344E-3,4.278182983E-2,4.995384803E-2
1.018472712E0,1.769315079E-2,-8.538782597E-3,6.189918518E-2,6.494203199E-2
1.028472712E0,9.790062904E-5,-6.338387728E-2,8.102989197E-2,1.028755018E-1
1.038472712E0,1.137670502E-2,2.124798298E-2,9.293174744E-2,9.600633250E-2
1.048472712E0,-3.241520375E-2,3.622668982E-2,8.330249786E-2,9.644907796E-2
1.058472712E0,-3.612242639E-3,3.865885735E-2,7.132816315E-2,8.121122094E-2
1.068472712E0,1.111811772E-2,1.720166206E-2,6.653499603E-2,6.961620082E-2
1.078472712E0,1.377270371E-2,-2.386301756E-2,5.698776245E-2,6.329878390E-2
1.088472712E0,9.249590337E-3,-2.201437950E-3,1.867198944E-2,2.095338732E-2
1.098472745E0,-1.283774897E-2,-1.896500587E-2,5.458354950E-2,5.919326923E-2
1.108473278E0,-1.883346960E-2,-4.686892033E-3,9.767913818E-2,9.958855642E-2
1.118473278E0,-3.162575141E-2,1.227331161E-2,1.000537872E-1,1.056483917E-1
1.128473278E0,1.208119094E-2,1.018255949E-2,7.130146027E-2,7.303107509E-2
1.138473278E0,2.668175846E-2,4.834473133E-2,6.413173676E-2,8.462865319E-2
1.148473278E0,-1.150571555E-2,3.547316790E-2,5.223178864E-2,6.417855463E-2
1.158472778E0,-3.394708037E-3,-1.384764910E-2,7.629299164E-2,7.761380033E-2
1.168472778E0,2.615944669E-2,1.761019230E-3,1.123046875E-1,1.153245883E-1
1.178472778E0,1.949858665E-2,-1.380079985E-2,6.690979004E-2,7.104630153E-2
1.188472778E0,9.894847870E-3,-1.933228970E-2,5.260276794E-2,5.690954783E-2
1.198472778E0,-9.330067784E-3,3.357487917E-2,6.934452057E-2,7.760789399E-2
1.208472778E0,-1.454804838E-2,-1.379829645E-2,5.972385406E-2,6.299982096E-2
1.218472878E0,6.324507296E-3,1.376694441E-2,9.553718567E-2,9.673097744E-2
1.228472878E0,-8.188169450E-3,4.554855824E-2,7.872390747E-2,9.131906090E-2
1.238472878E0,-1.774321869E-2,-4.701673985E-3,6.435585022E-2,6.692236551E-2
1.248472878E0,-1.170713454E-3,2.593547106E-2,8.833599091E-2,9.207207241E-2
1.258472878E0,-1.755884662E-2,8.848428726E-3,5.005645752E-2,5.377970551E-2
1.268472344E0,1.179334894E-2,-6.183147430E-3,3.814125061E-2,4.039887857E-2
1.278472344E0,9.804055095E-3,5.121648312E-3,9.565925598E-2,9.629664601E-2
1.288472344E0,5.074389279E-3,-1.912641525E-2,4.779815674E-2,5.173232041E-2
1.298472344E0,2.873539925E-3,1.653486490E-2,3.345394135E-2,3.742759918E-2
1.308472344E0,-9.400021285E-3,1.193958521E-2,6.695652008E-2,6.865922863E-2
1.318472344E0,1.387022063E-2,-1.645272970E-2,9.565734863E-2,9.804796623E-2
1.328472344E0,1.331848651E-2,2.712023258E-2,6.448936462E-2,7.121634116E-2
1.338472344E0,1.290834323E-2,2.675431967E-2,6.451606750E-2,7.102634660E-2
1.348472344E0,5.396779627E-3,-1.893538237E-2,6.692504883E-2,6.976127935E-2
1.358472844E0,-4.821162671E-3,2.186149359E-2,9.803771973E-2,1.005612401E-1
1.368472844E0,-1.735572517E-2,-2.356833220E-2,8.126926422E-2,8.637928447E-2
1.378472844E0,6.793592125E-3,5.754226446E-2,6.932258606E-2,9.034869136E-2
1.388472844E0,7.602944970E-3,1.807624102E-2,2.153491974E-2,2.912572797E-2
1.398472310E0,1.565782353E-2,-1.407897472E-2,2.641010284E-2,3.377689298E-2
1.408471776E0,8.193202317E-3,2.835172415E-2,1.030769348E-1,1.072184840E-1
1.418471776E0,-1.863937825E-3,-3.676438332E-2,9.592914581E-2,1.027496723E-1
1.428471776E0,7.054746151E-3,4.511833191E-3,7.672500610E-2,7.718064941E-2
1.438471776E0,3.490496427E-3,-9.067773819E-3,5.271244049E-2,5.360046147E-2
1.448471776E0,-4.258397967E-3,-2.512925863E-2,7.420253754E-2,7.845782414E-2
1.458471776E0,-2.129890025E-3,5.051195621E-2,4.775238037E-2,6.954339640E-2
1.468472309E0,1.932662353E-2,-2.858203650E-2,5.733489990E-2,6.691593184E-2
1.478472309E0,1.176172867E-2,4.707217216E-3,8.129405975E-2,8.227527154E-2
1.488472309E0,-1.429217681E-2,4.899066687E-2,4.308319092E-2,6.678707283E-2
1.498472309E0,3.796093166E-3,-1.303493977E-2,6.481075287E-2,6.621747251E-2
1.508472309E0,-7.993798703E-3,4.307943583E-2,1.223821640E-1,1.299889714E-1
1.518472209E0,6.456855685E-3,-1.295822859E-2,8.654499054E-2,8.774760430E-2
1.528472209E0,-9.891230613E-3,-1.296818256E-3,4.826450348E-2,4.928468806E-2
1.538472209E0,1.666613668E-2,3.892838955E-3,2.429103851E-2,2.971479192E-2
1.548472209E0,-1.006782800E-2,-2.862256765E-2,6.730651855E-2,7.382939780E-2
1.558472209E0,4.017408937E-3,4.181540012E-2,9.356212616E-2,1.025599274E-1
1.568472209E0,3.850169480E-3,6.364881992E-3,6.718730927E-2,6.759785540E-2
1.578472209E0,3.491383046E-3,6.245434284E-3,6.719398499E-2,6.757386198E-2
1.588472209E0,1.250043511E-3,4.703456163E-2,7.437038422E-2,8.800435583E-2
1.598472209E0,-2.228377387E-2,-2.077621222E-2,5.288600922E-2,6.103398678E-2
1.608472709E0,-2.227262035E-2,-2.113753557E-2,5.291461945E-2,6.117860720E-2
1.618472709E0,-3.683418036E-3,-1.935708523E-2,7.929801941E-2,8.170948659E-2
1.628472709E0,6.450362504E-3,-7.818400860E-3,4.581546783E-2,4.692325289E-2
1.638472709E0,-1.875571907E-4,1.796627045E-2,3.149700165E-2,3.626131774E-2
1.648472709E0,9.769901633E-3,-6.840288639E-3,6.269454956E-2,6.381886141E-2
1.658472209E0,-4.809245467E-3,2.833640575E-2,8.908843994E-2,9.360999340E-2
1.668472209E0,1.732632518E-3,3.060567379E-2,6.754589081E-2,7.417652357E-2
1.678472209E0,-1.307523623E-2,1.384413242E-2,8.669757843E-2,8.876424906E-2
1.688472209E0,8.117731661E-3,1.653766632E-2,7.948970795E-2,8.159660314E-2
1.698472209E0,-1.133736223E-2,-1.956391335E-2,6.274223328E-2,6.669235582E-2
1.708472209E0,2.789840102E-3,6.157338619E-3,5.081844330E-2,5.126607266E-2
1.718472742E0,1.522504166E-2,-2.139884233E-2,4.134178162E-2,4.897810995E-2
1.728472742E0,3.557085991E-3,-1.969724894E-2,7.731246948E-2,7.986145762E-2
1.738472742E0,8.182585239E-3,3.306061029E-2,7.251644135E-2,8.011612147E-2
1.748472742E0,-6.550770253E-3,2.071237564E-2,6.775665283E-2,7.115391134E-2
1.758472742E0,-3.728900105E-3,4.649293423E-2,6.540870667E-2,8.033552475E-2
1.768472208E0,-8.131124079E-3,3.810977936E-2,6.071949005E-2,7.214795169E-2
1.778472208E0,9.071443230E-3,3.640055656E-3,7.755851746E-2,7.817202004E-2
1.788472208E0,2.338819951E-2,2.031648159E-2,7.516956329E-2,8.130332432E-2
1.798472208E0,3.426540643E-2,-3.476965427E-2,7.516479492E-2,8.962585192E-2
1.808472208E0,9.569536895E-3,4.471719265E-3,8.466339111E-2,8.531976386E-2
1.818472208E0,9.227626026E-3,-1.184993982E-2,2.716350555E-2,3.103910743E-2
1.828472208E0,1.828510314E-3,-2.632027864E-2,7.266139984E-2,7.730316646E-2
1.838472208E0,1.375997439E-2,2.162355185E-2,6.547355652E-2,7.031146061E-2
1.848472208E0,-4.626512527E-4,-4.552966356E-2,2.717590332E-2,5.302540930E-2
1.858472308E0,7.379490137E-2,-1.258767247E-1,6.539916992E-2,1.598989954E-1
1.868472308E0,-1.394153759E-2,1.433492303E-1,3.877639771E-2,1.491542065E-1
1.878472808E0,-4.141873121E-2,5.450779200E-2,2.202987671E-2,7.191610495E-2
1.888472808E0,1.364877820E-2,3.865790367E-2,9.397697449E-2,1.025299683E-1
1.898472808E0,1.034630463E-2,-1.569038630E-2,7.734584808E-2,7.959657315E-2
1.908472308E0,7.078275084E-3,2.133691311E-2,7.983875275E-2,8.294330762E-2
1.918472308E0,-7.377699018E-3,3.252744675E-3,6.557941437E-2,6.607321984E-2
1.928472308E0,-8.196394891E-3,2.380442619E-2,1.087522507E-1,1.116283280E-1
1.938472841E0,-3.010120615E-2,-1.997303963E-2,1.088047028E-1,1.146449662E-1
1.948472841E0,-2.860479057E-3,-6.024819613E-2,2.018642426E-2,6.360439608E-2
1.958472841E0,2.576828003E-3,3.874582052E-2,6.800937653E-2,7.831445554E-2
1.968473374E0,-2.064510435E-2,1.291835308E-2,2.008628845E-2,3.156838868E-2
1.978473374E0,1.148883253E-3,4.222315550E-2,3.919601440E-2,5.762327948E-2
1.988473374E0,-1.015336439E-2,3.294736147E-2,4.875278473E-2,5.971141813E-2
1.998473374E0,-1.468504965E-2,1.112169027E-2,7.271957397E-2,7.501652563E-2
2.008473374E0,-1.689267531E-2,1.102000475E-2,1.110363007E-1,1.128532811E-1
2.018472840E0,-1.380424574E-2,-4.162675142E-2,6.075763702E-2,7.493219663E-2
2.028472840E0,-6.260849535E-3,-3.423881531E-2,8.708095551E-2,9.377946216E-2
2.038472840E0,1.772936061E-2,-1.488709450E-2,6.072807312E-2,6.499118921E-2
2.048472840E0,5.533568561E-3,6.416612864E-2,4.635715485E-2,7.935299774E-2
2.058472840E0,2.972975373E-3,3.696572781E-2,2.727317810E-2,4.603400763E-2
2.068472840E0,-1.583725959E-2,1.385188103E-2,6.331539154E-2,6.671980370E-2
2.078473473E0,-2.509010956E-2,5.711013079E-2,4.913043976E-2,7.940327919E-2
2.088473473E0,6.642755121E-3,-3.664553165E-3,7.573986053E-2,7.611886507E-2
2.098473473E0,-8.183166385E-3,5.025547743E-2,9.977245331E-2,1.120139262E-1
2.108473973E0,1.839159802E-2,8.261203766E-3,9.030342102E-2,9.252678646E-2
2.118473973E0,-5.778674036E-3,1.797974110E-2,6.634712219E-2,6.898264120E-2
2.128473973E0,6.544899195E-3,1.548576355E-2,6.875228882E-2,7.077797536E-2
2.138473973E0,-2.714022994E-4,-1.893252134E-2,9.516429901E-2,9.702967500E-2
2.148473973E0,4.833508283E-3,1.870232821E-2,7.846164703E-2,8.080451682E-2
2.158473873E0,5.322881043E-3,-1.602113247E-2,3.546524048E-2,3.927840412E-2
2.168473873E0,-3.935135901E-3,6.763398647E-3,8.105373383E-2,8.143056320E-2
2.178473373E0,1.274700463E-2,-1.725113392E-2,5.950927734E-2,6.325695091E-2
2.188473873E0,7.643319666E-3,-7.799983025E-3,4.515266418E-2,4.645452781E-2
2.198473873E0,-1.187783480E-2,1.909738779E-2,6.425952911E-2,6.808142376E-2
2.208473873E0,2.084951848E-3,-1.419240236E-2,3.790092468E-2,4.052470112E-2
2.218474406E0,1.104071364E-2,4.914939404E-2,1.192131042E-1,1.294191814E-1
2.228474406E0,2.456943691E-2,-2.760928869E-2,8.809471130E-2,9.553328327E-2
2.238473872E0,2.081617713E-3,-1.534581184E-3,1.000823975E-1,1.001158047E-1
2.248473872E0,1.596774906E-2,1.006764174E-2,3.785896301E-2,4.230398918E-2
2.258473872E0,-1.296908408E-2,1.175886393E-2,3.791427612E-2,4.176075139E-2
2.268473338E0,-2.708667889E-2,2.274322510E-2,1.241903305E-1,1.291285431E-1
2.278473338E0,-2.449643612E-2,-6.588459015E-3,6.917285919E-2,7.367745668E-2
2.288440004E0,-1.636331156E-2,3.615289927E-2,6.202507019E-2,7.363354821E-2
2.298407170E0,1.467816532E-3,-2.684915066E-2,7.166957855E-2,7.654776199E-2
2.308373836E0,-1.220947132E-2,-8.315086365E-3,3.820419312E-2,4.096061795E-2
2.318340502E0,9.597763419E-4,1.569360495E-2,5.017757416E-2,5.258326117E-2
2.328307668E0,1.849472523E-3,-1.022291183E-2,7.648563385E-2,7.718795671E-2
2.338274334E0,1.808773726E-3,2.149468660E-2,1.123504639E-1,1.144024473E-1
2.348241000E0,2.518897504E-2,-3.017544746E-2,3.085899353E-2,4.997318856E-2
2.358207666E0,4.933178425E-4,1.633119583E-2,5.471420288E-2,5.710162271E-2
2.368174332E0,9.881515056E-3,3.533959389E-2,7.148551941E-2,8.035366028E-2
2.378140365E0,-4.813026637E-3,4.136824608E-2,1.170692444E-1,1.242566094E-1
2.388107031E0,8.750792593E-3,6.632065773E-2,8.365821838E-2,1.071153748E-1
2.398073697E0,-2.486223727E-2,-7.934689522E-3,8.385753632E-2,8.782469207E-2
2.408039663E0,-9.904455394E-3,1.109778881E-2,6.471729279E-2,6.640472226E-2
2.418006329E0,-6.788544357E-3,-8.820891380E-4,4.796123505E-2,4.844731657E-2
2.427972995E0,-1.313320547E-2,2.787590027E-2,4.078197479E-2,5.111473731E-2
2.437940128E0,2.120671794E-2,-8.425116539E-3,1.208782196E-2,2.582291452E-2
2.447906794E0,-7.224541157E-3,1.011669636E-2,7.199573517E-2,7.306112114E-2
2.457873460E0,2.453930676E-3,-1.519918442E-5,9.359073639E-2,9.362290289E-2
2.467840126E0,-1.619200781E-2,-1.468950510E-2,9.361934662E-2,9.613815444E-2
2.477806792E0,1.493769139E-2,-1.674044132E-2,1.127452850E-1,1.149559755E-1
2.487772958E0,1.248262823E-2,-3.147363663E-3,4.796600342E-2,4.966346131E-2
2.497739624E0,1.709044352E-2,3.570580482E-2,5.989170074E-2,7.179138929E-2
2.507706290E0,3.156092018E-2,1.149839163E-2,5.991458893E-2,6.868815516E-2
2.517671990E0,-4.850506783E-3,2.505093813E-2,4.321765900E-2,5.018807594E-2
2.527638656E0,-6.882566959E-3,-4.845261574E-3,6.725883484E-2,6.778345780E-2
2.537605322E0,-4.040488601E-2,2.799463272E-2,1.008348465E-1,1.121780751E-1
2.547571988E0,-2.123210579E-3,4.438138008E-2,8.410644531E-2,9.512154889E-2
2.557538654E0,-4.485901445E-3,1.501065493E-2,8.415889740E-2,8.560469079E-2
2.567505320E0,-4.335369915E-3,3.437960148E-2,3.386306763E-2,4.845059111E-2
2.577472520E0,5.452033132E-3,-2.058440447E-2,6.737518311E-2,7.066015618E-2
2.587472520E0,-1.623531803E-2,6.356596947E-3,9.126663208E-2,9.291711364E-2
2.597472020E0,1.976864040E-2,-5.068153143E-2,6.489562988E-2,8.468092789E-2
2.607472020E0,-9.112492204E-3,-3.106176853E-2,7.682704926E-2,8.336825820E-2
2.617472020E0,1.512440294E-2,-2.547329664E-2,4.563808441E-2,5.441021186E-2
2.627471520E0,5.408696830E-3,1.356691122E-2,5.036449432E-2,5.243946386E-2
2.637471520E0,-5.949378014E-3,1.291328669E-2,6.478977203E-2,6.633146035E-2
2.647471520E0,1.823205501E-3,2.615320683E-2,5.530738831E-2,6.120638453E-2
2.657471520E0,-9.375944734E-3,4.337573051E-2,7.702064514E-2,8.889061883E-2
2.667471520E0,1.782558486E-2,-5.778849125E-3,6.994915009E-2,7.241567628E-2
2.677471520E0,-6.061635911E-3,2.239024639E-2,8.675575256E-2,8.980326924E-2
2.687471986E0,5.371794105E-3,8.484005928E-3,5.080032349E-2,5.178327331E-2
2.697471986E0,2.393946052E-3,1.223707199E-2,6.983852386E-2,7.094290891E-2
2.707472186E0,1.618181914E-2,3.103238344E-2,6.008911133E-2,6.953820096E-2
2.717472186E0,2.508671954E-2,-2.978473902E-2,6.236076355E-2,7.352101065E-2
2.727472186E0,8.481703699E-4,1.533031464E-4,6.704711914E-2,6.705265901E-2
2.737505052E0,-3.486215696E-2,-4.541218281E-3,3.591632843E-2,5.025908176E-2
2.747538385E0,-8.399039507E-4,-5.453824997E-3,1.150054932E-1,1.151378005E-1
2.757571718E0,1.392541081E-2,-2.061086893E-2,5.761146545E-2,6.275193970E-2
2.767605051E0,-2.694929391E-2,3.905332088E-2,9.832859039E-2,1.091784686E-1
2.777638384E0,1.262957230E-2,-6.334602833E-3,3.847026825E-2,4.098286018E-2
2.787671717E0,-8.593514562E-3,2.277004719E-2,2.407646179E-2,3.423447902E-2
2.797705050E0,-3.593578935E-3,-1.583796740E-2,1.031141281E-1,1.043852405E-1
2.807738383E0,-3.026335686E-2,2.047204971E-2,6.955909729E-2,7.857126449E-2
2.817772149E0,5.710698664E-3,3.019565344E-2,7.194137573E-2,7.823011638E-2
2.827805482E0,-1.635119319E-3,2.300232649E-2,3.123855591E-2,3.882818582E-2
2.837838815E0,1.094646752E-3,1.833570004E-2,5.277919769E-2,5.588416463E-2
2.847872148E0,8.200019598E-3,-1.678389311E-2,7.426261902E-2,7.657594905E-2
2.857905981E0,1.437751204E-2,-1.746177673E-2,7.890224457E-2,8.208039167E-2
2.867939314E0,6.768397987E-3,-4.248619080E-2,8.118724823E-2,9.188175496E-2
2.877972114E0,-3.394894302E-4,-2.017664909E-2,2.605628967E-2,3.295667843E-2
2.888005447E0,-2.184913680E-2,-4.782676697E-4,5.713844299E-2,6.117528248E-2
2.898038780E0,-1.672081649E-3,1.373708248E-2,6.194496155E-2,6.347189578E-2
2.908072113E0,1.107395440E-2,2.466541529E-2,7.400703430E-2,7.879121971E-2
2.918105446E0,8.784122765E-3,1.740098000E-3,6.454372406E-2,6.516196029E-2
2.928138779E0,1.248784363E-3,3.121614456E-3,8.617305756E-2,8.623862121E-2
2.938172112E0,-4.196030647E-2,-5.465793610E-2,4.793167114E-3,6.907337945E-2
2.948205445E0,-5.827546120E-4,8.500677347E-2,1.483879089E-1,1.710130482E-1
2.958238778E0,4.654506966E-2,5.444931984E-2,9.323787689E-2,1.175775218E-1
2.968272644E0,1.844599470E-2,-2.897322178E-3,8.103752136E-2,8.316086258E-2
2.978305977E0,2.410705388E-2,-1.717334986E-2,1.119709015E-2,3.164567616E-2
2.988338843E0,3.101960942E-2,-5.374222994E-2,1.564884186E-2,6.399476306E-2
2.998372176E0,2.140689269E-2,-5.391848087E-2,1.064519882E-1,1.212331779E-1
3.008405509E0,-1.708754152E-2,6.644129753E-3,6.090259552E-2,6.360231660E-2
3.018438842E0,-9.110450745E-3,2.134573460E-2,2.036952972E-2,3.087974157E-2
3.028472175E0,-2.824591473E-2,2.357733250E-2,6.367492676E-2,7.354059154E-2
3.038438841E0,-1.613027975E-2,1.177877188E-2,5.667304993E-2,6.008959960E-2
3.048405507E0,1.537910849E-2,1.789343357E-2,1.214065552E-1,1.236779834E-1
3.058372173E0,7.770977914E-3,2.385932207E-2,1.430530548E-1,1.452371572E-1
3.068339573E0,2.675924450E-3,-1.033723354E-2,1.024026871E-1,1.029579006E-1
3.078306773E0,2.188325673E-2,-7.658600807E-4,2.818202972E-2,3.568879749E-2
3.088273439E0,-1.634335518E-2,5.145192146E-3,4.724407196E-2,5.025515492E-2
3.098240105E0,1.206430420E-2,2.647024393E-2,4.946041107E-2,5.738077651E-2
3.108206771E0,1.065171510E-2,-1.601916552E-2,8.512306213E-2,8.726974507E-2
3.118173437E0,9.918041527E-3,-1.272481680E-2,5.612182617E-2,5.839475904E-2
3.128140103E0,1.167369634E-2,8.876323700E-4,2.964878082E-2,3.187653183E-2
3.138106769E0,4.536774009E-3,-1.103782654E-2,7.274341583E-2,7.371580889E-2
3.148073435E0,-3.436088562E-3,8.879184723E-3,8.723545074E-2,8.775346428E-2
3.158039601E0,5.451634526E-3,-7.115781307E-3,8.257484436E-2,8.305997582E-2
3.168006267E0,8.533444256E-3,-6.140351295E-3,4.677867889E-2,4.794547303E-2
3.177972500E0,3.849349916E-3,3.833508492E-2,7.080459595E-2,8.060823182E-2
3.187939633E0,6.057795137E-3,-2.966767550E-2,8.524799347E-2,9.046595073E-2
3.197906299E0,5.184523761E-4,9.508848190E-3,7.559585571E-2,7.619330934E-2
3.207872965E0,-1.407817379E-2,-8.352816105E-3,9.943294525E-2,1.007714003E-1
3.217839631E0,-2.639498562E-3,-6.529152393E-3,8.252334595E-2,8.282330234E-2
3.227806297E0,-1.029878482E-2,2.828538418E-3,4.403781891E-2,4.531440271E-2
3.237772963E0,1.130789518E-2,-1.508039236E-2,1.041793823E-2,2.153648449E-2
3.247739629E0,3.346428275E-5,-7.185697556E-3,3.191184998E-2,3.271087798E-2
3.257673495E0,6.884187460E-4,-1.867574453E-2,5.581951141E-2,5.886488944E-2
3.267606295E0,3.911767527E-2,2.595424652E-3,1.992797852E-2,4.397787030E-2
3.277539628E0,-4.622701555E-3,3.974783421E-2,-1.110744476E-2,4.152872527E-2
3.287472961E0,-3.820593655E-2,-3.507572412E-2,1.900711060E-1,1.970203678E-1
3.297762038E0,6.946101785E-3,2.105194330E-2,2.479267120E-2,3.325821992E-2
3.307695371E0,-6.181675941E-3,1.338380575E-2,8.947086334E-2,9.067731117E-2
3.317628704E0,-7.090762258E-3,-2.601987123E-2,1.923160553E-1,1.941977799E-1
3.327562037E0,-2.263098955E-3,-1.872122288E-3,3.169155121E-2,3.182736051E-2
3.337528703E0,1.464859396E-2,3.123283386E-5,4.351043701E-2,4.591013406E-2
3.347495369E0,2.159458399E-2,-4.085600376E-2,5.051708221E-2,6.846542702E-2
3.357462035E0,3.110200912E-2,-1.952332258E-2,4.555416107E-2,5.851219263E-2
3.367427968E0,-2.843067050E-4,-1.092147827E-2,4.065132141E-2,4.209381725E-2
3.377394101E0,-8.039604872E-3,-1.570969820E-2,6.459140778E-2,6.695879197E-2
3.387360767E0,3.712341189E-3,2.255582809E-2,5.022811890E-2,5.518524065E-2
3.397327800E0,-8.606493473E-3,-6.969690323E-3,6.704902649E-2,6.795748867E-2
3.407294466E0,-7.232237607E-3,5.105674267E-3,9.576702118E-2,9.617533736E-2
3.417261132E0,8.278857917E-3,1.213365793E-2,4.549312592E-2,4.780574912E-2
3.427227798E0,-3.122533485E-2,4.329323769E-3,6.469154358E-2,7.196360463E-2
3.437194464E0,-2.846229821E-3,2.801418304E-6,5.028724670E-2,5.036772988E-2
3.447161130E0,-3.290057182E-3,6.626248360E-4,5.023288727E-2,5.034487572E-2
3.457127796E0,2.918035723E-2,-2.288842201E-2,7.892990112E-2,8.720838493E-2
3.467094462E0,8.272033185E-3,3.313279152E-2,1.123657227E-1,1.174404702E-1
3.477061562E0,-4.906926304E-3,-2.755951881E-2,3.323650360E-2,4.345423080E-2
3.487027762E0,2.934483625E-2,4.299265146E-2,5.469989777E-2,7.550871678E-2
3.496994428E0,9.286660701E-3,-2.600163221E-2,8.818054199E-2,9.240202882E-2
3.506961094E0,-5.608450621E-3,3.460055590E-2,1.925468445E-3,3.510499417E-2
3.516927760E0,-5.930267274E-3,2.691137791E-2,9.147644043E-3,2.903566294E-2
3.526894426E0,2.831276506E-3,2.434432507E-3,9.059047699E-2,9.066739827E-2
3.536861092E0,2.026829869E-3,-4.744648933E-3,8.101081848E-2,8.117494961E-2
3.546828292E0,-8.056156337E-3,-6.211996078E-3,6.657028198E-2,6.734309908E-2
3.556827758E0,-1.250822097E-3,-2.853333950E-3,8.804130554E-2,8.809641055E-2
3.566827758E0,-1.162186638E-2,-1.328885555E-2,3.045463562E-2,3.520150978E-2
3.576827758E0,1.251509786E-2,1.205086708E-2,2.316284180E-2,2.895459051E-2
3.586827758E0,5.400322378E-3,-6.042778492E-3,-4.874801636E-2,4.941707956E-2
3.596827224E0,-2.300447971E-2,6.525814533E-3,1.092281342E-1,1.118149258E-1
3.606827224E0,-2.053052559E-2,7.870018482E-3,1.091337204E-1,1.113265853E-1
3.616827224E0,-9.791228920E-3,4.393208027E-2,-6.326103210E-2,7.763925569E-2
3.626827224E0,1.685689762E-2,-2.421456575E-2,2.025918961E-1,2.047290320E-1
3.636827224E0,2.109818161E-2,-6.159186363E-3,1.282653809E-1,1.301348407E-1
3.646827224E0,1.292430982E-2,2.063548565E-2,-2.500724792E-2,3.490305862E-2
3.656827224E0,-6.260823458E-3,3.055292368E-2,1.162271500E-1,1.203388110E-1
3.666827224E0,-1.307592168E-2,-2.634298801E-2,1.323127747E-2,3.224902245E-2
3.676827224E0,-1.528368518E-2,-2.091401815E-2,3.473091125E-2,4.332693602E-2
3.686827224E0,1.311330870E-2,-6.923079491E-4,9.450340271E-2,9.541137919E-2
3.696826857E0,1.708857156E-2,-8.857905865E-3,7.523632050E-2,7.765942117E-2
3.706826857E0,-4.341267049E-4,4.242789745E-2,5.121135712E-2,6.650502271E-2
3.716826857E0,1.685649157E-3,1.457339525E-2,3.438282013E-2,3.738186168E-2
3.726826857E0,-5.461920053E-3,-1.165926456E-3,5.585289001E-2,5.613142861E-2
3.736826857E0,-2.972777933E-3,4.456460476E-3,7.254886627E-2,7.274637755E-2
3.746826857E0,-7.939953357E-3,-1.349633932E-2,9.639739990E-2,9.766090693E-2
3.756826857E0,-1.009915024E-3,-7.354319096E-3,6.995582581E-2,7.034858564E-2
3.766826857E0,-2.966053784E-3,2.206760645E-2,2.201843262E-2,3.131434343E-2
3.776826857E0,-1.494777203E-2,-1.582759619E-2,2.438163757E-2,3.268658655E-2
3.786826857E0,-1.807319745E-2,2.470773458E-2,9.382629395E-2,9.869390077E-2
3.796827390E0,1.865706965E-2,1.489824057E-2,1.273565292E-1,1.295751881E-1
3.806827390E0,5.605481565E-3,2.965033054E-3,5.312728882E-2,5.350440787E-2
3.816827390E0,-8.085548878E-3,5.337357521E-3,2.679443359E-2,2.849219468E-2
3.826827390E0,1.159714162E-2,5.158126354E-3,5.314731598E-2,5.464189928E-2
3.836827390E0,-2.334989607E-3,1.465493441E-2,8.906936646E-2,9.029712797E-2
3.846826856E0,-2.269744873E-3,2.311885357E-3,6.515598297E-2,6.523648268E-2
3.856826856E0,-4.843465984E-3,2.323526144E-2,8.196353912E-2,8.533087532E-2
3.866826856E0,-1.710228249E-2,1.258730888E-3,6.523513794E-2,6.745143210E-2
3.876826856E0,-3.190469742E-2,-4.981756210E-4,5.560684204E-2,6.411145590E-2
3.886826856E0,1.136762649E-2,-1.409667730E-2,4.357719421E-2,4.719015892E-2
3.896826856E0,2.541985363E-2,-2.036327124E-2,4.350566864E-2,5.434680283E-2
3.906826856E0,1.086971164E-2,-1.045131683E-2,6.502819061E-2,6.675362334E-2
3.916826856E0,1.539210603E-2,-4.873275757E-4,6.499767303E-2,6.679709512E-2
3.926826856E0,1.478910819E-2,-1.155078411E-3,6.504631042E-2,6.671637301E-2
3.936826856E0,8.422028273E-3,1.219850779E-2,8.427143097E-2,8.556522793E-2
3.946826856E0,9.272234514E-3,6.190717220E-3,8.914852142E-2,8.984296402E-2
3.956826856E0,1.070772856E-2,-2.396106720E-3,6.531238556E-2,6.622767160E-2
3.966826856E0,2.479907125E-3,1.847976446E-2,6.536006927E-2,6.796756792E-2
3.976826856E0,-7.036626339E-4,3.496587276E-3,8.934688568E-2,8.941804764E-2
3.986826856E0,1.029700972E-2,3.237873316E-2,7.257270813E-2,8.013244496E-2
3.996826856E0,1.885164529E-4,2.507108450E-2,5.103302002E-2,5.685915888E-2
4.006826856E0,2.693476155E-3,-5.537986755E-3,5.099296570E-2,5.136347595E-2
4.016826856E0,-1.369280741E-2,1.029306650E-2,3.890991211E-2,4.251377957E-2
4.026826856E0,-1.062754914E-2,-3.137141466E-2,6.274414062E-2,7.095024765E-2
4.036826856E0,-5.911847576E-3,-1.264721155E-2,6.738090515E-2,6.881197774E-2
4.046827389E0,8.304230869E-3,5.035340786E-3,3.857898712E-2,3.978257350E-2
4.056827389E0,4.966920242E-3,-1.239037514E-2,6.017589569E-2,6.163870630E-2
4.066827389E0,3.921510652E-3,-1.329672337E-2,6.024265289E-2,6.181713618E-2
4.076827389E0,4.483088851E-4,-1.970213652E-2,3.642177582E-2,4.141160366E-2
4.086827389E0,-5.338585004E-3,-9.479463100E-3,8.922672272E-2,8.988753394E-2
4.096826855E0,9.343307465E-4,2.761602402E-3,5.586910248E-2,5.594511626E-2
4.106826855E0,1.485935971E-2,4.823589325E-2,4.887199402E-2,7.025648559E-2
4.116826855E0,1.382333040E-2,3.047376871E-2,6.589317322E-2,7.390294527E-2
4.126826855E0,-4.248343408E-3,5.600392818E-3,1.116409302E-1,1.118620137E-1
4.136826855E0,-9.850207716E-3,4.959464073E-3,8.793449402E-2,8.862334971E-2
4.146826855E0,4.252642393E-3,1.686704159E-2,7.376098633E-2,7.578433323E-2
4.156826855E0,2.506072819E-2,2.249348164E-2,9.543228149E-2,1.011993931E-1
4.166826855E0,1.177127566E-2,3.161311150E-2,5.476284027E-2,6.431889632E-2
4.176826855E0,1.323676296E-2,1.502120495E-2,2.122783661E-2,2.917995097E-2
4.186826855E0,1.402225997E-2,1.517212391E-2,8.585834503E-2,8.830896065E-2
4.196826855E0,7.619488984E-3,2.818942070E-2,5.225372314E-2,5.985943229E-2
4.206826855E0,-3.436159343E-3,-8.177340031E-3,4.749870300E-2,4.831979789E-2
4.216826855E0,6.899997592E-3,2.932995558E-2,4.277133942E-2,5.231867483E-2
4.226826855E0,-1.666381024E-3,3.397732973E-2,4.297065735E-2,5.480614157E-2
4.236826855E0,-2.137146331E-2,1.146280766E-2,6.717967987E-2,7.142299903E-2
4.246826855E0,3.349434584E-2,1.548302174E-2,1.153173447E-1,1.210771867E-1
4.256826855E0,2.036775649E-2,3.605866432E-2,8.924961090E-2,9.838986646E-2
4.266826855E0,1.724755205E-2,4.007333517E-2,7.034873962E-2,8.277859270E-2
4.276826855E0,3.122430108E-2,1.120430231E-2,9.210205078E-2,9.789423439E-2
4.286826855E0,6.756972522E-3,4.582279921E-2,5.150413513E-2,6.926804126E-2
4.296826921E0,8.385624737E-3,3.544950485E-2,1.186084747E-1,1.240764134E-1
4.306826921E0,1.859053504E-3,8.747458458E-3,2.286624908E-2,2.455278918E-2
4.316826921E0,-1.267296635E-2,-2.816557884E-3,6.072998047E-3,1.433242407E-2
4.326826921E0,2.063466609E-2,-3.129035234E-2,2.215356827E-1,2.246840766E-1
4.336826921E0,7.847151719E-3,-2.573764324E-2,8.500099182E-2,8.915813300E-2
4.346826387E0,-8.129019290E-3,2.914428711E-2,7.064914703E-2,7.685552942E-2
4.356826387E0,1.829526154E-3,-2.834630013E-2,5.628585815E-2,6.304726580E-2
4.366826387E0,2.214306779E-2,3.478419781E-2,9.452247620E-2,1.031249455E-1
4.376826387E0,6.639940664E-3,-4.204034805E-3,8.001899719E-2,8.040399637E-2
4.386826387E0,-3.495048266E-3,2.855092287E-2,4.157829285E-2,5.055813481E-2
4.396826387E0,1.466784626E-3,5.548000336E-3,5.108070374E-2,5.140204333E-2
4.406826387E0,-9.762520203E-4,3.135502338E-2,7.267189026E-2,7.915361137E-2
4.416826387E0,1.773759141E-3,3.500521183E-3,5.603408813E-2,5.617133524E-2
4.426826387E0,5.112109706E-3,1.386916637E-2,8.249950409E-2,8.381321863E-2
4.436826387E0,2.243336476E-2,-8.892953396E-3,6.583881378E-2,7.012196428E-2
4.446826387E0,-3.592188470E-3,-1.748323441E-2,7.313537598E-2,7.528180738E-2
4.456826387E0,-7.168165408E-3,7.382810116E-3,4.452419281E-2,4.569783612E-2
4.466826387E0,-1.266101003E-2,2.671647072E-2,6.146430969E-2,6.820507568E-2
4.476826387E0,-4.660429899E-3,3.387939930E-2,6.884574890E-2,7.687177925E-2
4.486826387E0,-6.787148770E-3,3.663110733E-2,8.337783813E-2,9.132232643E-2
4.496826387E0,1.257439982E-2,1.793718338E-2,8.333969116E-2,8.617054138E-2
4.506826387E0,2.011357248E-2,2.626359463E-3,8.561611176E-2,8.798620434E-2
4.516826387E0,1.546261366E-3,-1.500105858E-2,5.915451050E-2,6.104652975E-2
4.526826387E0,-1.410796493E-2,7.771253586E-4,5.185794830E-2,5.374835254E-2
4.536826387E0,-5.390241742E-3,1.594191790E-2,4.700469971E-2,4.992635824E-2
4.546826920E0,7.663776167E-3,1.816344261E-2,7.096290588E-2,7.365037762E-2
4.556826920E0,-1.830610260E-2,1.046150923E-2,8.776473999E-2,9.026187541E-2
4.566826920E0,1.355672535E-2,1.230913401E-2,7.823371887E-2,8.034808243E-2
4.576826920E0,4.590624943E-3,-2.163749933E-2,4.953765869E-2,5.425158839E-2
4.586826920E0,-6.572593004E-3,1.947522163E-2,9.020805359E-2,9.252013926E-2
4.596826853E0,-3.509160131E-3,5.819797516E-3,1.212759018E-1,1.214661624E-1
4.606826853E0,-2.438556030E-2,3.112989664E-2,6.370449066E-2,7.497991829E-2
4.616826853E0,1.319478732E-2,1.032859087E-2,4.688549042E-2,4.978987260E-2
4.626826853E0,-6.702046841E-3,6.073355675E-3,2.529621124E-2,2.686450045E-2
4.636826853E0,-3.049559891E-3,2.567231655E-2,3.484058380E-2,4.338472003E-2
4.646826853E0,-4.440367222E-3,-2.401375771E-2,9.465026855E-2,9.774993994E-2
4.656826853E0,-3.405196592E-3,-8.482038975E-3,1.089248657E-1,1.093076700E-1
4.666826853E0,-8.534969762E-3,-2.155661583E-3,6.331348419E-2,6.392253019E-2
4.676826853E0,-3.993235528E-3,1.319229603E-2,4.887294769E-2,5.077940154E-2
4.686826853E0,1.220143773E-2,1.874375343E-2,2.487373352E-2,3.345005224E-2
4.696826853E0,7.983226329E-3,7.542252541E-3,7.509231567E-2,7.589119415E-2
4.706826853E0,3.029329702E-3,-9.972393513E-3,9.171962738E-2,9.230988851E-2
4.716826853E0,-9.032508358E-3,-4.959166050E-3,6.517314911E-2,6.598271668E-2
4.726826853E0,-1.361016370E-2,-7.003366947E-3,3.861713409E-2,4.153994163E-2
4.736826853E0,6.395665929E-3,1.517498493E-2,5.274391174E-2,5.525490871E-2
4.746826853E0,-7.303263992E-3,1.136422157E-3,7.647323608E-2,7.682958387E-2
4.756826853E0,-8.839633316E-3,-8.305609226E-3,6.430339813E-2,6.543736909E-2
4.766826853E0,-5.619302392E-3,-2.773600817E-2,6.653404236E-2,7.230243081E-2
4.776826853E0,-4.843093455E-3,-3.008085489E-2,7.113265991E-2,7.738325847E-2
4.786826853E0,5.598179996E-4,-2.068424225E-2,3.744125366E-2,4.277848466E-2
4.796827353E0,-4.607893899E-2,-1.006086469E-1,6.127262115E-2,1.264899306E-1
4.806827353E0,4.859471321E-2,1.004228592E-1,1.185588837E-1,1.627955948E-1
4.816827353E0,1.771308482E-2,1.861771941E-1,5.394935608E-2,1.946438645E-1
4.826827353E0,-1.284311712E-2,-7.035613060E-3,1.356601715E-2,1.996202219E-2
4.836827353E0,-4.785198718E-3,9.480118752E-3,6.645107269E-2,6.729424820E-2
4.846826819E0,-2.567432821E-4,1.306056976E-3,9.286403656E-2,9.287357530E-2
4.856826819E0,-2.022346482E-2,-1.550704241E-2,6.652927399E-2,7.124325365E-2
4.866826819E0,1.076702960E-2,-1.909685135E-2,9.037590027E-2,9.299689246E-2
4.876826819E0,8.355464786E-3,-5.883961916E-2,6.396389008E-2,8.731147581E-2
4.886826819E0,-1.043301448E-2,1.676732302E-2,8.540534973E-2,8.765879691E-2
4.896826819E0,-1.481299102E-2,2.973580360E-2,7.575130463E-2,8.271579578E-2
4.906826819E0,-1.385578886E-2,-1.681274176E-2,8.043861389E-2,8.333679724E-2
4.916826819E0,-5.697973073E-3,-1.396667957E-2,8.022117615E-2,8.162703068E-2
4.926826819E0,5.101568997E-3,-3.740364313E-2,1.535511017E-2,4.075337942E-2
4.936826819E0,-2.540710196E-2,-3.257638216E-2,5.826568604E-2,7.142570737E-2
4.946826819E0,8.404850960E-3,-2.116334438E-2,4.615402222E-2,5.146574037E-2
4.956826819E0,-2.239305153E-2,-1.304644346E-2,5.326652527E-2,5.923665384E-2
4.966826819E0,-1.209937036E-2,-5.597770214E-3,7.240200043E-2,7.361915145E-2
4.976826819E0,-2.054787055E-2,1.861423254E-2,6.280994415E-2,6.865707335E-2
4.986826819E0,1.639109850E-2,-2.118468285E-2,6.753349304E-2,7.265143894E-2
4.996826819E0,-1.934832335E-2,-2.742856741E-2,1.033754349E-1,1.086883824E-1
5.006826819E0,-2.129532397E-3,-3.514468670E-2,7.929229736E-2,8.675801019E-2
5.016826819E0,-6.286814809E-3,2.618670464E-3,4.084587097E-2,4.140974101E-2
5.026826819E0,-1.020055637E-2,8.653521538E-3,3.357124329E-2,3.613811231E-2
5.036826819E0,1.666606218E-2,1.193851233E-2,5.266094208E-2,5.651071160E-2
5.046827352E0,-1.680492982E-2,2.850651741E-2,9.337806702E-2,9.906811092E-2
5.056827352E0,8.024200797E-4,1.887512207E-2,1.149349213E-1,1.164772520E-1
5.066827352E0,-1.520217955E-2,1.185482740E-2,6.943416595E-2,7.206071466E-2
5.076827352E0,9.768903255E-3,9.775578976E-3,7.420444489E-2,7.548041505E-2
5.086827352E0,-2.073021978E-2,-8.196949959E-3,4.299163818E-2,4.842739880E-2
5.096827352E0,1.355890185E-3,-1.522284746E-2,4.759025574E-2,4.998405710E-2
5.106827352E0,1.475561410E-3,-5.610764027E-3,9.529209137E-2,9.546853216E-2
5.116827352E0,1.306880265E-2,-1.520472765E-2,3.525352478E-2,4.055599037E-2
5.126827352E0,-4.079554230E-3,-1.869738102E-3,9.979438782E-2,9.989523774E-2
5.136827352E0,-8.618421853E-3,-1.811856031E-2,6.384468079E-2,6.692311027E-2
5.146827352E0,-3.159206361E-3,8.133590221E-3,3.751564026E-2,3.851699805E-2
5.156827352E0,1.229647547E-2,-1.654696465E-2,9.503936768E-2,9.724961057E-2
5.166827352E0,1.977827772E-2,1.735401154E-2,2.797317505E-2,3.840365228E-2
5.176827352E0,1.021841913E-2,-6.692409515E-3,1.361560822E-2,1.829178017E-2
5.186827352E0,1.448801160E-2,-3.032153845E-2,9.020614624E-2,9.626238618E-2
5.196827352E0,1.093066111E-2,-2.226769924E-2,9.013462067E-2,9.348571883E-2
5.206827352E0,-9.093802422E-3,9.595811367E-3,8.767986298E-2,8.867093780E-2
5.216827352E0,-1.590787992E-2,2.171957493E-2,6.851673126E-2,7.361618736E-2
5.226827352E0,-6.443262100E-4,-2.887845039E-4,5.897903442E-2,5.898326080E-2
5.236827352E0,-7.733784616E-3,2.267956734E-3,8.051586151E-2,8.091822420E-2
5.246827352E0,1.375530660E-2,-8.160889149E-3,6.124496460E-2,6.329892780E-2
5.256827352E0,2.555241250E-2,5.045533180E-4,8.507728577E-2,8.883312958E-2
5.266827352E0,-1.273372769E-2,-9.624719620E-3,4.423713684E-2,4.702879251E-2
5.276827352E0,-1.421641931E-2,-5.867838860E-3,3.216838837E-2,3.565590163E-2
5.286827352E0,-1.350384206E-3,9.307444096E-3,5.366134644E-2,5.447928188E-2
5.296827885E0,4.174616188E-3,1.487672329E-2,6.797409058E-2,6.970811506E-2
5.306827885E0,1.364002004E-2,5.758523941E-3,5.357265472E-2,5.558093269E-2
5.316827885E0,3.550969064E-3,1.384198666E-3,6.551074982E-2,6.562151879E-2
5.326827885E0,5.327466875E-3,4.352033138E-3,7.504272461E-2,7.535736601E-2
5.336827885E0,-4.845779389E-3,-1.702600718E-2,5.108451843E-2,5.406472530E-2
5.346827351E0,5.186725408E-3,-5.296349525E-3,4.392147064E-2,4.454266519E-2
5.356827351E0,-1.446146518E-3,1.773095131E-2,3.920364380E-2,4.305117491E-2
5.366827351E0,1.995166019E-2,1.508367062E-2,6.316471100E-2,6.793648930E-2
5.376827351E0,1.228828356E-2,1.524764299E-2,7.033157349E-2,7.300700486E-2
5.386827351E0,2.077835426E-2,-3.334999084E-3,8.465003967E-2,8.722666703E-2
5.396794051E0,-4.228606820E-3,-2.747476101E-3,8.220672607E-2,8.236125031E-2
5.406761251E0,-1.423011348E-2,3.104418516E-2,5.345344543E-2,6.343113109E-2
5.416727917E0,-1.889136806E-2,1.142752171E-2,4.391193390E-2,4.915007608E-2
5.426694583E0,-2.027868479E-2,5.937933922E-3,6.551647186E-2,6.883961215E-2
5.436661249E0,3.530118614E-3,1.526415348E-2,7.271766663E-2,7.438625652E-2
5.446627915E0,-3.528662026E-3,3.315150738E-3,9.905242920E-2,9.917068826E-2
5.456594581E0,1.317034662E-2,1.214444637E-2,9.174919128E-2,9.348186834E-2
5.466561247E0,-8.044894785E-3,-1.647120714E-2,7.480525970E-2,7.701849048E-2
5.476527913E0,2.146527171E-3,-2.521026134E-2,4.584026337E-2,5.235928381E-2
5.486494579E0,1.228830218E-2,-1.656472683E-2,3.598308563E-2,4.147499243E-2
5.496461245E0,1.244683564E-2,-1.370990276E-2,3.577613831E-2,4.028420563E-2
5.506427911E0,-1.353122294E-2,-2.072751522E-2,2.122688293E-2,3.260834925E-2
5.516394644E0,5.744952708E-3,-2.123713493E-3,6.179714203E-2,6.209993079E-2
5.526361310E0,1.019816846E-3,-1.782321930E-2,1.383495331E-2,2.258568364E-2
5.536327976E0,-2.238845080E-2,5.920886993E-3,-1.009082794E-2,2.526112509E-2
5.546294642E0,-4.819236696E-3,-5.454242229E-3,6.666088104E-2,6.705704185E-2
5.556261308E0,-2.135489136E-3,-1.088392735E-2,7.645893097E-2,7.725922801E-2
5.566227974E0,7.216479629E-3,9.024083614E-3,5.520343781E-2,5.639974476E-2
5.576194640E0,7.009603083E-3,-5.309522152E-3,7.231044769E-2,7.284316307E-2
5.586161306E0,-9.672321379E-3,9.560942650E-3,1.182947159E-1,1.190739486E-1
5.596127439E0,-2.177804708E-5,1.782274246E-2,8.523082733E-2,8.707436219E-2
5.606094105E0,1.404319331E-2,2.198153734E-2,9.281921387E-2,9.641475886E-2
5.616060771E0,-2.158433199E-5,1.050311327E-2,8.117389679E-2,8.185057956E-2
5.626027437E0,5.891285837E-3,7.271051407E-3,2.156734467E-2,2.351012108E-2
5.635994103E0,2.074837685E-4,2.671718597E-3,4.089927673E-2,4.098697314E-2
5.645960769E0,-5.617439747E-4,-1.073086262E-2,7.214260101E-2,7.293847990E-2
5.655927935E0,1.264266670E-2,-5.042314529E-3,7.465934753E-2,7.588992114E-2
5.665894601E0,-1.633958891E-2,-1.932853460E-2,6.048393250E-2,6.556584862E-2
5.675861267E0,-2.066677809E-2,1.067250967E-2,3.443622589E-2,4.155564742E-2
5.685827933E0,1.687144861E-2,5.995810032E-3,7.772159576E-2,7.975739442E-2
5.695827399E0,2.695938200E-2,-3.239566088E-2,8.030986786E-2,9.069708924E-2
5.705826865E0,-4.804643244E-2,2.032640576E-1,8.998966217E-2,2.274266389E-1
5.715826865E0,-4.089600593E-2,-1.891732216E-2,2.328491211E-2,5.072016868E-2
5.725826865E0,3.252327442E-4,3.798496723E-2,1.216859818E-1,1.274772202E-1
5.735826865E0,-4.031918943E-3,7.022500038E-3,9.552764893E-2,9.587024349E-2
5.745826865E0,-3.426231444E-3,1.706373692E-2,6.934738159E-2,7.149803853E-2
5.755826865E0,-9.462423623E-3,-2.131688595E-2,7.912826538E-2,8.249381473E-2
5.765827365E0,1.103661954E-2,2.751809359E-2,4.573154449E-2,5.450162023E-2
5.775827365E0,-7.664054632E-3,9.799516201E-2,4.344844818E-2,1.074688660E-1
5.785827365E0,-7.149852812E-3,5.692720413E-2,6.761550903E-2,8.867741554E-2
5.795827365E0,9.481184185E-3,1.040178537E-2,9.661960602E-2,9.763932742E-2
5.805827365E0,-1.268013567E-2,4.971742630E-3,7.531070709E-2,7.653238967E-2
5.815827298E0,-1.545257121E-2,1.454079151E-2,7.071304321E-2,7.382784742E-2
5.825827298E0,3.687776625E-3,1.979154348E-2,5.889797211E-2,6.224368248E-2
5.835827298E0,-8.644469082E-3,2.759969234E-2,8.537673950E-2,9.014242903E-2
5.845827298E0,7.322780788E-3,5.196213722E-3,7.107448578E-2,7.163941851E-2
5.855827298E0,1.362942904E-2,-1.856958866E-2,8.063220978E-2,8.385788104E-2
5.865827298E0,1.068039238E-2,-4.110342264E-2,7.811927795E-2,8.891672353E-2
5.875827298E0,-8.987709880E-4,-5.830699205E-2,4.204940796E-2,7.189343378E-2
5.885827298E0,7.181189954E-3,2.353346348E-2,6.816482544E-2,7.246955788E-2
5.895827298E0,5.443096161E-3,3.480911255E-3,4.649925232E-2,4.694597432E-2
5.905827798E0,-1.822646707E-2,8.941888809E-3,3.687095642E-2,4.209072231E-2
5.915827798E0,-1.320561022E-2,1.836633682E-2,4.885578156E-2,5.383862796E-2
5.925827798E0,-8.806921542E-3,1.541870832E-2,9.438896179E-2,9.604464869E-2
5.935827798E0,-1.576138288E-2,-1.916122437E-2,9.447574615E-2,9.767927273E-2
5.945827798E0,1.235671341E-3,2.051949501E-2,2.991390228E-2,3.629625475E-2
5.955827298E0,1.602010429E-2,1.523447037E-2,4.671669006E-2,5.168347859E-2
5.965827298E0,1.034550369E-3,2.693814039E-2,6.110095978E-2,6.678368804E-2
5.975827298E0,7.155999541E-3,2.968239784E-2,9.697914124E-2,1.016720557E-1
5.985827298E0,8.489653468E-3,-3.724575043E-3,8.738517761E-2,8.787557079E-2
5.995827298E0,2.812236547E-3,-3.205895424E-3,6.818389893E-2,6.831713191E-2
6.005827298E0,-1.271277666E-3,1.072907448E-2,2.033710480E-2,2.302883014E-2
6.015827798E0,-1.689493656E-4,-2.161741257E-3,6.591033936E-2,6.594599687E-2
6.025827798E0,-4.158720374E-3,-3.241598606E-3,6.839752197E-2,6.860046595E-2
6.035827798E0,5.966566503E-3,3.397005796E-2,4.454803467E-2,5.633908188E-2
6.045827798E0,-8.265785873E-3,3.071355820E-2,8.771419525E-2,9.330287199E-2
6.055827798E0,-8.708491921E-3,6.932616234E-3,9.009361267E-2,9.077862107E-2
6.065827298E0,-6.668873131E-3,4.083967209E-2,7.569313049E-2,8.626588369E-2
6.075827298E0,-1.847483218E-3,7.160484791E-3,4.936981201E-2,4.992057767E-2
6.085827298E0,2.210246399E-2,-9.513139725E-3,7.569885254E-2,7.943132265E-2
6.095827298E0,2.865350246E-2,-4.240870476E-3,9.002208710E-2,9.456735352E-2
6.105827298E0,1.710504293E-3,1.422464848E-3,2.769565582E-2,2.778486247E-2
6.115827298E0,-7.686667144E-3,-5.033612251E-4,8.512210846E-2,8.546994544E-2
6.125827298E0,-1.174902916E-2,-1.460427046E-2,6.116294861E-2,6.397054544E-2
6.135827298E0,-3.904327750E-3,4.587888718E-3,7.552909851E-2,7.576897267E-2
6.145827298E0,-1.328457147E-2,2.552986145E-3,3.719329834E-2,3.957700113E-2
6.155827798E0,-1.781938225E-2,5.296409130E-3,2.998352051E-2,3.527880150E-2
6.165827798E0,1.079605520E-2,-6.278634071E-3,8.023166656E-2,8.119788405E-2
6.175827798E0,3.592155874E-3,8.765459061E-3,8.257007599E-2,8.311169776E-2
6.185827798E0,-8.213117719E-3,6.239473820E-3,4.187965393E-2,4.313109956E-2
6.195827798E0,-4.290267825E-4,2.580463886E-3,6.114006042E-2,6.119599535E-2
6.205827298E0,9.182237089E-3,2.091407776E-2,9.951496124E-2,1.021025937E-1
6.215827298E0,1.844168082E-2,2.241361141E-2,7.564258575E-2,8.102016013E-2
6.225827298E0,2.305298671E-2,2.196961641E-2,6.131172180E-2,6.908857700E-2
6.235827298E0,8.543975651E-3,-1.925170422E-3,6.609535217E-2,6.667309337E-2
6.245827298E0,-8.895397186E-4,1.299148798E-2,5.168628693E-2,5.330142866E-2
6.255827298E0,2.025507763E-2,-5.831837654E-3,6.123352051E-2,6.475972926E-2
6.265827831E0,1.178025454E-2,4.337608814E-3,8.272552490E-2,8.367258642E-2
6.275827831E0,1.775286719E-2,-6.917297840E-3,5.153369904E-2,5.494301993E-2
6.285827831E0,1.193767041E-2,1.319831610E-2,4.426670074E-2,4.771000228E-2
6.295827831E0,1.723878086E-3,2.119123936E-2,4.419708252E-2,4.904510663E-2
6.305827831E0,3.769241273E-3,1.179587841E-2,6.333446503E-2,6.453374611E-2
6.315827331E0,-5.729615688E-3,-1.483601332E-2,6.814670563E-2,6.997791991E-2
6.325827331E0,-3.635847569E-2,2.316188812E-2,5.620384216E-2,7.083278683E-2
6.335827331E0,-3.017153591E-2,5.906283855E-3,3.470516205E-2,4.636436175E-2
6.345827331E0,-6.840571761E-3,1.939290762E-2,9.703922272E-2,9.919419859E-2
6.355827331E0,2.008387819E-2,3.626686335E-2,1.353416443E-1,1.415486073E-1
6.365827331E0,-1.030802727E-3,1.304155588E-2,1.568355560E-1,1.573802286E-1
6.375827331E0,2.641975135E-2,7.890641689E-3,1.660642624E-1,1.683377698E-1
6.385827331E0,2.003712580E-2,-8.562380075E-2,8.170700073E-2,1.200373093E-1
6.395827331E0,9.615056962E-2,-2.496418357E-1,9.230613708E-3,2.676773849E-1
6.405827831E0,1.347236335E-3,1.450508833E-2,3.641128540E-3,1.501567349E-2
6.415827831E0,-9.967572987E-3,-7.054519653E-2,-3.995895386E-3,7.135786183E-2
6.425827831E0,-3.000555933E-2,-6.999796629E-2,-6.406784058E-2,9.952254554E-2
6.435827831E0,-3.248080611E-3,-3.129655123E-2,1.990795135E-2,3.723373032E-2
6.445827831E0,4.891015589E-3,8.940690756E-2,2.716073990E-1,2.859861821E-1
6.455827331E0,-1.926081330E-1,3.194606304E-2,4.084615707E-1,4.527243075E-1
6.465827331E0,6.320224702E-2,1.670817733E-1,4.710426331E-1,5.037777339E-1
6.475794531E0,1.008324325E-3,-6.100529432E-2,4.065341949E-1,4.110872344E-1
6.485761464E0,-6.219964474E-2,9.861457348E-2,4.065475464E-1,4.229356185E-1
6.495728130E0,-9.047269821E-3,-3.191471100E-2,1.072549820E-1,1.122676847E-1
6.505694796E0,-6.375607848E-2,-3.618459105E-1,-4.336833954E-1,5.684000246E-1
6.515661462E0,-1.377502978E-1,-3.608261347E-1,-3.949928284E-1,5.524400225E-1
6.525628128E0,-1.710853726E-1,-2.379375696E-1,-2.915811539E-1,4.134054439E-1
6.535594794E0,-9.358700514E-1,-6.606595516E-1,-3.198451996E-1,1.189379985E0
6.545561460E0,-5.973367691E-1,-5.963932276E-1,-1.805534363E-1,8.631892266E-1
6.555528126E0,-2.704443336E-1,-1.817563772E-1,-5.588150024E-2,3.306028740E-1
6.565494259E0,3.725818992E-1,6.536037922E-1,-2.185077667E-1,7.834288946E-1
6.575460925E0,5.560556650E-1,8.419097066E-1,-1.080169678E-1,1.014730271E0
6.585427591E0,5.070062876E-1,6.865451336E-1,5.743722916E-1,1.028738609E0
6.595394257E0,8.591136336E-2,5.194426775E-1,7.057371140E-1,8.804920963E-1
6.605360923E0,8.276101947E-2,2.541639805E-1,8.825397491E-2,2.814915264E-1
6.615327589E0,6.915266067E-2,8.779013157E-2,1.444063187E-1,1.825989664E-1
6.625294789E0,-1.084627360E-1,1.451083422E-1,5.762405396E-1,6.040478089E-1
6.635261455E0,-5.373880267E-3,3.296355605E-1,6.690979004E-3,3.297472525E-1
6.645228121E0,-9.296014905E-3,-3.939103186E-1,-6.846189499E-1,7.899081349E-1
6.655194787E0,-1.681193709E-3,-5.676791072E-1,-8.187398911E-1,9.962918269E-1
6.665161453E0,-1.846905053E-2,-2.498196363E-1,-5.616531372E-1,6.149839047E-1
6.675128119E0,-2.601255476E-1,-2.820749283E-1,-4.711246490E-2,3.865891230E-1
6.685094785E0,-1.334680915E-1,-4.943712950E-1,2.511501312E0,2.563172946E0
6.695061451E0,-2.209964991E-1,-4.951967597E-1,1.083725929E0,1.211825554E0
6.705027617E0,-3.886954784E-1,-3.001498282E-1,-9.699811935E-1,1.087215531E0
6.714994283E0,-4.300327003E-1,1.297998428E-2,2.474298477E-1,4.963044760E-1
6.724960949E0,2.212611139E-1,4.711607099E-1,1.595926285E-1,5.444434792E-1
6.734927882E0,3.253200054E-1,5.232249498E-1,-2.080430984E-1,6.502917690E-1
6.744894548E0,2.148864269E-1,3.027767539E-1,2.002277374E-1,4.218306366E-1
6.754861214E0,-1.739480495E-1,7.847833633E-2,1.918687820E-1,2.706111652E-1
6.764827880E0,-1.742603481E-1,9.519189596E-2,1.909065247E-1,2.754513880E-1
6.774827346E0,-1.750767827E-1,1.045901775E-1,1.903800964E-1,2.789902618E-1
6.784827079E0,-1.800622344E-1,1.130216122E-1,1.899299622E-1,2.850783815E-1
6.794827079E0,-1.837455779E-1,1.228795648E-1,1.894073486E-1,2.910961500E-1
6.804827079E0,-1.917408824E0,2.671800852E-1,2.078905106E-1,1.947064524E0
6.814827079E0,-2.039414644E0,2.144836187E-1,2.453308105E-1,2.065285094E0
6.824827079E0,-2.068774462E0,9.673276544E-2,2.538566589E-1,2.086534976E0
6.834794279E0,-1.934434772E0,1.319438815E-1,2.598323822E-1,1.956261726E0
6.844761445E0,-1.940780520E0,1.628142893E-1,2.584857941E-1,1.964676163E0
6.854728111E0,-1.512420893E0,7.730263472E-2,2.834959030E-1,1.540701977E0
6.864694777E0,-1.207216024E0,-8.758533001E-2,2.296323776E-1,1.231979200E0
6.874661443E0,-1.047296762E0,-8.888494968E-2,3.005075455E-1,1.093176943E0
6.884628109E0,-7.497419715E-1,-1.015916169E-1,3.980216980E-1,8.549006682E-1
6.894594775E0,-6.655360460E-1,-5.864529312E-2,5.174503326E-1,8.450635158E-1
6.904561441E0,-7.213968635E-1,-1.461775303E-1,8.191728592E-1,1.101283559E0
6.914528107E0,-7.882860899E-1,-2.202397734E-1,9.224386215E-1,1.233204577E0
6.924494240E0,-8.585944176E-1,-2.211318910E-1,1.025793076E0,1.355852175E0
6.934460906E0,-8.544281721E-1,-1.621611714E-1,1.040569305E0,1.356144618E0
6.944427572E0,-7.835743427E-1,-4.769919813E-2,1.040940285E0,1.303771698E0
6.954394238E0,-6.672117710E-1,5.208769441E-2,9.886960983E-1,1.193903116E0
6.964360904E0,-5.823801160E-1,-4.757076502E-2,6.467237473E-1,8.715969151E-1
6.974327570E0,-5.558239818E-1,-1.658915579E-1,5.798749924E-1,8.201922424E-1
6.984294736E0,-4.817495048E-1,-1.408228725E-1,5.704326630E-1,7.598072715E-1
6.994261402E0,-3.748366833E-1,-1.455342174E-1,5.443220139E-1,6.767342184E-1
7.004228068E0,-2.208859622E-1,-9.071485698E-2,5.160827637E-1,5.686485844E-1
7.014194734E0,-1.946046799E-1,-3.107744455E-2,5.002269745E-1,5.376465521E-1
7.024161400E0,-2.669593692E-1,3.974923491E-2,2.214403152E-1,3.491176302E-1
7.034127800E0,-3.744291961E-1,1.700279117E-2,1.254272461E-2,3.750248495E-1
7.044094466E0,-4.877021313E-1,-6.899562478E-2,-2.701292038E-1,5.617682368E-1
7.054061132E0,-4.915076792E-1,-1.106919646E-1,-4.327268600E-1,6.641423380E-1
7.064027798E0,-3.308734298E-1,-2.964541316E-2,-7.077264786E-1,7.818138177E-1
7.073994464E0,-2.186991572E-1,3.254920244E-2,-8.534097672E-1,8.815877736E-1
7.083961130E0,-5.365014076E-2,1.292647719E-1,-9.560174942E-1,9.662076216E-1
7.093928330E0,-2.204298973E-2,5.449825525E-2,-9.916553497E-1,9.933963388E-1
7.103894996E0,8.959040046E-2,-6.179213524E-4,-1.032367706E0,1.036247993E0
7.113861662E0,1.300179362E-1,4.036366940E-2,-9.492130280E-1,9.589260983E-1
7.123828328E0,1.936723888E-1,8.560293913E-2,-7.185516357E-1,7.491016691E-1
7.133827794E0,1.699506342E-1,9.244960546E-2,-6.756000519E-1,7.027557027E-1
7.143827294E0,4.057249427E-2,9.287750721E-2,-5.712928772E-1,5.802136763E-1
7.153827294E0,-5.693268776E-2,7.747483253E-2,-4.484996796E-1,4.586890485E-1
7.163827294E0,-1.653427780E-1,1.221060753E-2,-3.618764877E-1,3.980476423E-1
7.173827294E0,-2.640391588E-1,-2.024948597E-3,-3.086833954E-1,4.062095720E-1
7.183827294E0,-3.581785858E-1,3.091979027E-2,-2.216129303E-1,4.223271523E-1
7.193827294E0,-3.890003562E-1,2.933144569E-2,-2.418966293E-1,4.590158931E-1
7.203827294E0,-4.175330698E-1,7.352709770E-3,-2.691116333E-1,4.967987499E-1
7.213827294E0,-3.929418325E-1,-2.096945047E-2,-1.740503311E-1,4.302749346E-1
7.223827294E0,-2.678767741E-1,-1.505565643E-2,5.759716034E-2,2.744122296E-1
7.233827794E0,-2.104557902E-1,8.000594378E-2,1.145324707E-1,2.526069625E-1
7.243827794E0,-1.357782483E-1,1.520932019E-1,1.378431320E-1,2.461073014E-1
7.253827794E0,-1.137863100E-1,1.510776281E-1,1.226348877E-1,2.254131534E-1
7.263827794E0,-9.585195780E-2,1.480210125E-1,5.693435669E-2,1.853087665E-1
7.273827794E0,-1.870908141E-1,1.503941417E-1,5.825805664E-2,2.470128979E-1
7.283827294E0,-2.155907452E-1,7.185432315E-2,-1.269769669E-1,2.603181962E-1
7.293827294E0,-3.466027081E-1,-1.685029268E-2,-1.224679947E-1,3.679888305E-1
7.303827294E0,-3.000664413E-1,-6.508094072E-2,-2.636442184E-1,4.047019545E-1
7.313827827E0,-3.004825711E-1,-3.335651755E-2,-2.561712265E-1,3.962652270E-1
7.323827827E0,-1.907506287E-1,-2.100986242E-2,-3.419742584E-1,3.921397839E-1
7.333827827E0,-2.042424679E-1,-2.812129259E-2,-4.469604492E-1,4.922188903E-1
7.343828360E0,-1.824568808E-1,-8.363065124E-2,-6.096477509E-1,6.418371907E-1
7.353828360E0,-7.709434628E-2,-8.848127723E-2,-5.955667496E-1,6.070191330E-1
7.363828360E0,1.200613081E-1,-2.094799280E-2,-4.191427231E-1,4.365021861E-1
7.373828360E0,2.244158089E-1,2.760708332E-3,-2.503757477E-1,3.362411216E-1
7.383828360E0,3.656086922E-1,-2.821701765E-2,-2.443885803E-2,3.675094198E-1
7.393827826E0,3.221012652E-1,-6.176334620E-2,1.056489944E-1,3.445658805E-1
7.403827826E0,2.280778289E-1,-1.656182557E-1,2.884778976E-1,4.033217079E-1
7.413827826E0,2.387761474E-1,-1.344188005E-1,2.871341705E-1,3.968985946E-1
7.423827826E0,1.791800261E-1,-1.329141110E-1,3.410863876E-1,4.075678673E-1
7.433827826E0,1.570434868E-1,-1.369602084E-1,3.640985489E-1,4.195098434E-1
7.443827826E0,1.806062460E-2,-1.310843080E-1,2.508535385E-1,2.836137863E-1
7.453827826E0,-7.012848556E-2,-1.476383805E-1,1.712331772E-1,2.367190251E-1
7.463827826E0,-2.229783684E-1,-2.172775567E-1,9.879207611E-2,3.266324597E-1
7.473827826E0,-1.912830770E-1,-2.676114440E-1,2.465200424E-1,4.110684028E-1
7.483828326E0,-6.174251437E-3,-1.873145252E-1,4.707679749E-1,5.067024165E-1
7.493828326E0,8.729733527E-2,-9.942818433E-2,7.571983337E-1,7.686716498E-1
7.503828326E0,1.144037172E-1,-1.184858084E-1,1.060453415E0,1.073167528E0
7.513828326E0,4.226183146E-2,-1.944820881E-1,1.155599594E0,1.172612369E0
7.523828326E0,-3.177184239E-2,-2.771919072E-1,1.140842438E0,1.174464249E0
7.533827826E0,-3.305109590E-2,-2.913950682E-1,1.109520912E0,1.147623682E0
7.543827826E0,1.183661371E-1,-2.498784959E-1,1.011369705E0,1.048483899E0
7.553827826E0,2.455515712E-1,-1.817772686E-1,8.702421188E-1,9.223122546E-1
7.563827826E0,3.477022946E-1,-8.354492486E-2,4.371004105E-1,5.647418959E-1
7.573827826E0,3.487138152E-1,-6.333492696E-2,2.482528687E-1,4.327148307E-1
7.583827826E0,1.949896067E-1,5.071790516E-2,-9.613704681E-2,2.232388506E-1
7.593828359E0,-3.231629729E-2,1.269650310E-1,-1.435451508E-1,1.943442113E-1
7.603828359E0,-4.858333170E-1,7.702201605E-3,-2.147836685E-1,5.312488683E-1
7.613827825E0,-5.571014881E-1,-3.195521235E-2,-2.786979675E-1,6.237433453E-1
7.623827825E0,-6.080574989E-1,-5.147923529E-2,-1.509666443E-1,6.286294309E-1
7.633827825E0,-4.466644228E-1,-1.029393077E-2,-4.002380371E-2,4.485721530E-1
7.643827291E0,-2.682741731E-2,6.424531341E-2,1.043863297E-1,1.254738078E-1
7.653827291E0,1.846814156E-1,6.032222509E-2,1.434440613E-1,2.414998857E-1
7.663827291E0,4.127047956E-1,1.795038581E-2,1.035013199E-1,4.258638138E-1
7.673827291E0,4.914201498E-1,-5.207696557E-2,2.294826508E-2,4.947043530E-1
7.683827291E0,5.964962840E-1,-1.424174309E-1,-1.269216537E-1,6.262584512E-1
7.693827291E0,5.461146235E-1,-1.558897197E-1,-2.096710205E-1,6.053963360E-1
7.703827291E0,3.955989778E-1,-1.221753657E-1,-3.881511688E-1,5.675268285E-1
7.713827291E0,2.032384276E-1,-1.247681677E-1,-3.871269226E-1,4.546869344E-1
7.723827291E0,-2.069803327E-1,-1.945432425E-1,-2.713623047E-1,3.928427570E-1
7.733827357E0,-3.769468665E-1,-2.226579487E-1,-7.685565948E-2,4.444910513E-1
7.743827357E0,-3.848580718E-1,-4.533591866E-2,1.700716019E-1,4.231966809E-1
7.753827357E0,-3.279095292E-1,1.155875027E-1,3.617238998E-1,5.017263296E-1
7.763827357E0,-2.986195982E-1,1.787554622E-1,6.441602707E-1,7.321677636E-1
7.773827357E0,-3.200513422E-1,1.804579496E-1,6.440076828E-1,7.414471180E-1
7.783826857E0,-2.624648511E-1,3.431516886E-2,6.368513107E-1,6.896701537E-1
7.793826857E0,-1.509034932E-1,1.689031720E-2,5.987682343E-1,6.177220616E-1
7.803826857E0,1.327749640E-1,1.772722602E-2,3.838272095E-1,4.065301617E-1
7.813826857E0,2.961928248E-1,2.295389771E-2,1.692686081E-1,3.419194826E-1
7.823826857E0,6.241899729E-1,5.170190334E-2,-6.647014618E-2,6.298448137E-1
7.833826857E0,6.862733364E-1,9.050625563E-2,-1.367673874E-1,7.055974722E-1
7.843827357E0,4.112855196E-1,1.364972591E-1,-1.327466965E-1,4.532206591E-1
7.853827357E0,1.597679257E-1,5.928868055E-2,-1.550741196E-1,2.304103303E-1
7.863827357E0,-1.439712048E-1,2.769011259E-2,-9.607124329E-2,1.752830109E-1
7.873827357E0,-1.773077548E-1,8.141273260E-2,-1.332759857E-2,1.955599596E-1
7.883827357E0,-7.215291262E-2,3.204525113E-1,3.809547424E-2,3.306767605E-1
7.893826823E0,-2.656060457E-2,4.075301886E-1,-3.910064697E-3,4.084135268E-1
7.903826823E0,-2.679497004E-2,3.922782540E-1,-2.844810486E-3,3.932026093E-1
7.913826823E0,1.760155708E-1,2.210436463E-1,-4.256725311E-2,2.857511956E-1
7.923826823E0,4.153957069E-1,1.252590418E-1,-1.660184860E-1,4.645487688E-1
7.933826823E0,5.026664138E-1,1.248913407E-1,-2.750167847E-1,5.864346531E-1
7.943826823E0,5.359054208E-1,1.697373986E-1,-4.367380142E-1,7.118605886E-1
7.953826823E0,4.868636131E-1,1.771473885E-1,-4.884614944E-1,7.120477558E-1
7.963826823E0,2.190392911E-1,1.092789769E-1,-3.895959854E-1,4.601142659E-1
7.973826823E0,3.933352232E-2,4.088133574E-2,-3.365068436E-1,3.412554254E-1
7.983827323E0,-2.631931603E-1,-1.048928499E-1,1.545810699E-2,2.837465465E-1
7.993827323E0,-3.476291299E-1,-1.856408715E-1,2.878923416E-1,4.880476877E-1
8.003827323E0,-1.189045608E-1,-6.502944231E-2,6.820554733E-1,6.953896689E-1
8.013827323E0,-3.109163046E-2,1.732587814E-2,8.319053650E-1,8.326664469E-1
8.023827323E0,6.209295988E-2,-3.824400902E-2,8.934001923E-1,8.963715990E-1
8.033827256E0,9.817063808E-2,-1.177533269E-1,8.643789291E-1,8.778691550E-1
8.043827256E0,-3.208376467E-2,-2.559079826E-1,6.304864883E-1,6.811985581E-1
8.053827256E0,-1.191477627E-1,-2.295509577E-1,3.639421463E-1,4.464792463E-1
8.063827256E0,-1.346583068E-1,-1.583623290E-1,8.162975311E-2,2.233268982E-1
8.073827256E0,-4.444868863E-2,-1.381131411E-1,-9.427070618E-2,1.730256966E-1
8.083827256E0,5.011063814E-2,-2.363198400E-1,-6.043128967E-1,6.508088967E-1
8.093827322E0,-2.007962763E-2,-4.034597278E-1,-7.519664764E-1,8.536020882E-1
8.103827322E0,-3.011820316E-1,-5.788395405E-1,-1.028599739E0,1.218106421E0
8.113827322E0,-2.453518659E-1,-6.372010708E-1,-1.539859772E0,1.684455657E0
8.123827322E0,1.168862432E-1,-6.568781137E-1,-1.471948624E0,1.616101482E0
8.133827322E0,4.744396210E-1,-5.716617703E-1,-1.050848961E0,1.286924113E0
8.143826822E0,1.395377755E0,-1.963403821E-1,-8.588848114E-1,1.650245965E0
8.153826822E0,1.854997396E0,-1.440477371E-2,-7.663793564E-1,2.007127339E0
8.163826822E0,2.477188110E0,3.216601610E-1,-5.123863220E-1,2.549993321E0
8.173826822E0,2.446184397E0,3.175195456E-1,-5.125246048E-1,2.519388465E0
8.183826822E0,2.799968958E0,4.532804489E-1,-3.424015045E-1,2.857013847E0
8.193826822E0,2.823451281E0,2.737226486E-1,-3.341560364E-1,2.856302064E0
8.203826822E0,2.963943720E0,-1.870081425E-1,-6.406764984E-1,3.038157467E0
8.213826822E0,2.962547302E0,-4.069321156E-1,-6.997966766E-1,3.071155426E0
8.223826822E0,2.973200321E0,-6.935713291E-1,-5.888433456E-1,3.109292174E0
8.233827322E0,2.969736338E0,-6.435498595E-1,-3.086433411E-1,3.054300419E0
8.243827322E0,2.736920834E0,-3.535270691E-1,2.337026596E-1,2.769536779E0
8.253827322E0,2.448826075E0,-2.364971638E-1,2.432451248E-1,2.472215250E0
8.263827322E0,1.616687536E0,-1.548240185E-1,3.593702316E-1,1.663368880E0
8.273827322E0,1.289755821E0,-8.279609680E-2,4.148674011E-1,1.357365180E0
8.283826822E0,8.637595773E-1,-1.831961870E-1,3.283300400E-1,9.420414351E-1
8.293826822E0,7.346447706E-1,-4.614937901E-1,5.807971954E-1,1.044032969E0
8.303826822E0,5.390891433E-1,-8.192806244E-1,1.037384987E0,1.427587285E0
8.313826822E0,3.455525637E-1,-7.570829988E-1,1.209313393E0,1.467998679E0
8.323826822E0,1.718777567E-1,-5.964678526E-1,1.114266396E0,1.275502043E0
8.333826822E0,1.651308537E-1,-5.270566940E-1,1.112998009E0,1.242506147E0
8.343827322E0,5.605436862E-2,-4.948421419E-1,1.168606758E0,1.270296262E0
8.353827322E0,-2.711340785E-3,-5.760372281E-1,1.091999054E0,1.234620660E0
8.363827322E0,-1.978072226E-1,-6.902253628E-1,8.920688629E-1,1.145131261E0
8.373827322E0,-2.460054308E-1,-6.105243564E-1,8.124017715E-1,1.045588495E0
8.383827322E0,-3.848095238E-1,-3.799569011E-1,5.559902191E-1,7.756099149E-1
8.393827255E0,-5.339480042E-1,-1.125286222E-1,3.432826996E-1,6.446752468E-1
8.403827255E0,-8.722386956E-1,2.046196461E-1,2.487030029E-1,9.297971421E-1
8.413827255E0,-9.835544825E-1,3.326256871E-1,2.006711960E-1,1.057491464E0
8.423827255E0,-1.130973935E0,3.753078580E-1,-2.415657043E-3,1.191622367E0
8.433827255E0,-1.074101210E0,3.267863989E-1,-1.500701904E-1,1.132697586E0
8.443827255E0,-9.707885981E-1,2.559562325E-1,-5.177803040E-1,1.129619643E0
8.453827255E0,-8.437924385E-1,1.985912323E-1,-6.172590256E-1,1.064158288E0
8.463827255E0,-5.706278682E-1,1.302230358E-2,-7.048492432E-1,9.069719951E-1
8.473827255E0,-3.573763371E-1,-5.250215530E-2,-6.010818481E-1,7.012657918E-1
8.483827755E0,-4.881472886E-2,-8.473479748E-2,-4.425477982E-1,4.532233636E-1
8.493827755E0,4.251354933E-2,-1.115370393E-1,-3.657140732E-1,3.847007881E-1
8.503827755E0,1.764625311E-2,-1.562777758E-1,-1.527023315E-1,2.192079732E-1
8.513827755E0,-2.171391249E-2,-2.372910976E-1,-3.106021881E-2,2.402983483E-1
8.523827755E0,-9.496057034E-2,-2.826395035E-1,2.840976715E-1,4.118423070E-1
8.533827255E0,-1.143931746E-1,-2.537155747E-1,4.431295395E-1,5.232792563E-1
8.543827255E0,-1.126831770E-1,-2.083942294E-1,7.146911621E-1,7.529336693E-1
8.553827255E0,-9.971833229E-2,-1.742294431E-1,7.997694016E-1,8.245791292E-1
8.563827255E0,-8.867761493E-2,-1.721029282E-1,8.588848114E-1,8.804352654E-1
8.573827255E0,-1.825278997E-2,-1.839707196E-1,8.776645660E-1,8.969244564E-1
8.583827255E0,1.186262667E-1,-2.633126974E-1,6.957054138E-1,7.532674097E-1
8.593827755E0,1.848051548E-1,-2.303686142E-1,6.123237610E-1,6.798257364E-1
8.603827755E0,3.259554803E-1,-1.700615287E-1,4.095535278E-1,5.503653249E-1
8.613827755E0,4.109352827E-1,-1.412818134E-1,2.860937119E-1,5.202672095E-1
8.623827755E0,5.406492352E-1,-4.518765211E-2,1.581325531E-1,5.651100989E-1
8.633827755E0,5.547609329E-1,-2.880865335E-2,7.349109650E-2,5.603486169E-1
8.643827255E0,5.133281946E-1,-1.051798463E-1,-1.617403030E-1,5.483872364E-1
8.653827255E0,4.520275891E-1,-1.131648421E-1,-2.842187881E-1,5.458163998E-1
8.663827255E0,1.439058483E-1,1.236367226E-2,-3.299388885E-1,3.601686046E-1
8.673827255E0,1.724243164E-3,9.547692537E-2,-4.141683578E-1,4.250344044E-1
8.683827255E0,-1.365879774E-1,2.017531395E-1,-4.532594681E-1,5.145918288E-1
8.693827255E0,-1.979928315E-1,2.015023828E-1,-4.115667343E-1,4.991908937E-1
8.703827255E0,-2.757579386E-1,3.198487759E-1,-3.800392151E-1,5.681333339E-1
8.713827255E0,-3.303877711E-1,3.694483042E-1,-3.776226044E-1,6.230946638E-1
8.723827255E0,-4.139884114E-1,3.177869320E-1,-4.186086655E-1,6.690352410E-1
8.733827755E0,-4.121668935E-1,2.279229760E-1,-4.095640182E-1,6.241579256E-1
8.743827755E0,-3.430662155E-1,5.175036192E-2,-2.571439743E-1,4.318513074E-1
8.753827755E0,-2.609469295E-1,-1.265370846E-2,-1.002330780E-1,2.798215257E-1
8.763827755E0,-2.288365960E-1,-6.849873066E-2,1.569395065E-1,2.858116031E-1
8.773827755E0,-2.475928664E-1,-3.147602081E-2,2.368698120E-1,3.440934106E-1
8.783827255E0,-3.112396002E-1,1.695454121E-3,3.960304260E-1,5.036993762E-1
8.793827255E0,-3.857924938E-1,1.349484921E-2,4.357509613E-1,5.821484858E-1
8.803827255E0,-4.577433467E-1,8.900284767E-3,5.284519196E-1,6.991921179E-1
8.813827255E0,-4.905148745E-1,-1.131457090E-2,4.802875519E-1,6.865923056E-1
8.823827255E0,-4.852747321E-1,3.189414740E-2,2.220172882E-1,5.346031037E-1
8.833827255E0,-4.646701217E-1,8.299529552E-2,1.007862091E-1,4.826638592E-1
8.843827755E0,-3.504579663E-1,4.690515995E-2,5.878448486E-2,3.584361810E-1
8.853827755E0,-2.819452286E-1,3.986030817E-2,8.618736267E-2,2.975066681E-1
8.863827755E0,-2.139355540E-1,1.053590178E-1,8.000373840E-2,2.515343755E-1
8.873827755E0,-2.290059924E-1,1.245256066E-1,1.153278351E-2,2.609279141E-1
8.883827755E0,-2.335128784E-1,1.218326092E-1,-6.417179108E-2,2.710894093E-1
8.893827255E0,-2.042360902E-1,7.616984844E-2,-1.256313324E-1,2.515898607E-1
8.903827255E0,-8.749186993E-3,-8.240282536E-3,-2.041950226E-1,2.045484240E-1
8.913827255E0,1.203627586E-1,-5.352896452E-2,-1.729211807E-1,2.173804923E-1
8.923827255E0,2.987115085E-1,-1.385205984E-2,-7.728767395E-2,3.088589151E-1
8.933827255E0,3.584160209E-1,1.734578609E-2,2.297782898E-2,3.595704395E-1
8.943827255E0,2.647302747E-1,6.976932287E-2,1.016969681E-1,2.920481982E-1
8.953827255E0,1.546760798E-1,8.308088779E-2,1.064023972E-1,2.053012267E-1
8.963827255E0,-1.436775923E-2,8.149302006E-2,9.935379028E-2,1.293008912E-1
8.973827255E0,-1.242667437E-2,9.345579147E-2,9.481143951E-2,1.337072035E-1
8.983827755E0,8.076983690E-2,5.200082064E-2,2.097520828E-1,2.307028135E-1
8.993827755E0,1.557958424E-1,2.650165558E-2,2.619609833E-1,3.059382928E-1
9.003827755E0,2.684824169E-1,-2.038031816E-2,3.377676010E-1,4.319549951E-1
9.013827755E0,3.403327763E-1,-3.439790010E-2,3.488254547E-1,4.885578901E-1
9.023827755E0,3.825421333E-1,-7.348030806E-2,3.335714340E-1,5.128428034E-1
9.033827255E0,4.296081662E-1,-1.342203915E-1,3.280620575E-1,5.569587090E-1
9.043827255E0,5.334486961E-1,-2.266134620E-1,3.059377670E-1,6.553770593E-1
9.053827255E0,5.685158968E-1,-2.119822502E-1,2.409553528E-1,6.528447605E-1
9.063827255E0,5.871022940E-1,-1.069917083E-1,2.026557922E-1,6.302425718E-1
9.073827255E0,5.591142774E-1,-6.932103634E-2,9.770011902E-2,5.718037202E-1
9.083827255E0,4.964221418E-1,-4.353094101E-2,-1.599912643E-1,5.233804451E-1
9.093827755E0,3.986764848E-1,-8.675098419E-3,-2.185831070E-1,4.547491303E-1
9.103827755E0,2.342931628E-1,4.471886158E-2,-4.065361023E-1,4.713434684E-1
9.113827755E0,1.836424172E-1,3.738546371E-2,-4.607238770E-1,4.973818464E-1
9.123827755E0,1.238762438E-1,-5.256342888E-2,-3.838787079E-1,4.067813912E-1
9.133827755E0,1.530481577E-1,-9.811669588E-2,-3.223600388E-1,3.700900150E-1
9.143827255E0,2.735370696E-1,-1.174556017E-1,-2.304229736E-1,3.764479958E-1
9.153827255E0,3.403145671E-1,-1.343743801E-1,-1.126213074E-1,3.828237682E-1
9.163827255E0,4.407221377E-1,-1.077108383E-1,1.717758179E-2,4.540183880E-1
9.173827255E0,4.448210001E-1,-1.270788312E-1,8.743858337E-2,4.708080897E-1
9.183827255E0,4.716251194E-1,-1.717043221E-1,2.084207535E-1,5.434628212E-1
9.193827255E0,4.899087846E-1,-2.609915733E-1,2.795562744E-1,6.215134183E-1
9.203827255E0,6.296343207E-1,-4.287368059E-1,3.414659500E-1,8.347775881E-1
9.213827255E0,6.734468341E-1,-4.042424262E-1,3.724851608E-1,8.693030383E-1
9.223827255E0,8.861596584E-1,-3.018688560E-1,4.801349640E-1,1.052108992E0
9.233827321E0,8.759409189E-1,-2.981368601E-1,5.900630951E-1,1.097420857E0
9.243827321E0,6.746724844E-1,-3.689819872E-1,6.711759567E-1,1.020689881E0
9.253827321E0,6.058187485E-1,-3.518448472E-1,7.308225632E-1,1.012379756E0
9.263827321E0,5.766729712E-1,-2.876442373E-1,9.007339478E-1,1.107525425E0
9.273827321E0,5.898312330E-1,-3.015132546E-1,9.153089523E-1,1.129867959E0
9.283826821E0,6.397609115E-1,-3.105041981E-1,8.632774353E-1,1.118460912E0
9.293826821E0,6.512728930E-1,-3.274908662E-1,8.427991867E-1,1.114323614E0
9.303826821E0,6.639175415E-1,-2.135846317E-1,7.197465897E-1,1.002217566E0
9.313826821E0,6.701026559E-1,-1.809459329E-1,6.688489914E-1,9.639180325E-1
9.323826821E0,6.856501698E-1,-2.435553372E-1,6.182260513E-1,9.547977839E-1
9.333826821E0,6.822850704E-1,-2.906356454E-1,6.062059402E-1,9.578453099E-1
9.343827321E0,7.514486313E-1,-1.855915487E-1,5.824155807E-1,9.686728948E-1
9.353827321E0,6.703165174E-1,-1.297086775E-1,7.093572617E-1,9.845487795E-1
9.363827321E0,5.389325023E-1,-7.115989923E-2,8.454360962E-1,1.005123956E0
9.373827321E0,4.474753141E-1,-7.714301348E-2,8.016109467E-1,9.212845983E-1
9.383827321E0,3.549043834E-1,1.195979118E-2,6.167554855E-1,7.116793428E-1
9.393826821E0,3.220945001E-1,6.781679392E-2,4.515275955E-1,5.587675313E-1
9.403826821E0,2.007423937E-1,2.162995338E-1,8.344364166E-2,3.066689393E-1
9.413826821E0,2.060051262E-1,2.211947441E-1,-7.366847992E-2,3.111145638E-1
9.423826821E0,2.549303174E-1,2.250164151E-1,-3.527832031E-1,4.899773895E-1
9.433826821E0,3.415912390E-1,1.761672497E-1,-4.546012878E-1,5.952997609E-1
9.443826821E0,6.259697080E-1,1.211243868E-1,-4.964075089E-1,8.080405975E-1
9.453826821E0,7.600708008E-1,9.155070782E-2,-4.636735916E-1,8.950320407E-1
9.463826821E0,1.004236579E0,5.878460407E-2,-6.098737717E-1,1.176389712E0
9.473826821E0,1.077122092E0,2.513670921E-2,-6.476745605E-1,1.257102300E0
9.483827321E0,1.111099601E0,-3.288650513E-2,-7.355661392E-1,1.332922125E0
9.493827321E0,1.111241579E0,-5.638861656E-2,-6.297864914E-1,1.278541571E0
9.503827321E0,9.503237009E-1,-1.293500662E-1,-2.519302368E-1,9.916226199E-1
9.513827321E0,7.714137435E-1,-1.305146217E-1,-1.885423660E-1,8.047741633E-1
9.523827321E0,3.944365978E-1,-7.623195648E-2,-1.667003632E-1,4.349489073E-1
9.533827254E0,2.697382271E-1,-7.044744492E-2,-1.745166779E-1,3.289036706E-1
9.543827254E0,7.405555248E-2,-3.368127346E-2,-1.574974060E-1,1.772684008E-1
9.553827254E0,3.280925751E-2,1.356601715E-4,-2.516555786E-2,4.134937828E-2
9.563827254E0,-7.110834122E-5,-3.003132343E-2,2.610025406E-1,2.627245928E-1
9.573827254E0,-4.031795263E-2,-8.893454075E-2,4.004659653E-1,4.121988345E-1
9.583827254E0,-3.447717428E-2,-1.262989044E-1,4.354658127E-1,4.547203127E-1
9.593827787E0,-2.225577831E-3,-1.163578033E-1,4.819469452E-1,4.957993037E-1
9.603827787E0,4.433697462E-2,-6.867623329E-2,4.660654068E-1,4.731798345E-1
9.613827787E0,6.271106005E-2,-7.506275177E-2,2.829294205E-1,2.993595676E-1
9.623827787E0,1.586117148E-1,-9.934902191E-4,-1.415367126E-1,2.125824643E-1
9.633827787E0,2.573635578E-1,8.739376068E-2,-3.771963120E-1,4.649201308E-1
9.643827287E0,3.319620788E-1,1.903306246E-1,-5.025224686E-1,6.316275800E-1
9.653827287E0,2.905115485E-1,1.639938354E-1,-5.881786346E-1,6.761989679E-1
9.663827287E0,1.771097779E-1,6.311571598E-2,-6.913576126E-1,7.164682935E-1
9.673827287E0,1.343629956E-1,2.212703228E-2,-6.609516144E-1,6.748333548E-1
9.683827287E0,6.718152761E-2,1.875293255E-2,-5.247993469E-1,5.294141901E-1
9.693827287E0,2.665370703E-2,2.298986912E-2,-4.852838516E-1,4.865587023E-1
9.703827287E0,5.996602774E-2,1.814532280E-2,-3.187303543E-1,3.248295183E-1
9.713827287E0,5.072748661E-2,-3.941822052E-2,-2.207460403E-1,2.299040851E-1
9.723827287E0,8.753871918E-2,-2.075899839E-1,-1.642408371E-1,2.788040196E-1
9.733827787E0,1.259928346E-1,-2.672352791E-1,-3.067846298E-1,4.259174777E-1
9.743827787E0,1.844161749E-1,-1.026953459E-1,-4.449615479E-1,4.924900392E-1
9.753827787E0,1.948622465E-1,4.506886005E-2,-4.576797485E-1,4.994729717E-1
9.763827787E0,-1.103222370E-3,2.440246344E-1,-4.731130600E-1,5.323393718E-1
9.773827787E0,-1.755424142E-1,2.511096001E-1,-4.595642090E-1,5.523318139E-1
9.783827287E0,-5.467849970E-1,1.406377554E-1,-2.971572876E-1,6.380088281E-1
9.793827287E0,-6.660742164E-1,-1.323902607E-2,-2.202739716E-1,7.016771024E-1
9.803827287E0,-6.751627326E-1,-2.643465996E-1,-4.364490509E-2,7.263805600E-1
9.813827287E0,-5.517470241E-1,-3.545736670E-1,7.574367523E-2,6.602153954E-1
9.823827287E0,-2.006763220E-1,-3.569477797E-1,1.101455688E-1,4.240456932E-1
9.833827287E0,-5.154192448E-3,-2.870723009E-1,1.223402023E-1,3.120964543E-1
9.843827787E0,1.711466312E-1,-2.438497543E-2,9.770202637E-2,1.985736195E-1
9.853827787E0,1.135401130E-1,7.369816303E-2,1.239299774E-1,1.835249732E-1
9.863827787E0,-2.262384892E-1,-6.535434723E-2,1.283321381E-1,2.681868422E-1
9.873827787E0,-4.286660552E-1,-2.008405924E-1,1.246824265E-1,4.895275660E-1
9.883827787E0,-6.638863683E-1,-3.647710085E-1,2.156724930E-1,7.876024523E-1
9.893827253E0,-7.034382224E-1,-3.421044350E-1,2.766160965E-1,8.296850258E-1
9.903827253E0,-6.306670904E-1,-1.466336250E-1,3.422861099E-1,7.323948252E-1
9.913827253E0,-5.429428816E-1,-3.682971001E-3,3.798017502E-1,6.626084110E-1
9.923827253E0,-4.318528771E-1,1.208615303E-1,3.535881042E-1,5.710770215E-1
9.933827253E0,-4.056135416E-1,1.759527922E-1,2.471714020E-1,5.065327553E-1
9.943827253E0,-3.387162685E-1,1.476533413E-1,2.709865570E-2,3.704923169E-1
9.953827253E0,-3.121499419E-1,1.242686510E-1,-1.370496750E-1,3.628538236E-1
9.963827253E0,-1.764367223E-1,2.224270105E-1,-3.200578690E-1,4.278325975E-1
9.973827253E0,-1.406871080E-1,2.511272430E-1,-3.169755936E-1,4.281720232E-1
9.983827753E0,-1.582683325E-1,2.180285454E-1,-3.416929245E-1,4.351314357E-1
9.993827753E0,-1.802122593E-1,1.683264971E-1,-3.297624588E-1,4.117688032E-1
1.000382775E1,-5.691075325E-1,1.173640490E-1,-2.497959137E-2,5.816198789E-1
1.001382775E1,-5.611146688E-1,9.009063244E-2,-1.023101807E-1,5.774368941E-1
1.002382775E1,-5.717017651E-1,1.183437109E-1,-1.069707870E-1,5.935409770E-1
1.003382725E1,-6.511578560E-1,1.937599182E-1,1.298561096E-1,6.916733828E-1
1.004382725E1,-5.806804895E-1,5.281758308E-2,4.503307343E-1,7.367342114E-1
1.005382725E1,-4.795657396E-1,2.818822861E-2,5.385141373E-1,7.216476640E-1
1.006382725E1,-3.312000632E-1,1.091516018E-2,7.299652100E-1,8.016619177E-1
1.007382725E1,-3.003447056E-1,5.245029926E-2,8.234825134E-1,8.781124222E-1
1.008382725E1,-3.303276896E-1,1.198530197E-2,9.029808044E-1,9.615790988E-1
1.009382779E1,-3.987185359E-1,2.253890038E-3,8.205289841E-1,9.122770218E-1
1.010382779E1,-5.482916832E-1,2.751564980E-2,6.245126724E-1,8.315028315E-1
1.011382779E1,-5.457119942E-1,7.408976555E-3,5.088157654E-1,7.461567909E-1
1.012382779E1,-4.735817313E-1,5.837893486E-2,2.457036972E-1,5.367104090E-1
1.013382779E1,-3.883219361E-1,1.285709143E-1,8.397388458E-2,4.175835478E-1
1.014382729E1,-2.329844236E-1,2.273815870E-1,-1.035013199E-1,3.416089153E-1
1.015382729E1,-1.320199966E-1,2.154495716E-1,-1.547842026E-1,2.963206823E-1
1.016382729E1,-4.262483120E-2,5.902409554E-3,-3.262672424E-1,3.290927349E-1
1.017382729E1,2.584153414E-2,-1.419504285E-1,-4.382219315E-1,4.613633820E-1
1.018382729E1,5.876278877E-2,-2.372701764E-1,-4.739599228E-1,5.332806113E-1
1.019382729E1,4.614126682E-2,-2.338497043E-1,-5.221872330E-1,5.740158595E-1
1.020382729E1,1.068053842E-1,-3.114229441E-1,-6.235256195E-1,7.051069694E-1
1.021382729E1,1.201553345E-1,-3.240215182E-1,-6.560134888E-1,7.414721479E-1
1.022382729E1,1.616783142E-1,-3.106231093E-1,-5.002250671E-1,6.106158458E-1
1.023382782E1,1.335944533E-1,-2.285212278E-1,-3.573646545E-1,4.447234262E-1
1.024382782E1,-7.304424047E-2,-2.304984331E-1,-2.127037048E-1,3.220370395E-1
1.025382782E1,-2.363104224E-1,-2.136642337E-1,-1.374330521E-1,3.469623384E-1
1.026382782E1,-3.698836565E-1,-2.109048963E-1,-2.319145203E-2,4.264183838E-1
1.027382782E1,-3.446162939E-1,-9.346604347E-2,1.058425903E-1,3.724230729E-1
1.028382732E1,-2.999324203E-1,4.782050848E-2,3.236923218E-1,4.438727035E-1
1.029382732E1,-3.076807261E-1,7.387644053E-2,4.482040405E-1,5.486456230E-1
1.030382732E1,-4.677999020E-1,-8.343130350E-2,5.846157074E-1,7.533744461E-1
1.031382732E1,-5.399332047E-1,-2.065383196E-1,5.559930801E-1,8.020687303E-1
1.032382732E1,-6.041668653E-1,-3.377690315E-1,5.135717392E-1,8.618941067E-1
1.033382732E1,-5.636185408E-1,-3.873775601E-1,4.960060120E-1,8.448367875E-1
1.034382785E1,-3.577674031E-1,-2.935220301E-1,2.784986496E-1,5.401057255E-1
1.035382785E1,-2.060228586E-1,-1.886197925E-1,1.006422043E-1,2.969035158E-1
1.036382785E1,-2.549505234E-2,-3.839141130E-2,-1.146774292E-1,1.235913060E-1
1.037382785E1,7.813978195E-2,6.989294291E-2,-3.276977539E-1,3.440591038E-1
1.038382785E1,7.273799181E-2,2.117136717E-1,-4.036407471E-1,4.615618560E-1
1.039382732E1,-1.765811443E-2,2.295607328E-1,-3.808603287E-1,4.450444124E-1
1.040382732E1,-3.177901506E-1,1.180289388E-1,-4.695348740E-1,5.791238279E-1
1.041382732E1,-5.066027641E-1,8.010953665E-2,-5.250549316E-1,7.339935829E-1
1.042382732E1,-7.784425616E-1,7.751798630E-2,-5.492477417E-1,9.558529917E-1
1.043382732E1,-8.395942450E-1,4.506319761E-2,-5.681152344E-1,1.014743370E0
1.044382732E1,-7.045458555E-1,-2.938944101E-2,-4.402246475E-1,8.312919716E-1
1.045382732E1,-5.117060542E-1,-7.622659206E-2,-2.712764740E-1,5.841613686E-1
1.046382732E1,-8.331763744E-2,-1.370438933E-1,-6.151103973E-2,1.717744609E-1
1.047382732E1,1.327193975E-1,-1.647971869E-1,-1.676559448E-2,2.122584190E-1
1.048382782E1,3.821660578E-1,-1.278270483E-1,1.142396927E-1,4.188572041E-1
1.049382782E1,3.744431138E-1,-7.059913874E-2,2.111949921E-1,4.356549191E-1
1.050382782E1,1.377509236E-1,1.054269075E-2,2.260198593E-1,2.648989281E-1
1.051382782E1,-1.617556810E-1,5.501973629E-2,2.021379471E-1,2.646730462E-1
1.052382782E1,-7.129486203E-1,5.294519663E-2,2.358150482E-1,7.527998844E-1
1.053382728E1,-9.611656070E-1,-3.368657827E-2,3.512859344E-1,1.023902299E0
1.054382728E1,-1.059571147E0,-1.484346986E-1,3.023672104E-1,1.111822740E0
1.055382728E1,-1.199325085E0,-1.909000874E-1,4.533338547E-1,1.296277395E0
1.056382728E1,-9.942575693E-1,-2.641326487E-1,5.598535538E-1,1.171217389E0
1.057382728E1,-8.143523335E-1,-3.220174313E-1,5.910377502E-1,1.056499206E0
1.058382728E1,-4.798187017E-1,-2.872042358E-1,4.603452682E-1,7.243134857E-1
1.059382778E1,-3.302358389E-1,-1.983087957E-1,3.442840576E-1,5.166368164E-1
1.060382778E1,-2.221831083E-1,-7.042777538E-2,2.008972168E-1,3.077094358E-1
1.061382778E1,-2.357594967E-1,-6.605917215E-2,1.775178909E-1,3.024218182E-1
1.062382778E1,-3.816434145E-1,-1.413518190E-1,1.304149628E-2,4.071880563E-1
1.063382778E1,-5.045462251E-1,-1.482264102E-1,-1.077117920E-1,5.367865423E-1
1.064382725E1,-6.544161439E-1,-1.086977422E-1,-1.159553528E-1,6.734399249E-1
1.065382725E1,-6.979600191E-1,-2.615165710E-2,-1.525421143E-1,7.149134172E-1
1.066382725E1,-6.667934060E-1,6.568861008E-2,-1.715488434E-1,6.916338955E-1
1.067382725E1,-6.100438237E-1,4.904401302E-2,-1.202945709E-1,6.237223468E-1
1.068382725E1,-3.550817966E-1,-1.271114647E-1,3.199863434E-2,3.785027336E-1
1.069382725E1,-1.674617529E-1,-1.816965044E-1,1.007175446E-1,2.668353091E-1
1.070382725E1,1.079466343E-1,-1.637910604E-1,1.431865692E-1,2.428628851E-1
1.071382725E1,1.972680688E-1,-1.340676248E-1,8.960723877E-2,2.547906518E-1
1.072382725E1,2.383028865E-1,-5.039954185E-2,1.407403946E-1,2.813116389E-1
1.073382775E1,1.862112880E-1,-3.077328205E-2,8.329296112E-2,2.062991906E-1
1.074382775E1,-4.529023170E-2,-4.876321554E-2,-8.950424194E-2,1.115350420E-1
1.075382775E1,-2.058501840E-1,-1.126510203E-1,-1.138830185E-1,2.608330740E-1
1.076382775E1,-2.820925713E-1,-2.539796233E-1,-1.070175171E-1,3.943787732E-1
1.077382775E1,-2.456825376E-1,-2.698965669E-1,-7.570648193E-2,3.727405766E-1
1.078382725E1,-3.741449118E-2,-2.471899390E-1,-3.175544739E-2,2.520141237E-1
1.079382725E1,2.337363362E-2,-1.794206798E-1,3.321647644E-3,1.809672358E-1
1.080382725E1,2.658632398E-2,-1.271528304E-1,1.084842682E-1,1.692439403E-1
1.081382725E1,-2.998700738E-2,-1.649094224E-1,7.294654846E-2,1.827991716E-1
1.082382725E1,-7.064431906E-2,-1.618047357E-1,-8.662986755E-2,1.966624678E-1
1.083382725E1,-8.636438847E-2,-2.013841867E-1,-3.317451477E-2,2.216189222E-1
1.084382775E1,2.597254515E-2,-2.092928588E-1,5.548095703E-2,2.180738647E-1
1.085382775E1,5.064710975E-2,-1.689709425E-1,1.311702728E-1,2.198225412E-1
1.086382775E1,-3.625309467E-2,-1.190907061E-1,2.443656921E-1,2.742471051E-1
1.087382775E1,-1.810970008E-1,-7.089793682E-2,3.093309402E-1,3.653878374E-1
1.088382775E1,-4.475834668E-1,-7.211145759E-2,2.332296371E-1,5.098304480E-1
1.089382725E1,-5.254991055E-1,-9.401720762E-2,2.294082642E-1,5.810479299E-1
1.090382725E1,-4.529192448E-1,-1.086635590E-1,2.426929474E-1,5.252080331E-1
1.091382725E1,-3.407991827E-1,-1.223535538E-1,2.970256805E-1,4.683361292E-1
1.092382725E1,-1.587889493E-1,-1.090410650E-1,3.493642807E-1,3.989477220E-1
1.093382725E1,-6.087189913E-2,-1.994545013E-1,4.140853882E-1,4.636315292E-1
1.094382725E1,1.307384670E-1,-2.538487315E-1,4.696235657E-1,5.496162467E-1
1.095382725E1,1.427398026E-1,-2.558327913E-1,4.298048019E-1,5.201511666E-1
1.096382725E1,7.104140520E-2,-1.082372963E-1,1.964445114E-1,2.352714170E-1
1.097379392E1,-9.073576331E-2,-4.145208001E-2,1.788511276E-1,2.047900865E-1
1.098376058E1,-3.557476401E-1,-5.535185337E-4,2.003192902E-2,3.563116165E-1
1.099372725E1,-4.849640727E-1,-1.172780991E-2,-7.197570801E-2,4.904163495E-1
1.100369391E1,-5.788133144E-1,-4.711467028E-2,-6.864833832E-2,5.847711001E-1
1.101366058E1,-5.238184929E-1,-4.207128286E-2,-4.189491272E-2,5.271726378E-1
1.102362725E1,-4.427146614E-1,-3.926652670E-2,-2.277565002E-2,4.450357983E-1
1.103359341E1,-4.523880482E-1,-4.087388515E-2,-1.095008850E-2,4.543627681E-1
1.104356008E1,-4.686467648E-1,-6.466820836E-2,1.778984070E-2,4.734218475E-1
1.105352674E1,-5.325021744E-1,-2.179712057E-2,6.110763550E-2,5.364399531E-1
1.106349388E1,-5.778851509E-1,-1.522248983E-2,4.712200165E-2,5.800029783E-1
1.107346054E1,-5.384401083E-1,9.171247482E-3,9.286880493E-3,5.385982809E-1
1.108342721E1,-4.890789688E-1,8.725541830E-2,-9.539604187E-3,4.968930969E-1
1.109339388E1,-4.595178366E-1,7.801288366E-2,6.220149994E-2,4.702251362E-1
1.110336054E1,-4.475798905E-1,4.330253601E-2,9.523200989E-2,4.596433440E-1
1.111332721E1,-4.807088673E-1,2.134728432E-2,5.392169952E-2,4.841944561E-1
1.112329387E1,-5.799947977E-1,-1.441949606E-2,-1.360893250E-2,5.803336026E-1
1.113326054E1,-6.597058773E-1,-2.211213112E-3,-3.543472290E-2,6.606605434E-1
1.114322670E1,-8.664113879E-1,4.930275679E-2,-2.057075500E-3,8.678154680E-1
1.115319337E1,-9.429644346E-1,7.134628296E-2,-1.173400879E-2,9.457324696E-1
1.116316004E1,-9.171010256E-1,5.944651365E-2,8.151817322E-2,9.226339424E-1
1.117312670E1,-8.023048639E-1,-1.717412472E-2,1.937465668E-1,8.255457452E-1
1.118309337E1,-5.351938009E-1,-5.017378926E-2,2.699298859E-1,6.015080689E-1
1.119306004E1,-4.112682343E-1,-5.174857378E-2,3.030519485E-1,5.134782945E-1
1.120302720E1,-2.798874378E-1,-3.643509746E-2,2.620887756E-1,3.851688208E-1
1.121299387E1,-2.404491901E-1,-3.567937016E-2,2.117471695E-1,3.223750832E-1
1.122296053E1,-2.646452188E-1,-8.951246738E-3,2.023019791E-1,3.332316123E-1
1.123292720E1,-3.219262064E-1,-7.018208504E-3,1.236219406E-1,3.449175580E-1
1.124289387E1,-3.815646470E-1,-3.725433350E-2,-2.419471741E-2,3.841417050E-1
1.125286053E1,-3.951751292E-1,-6.037575006E-2,-1.046991348E-1,4.132439023E-1
1.126282720E1,-3.728191853E-1,-2.692091465E-2,-2.401008606E-1,4.442604009E-1
1.127282720E1,-3.650798798E-1,-4.036414623E-2,-2.389745712E-1,4.382024973E-1
1.128282720E1,-3.362125754E-1,-3.719460964E-2,-2.762899399E-1,4.367590477E-1
1.129282720E1,-2.750028372E-1,-6.566554308E-2,-2.610797882E-1,3.848391610E-1
1.130282720E1,-1.871082485E-1,-1.016540527E-1,-1.167879105E-1,2.428630460E-1
1.131282766E1,-8.387726545E-2,-1.236673594E-1,-6.366252899E-2,1.624251490E-1
1.132282766E1,2.410072088E-2,-9.637063742E-2,-1.780891418E-2,1.009222568E-1
1.133282766E1,4.559972882E-2,-6.962704659E-2,-3.211021423E-3,8.329208572E-2
1.134282766E1,-6.967359781E-2,-3.293102980E-2,-1.285362244E-2,7.812860274E-2
1.135282766E1,-1.803034246E-1,-6.711423397E-2,3.453350067E-2,1.954640836E-1
1.136282720E1,-3.186185658E-1,-1.904735267E-1,6.942367554E-2,3.776474567E-1
1.137282720E1,-3.497030139E-1,-1.805804074E-1,1.541500092E-1,4.226862983E-1
1.138282720E1,-3.131558001E-1,-1.911211908E-1,4.037485123E-1,5.455334324E-1
1.139282720E1,-3.285575211E-1,-1.768165827E-1,5.120420456E-1,6.335623135E-1
1.140282720E1,-3.707450032E-1,-9.009787440E-2,5.252027512E-1,6.491590053E-1
1.141282720E1,-4.094609916E-1,-4.002135992E-2,5.031576157E-1,6.499443046E-1
1.142282720E1,-5.103917122E-1,1.339662075E-2,3.764581680E-1,6.343499993E-1
1.143282720E1,-5.668226480E-1,2.273976803E-2,3.269338608E-1,6.547448058E-1
1.144282720E1,-6.565194130E-1,4.698258638E-2,2.322845459E-1,6.979836770E-1
1.145282773E1,-7.030695677E-1,9.600669146E-2,1.952266693E-1,7.359602939E-1
1.146282773E1,-8.093805313E-1,7.826167345E-2,1.485185623E-1,8.266072207E-1
1.147282773E1,-8.195214868E-1,7.050108910E-2,9.205055237E-2,8.276830160E-1
1.148282773E1,-8.795397282E-1,2.567124367E-2,9.269523621E-2,8.847833367E-1
1.149282773E1,-8.957176208E-1,-3.891468048E-3,8.094882965E-2,8.993764022E-1
1.150282723E1,-9.309587479E-1,-1.187427640E-1,4.219055176E-3,9.385104340E-1
1.151282723E1,-9.791203737E-1,-1.851561964E-1,-7.025718689E-2,9.989472437E-1
1.152282723E1,-9.872113466E-1,-2.291138768E-1,-1.615409851E-1,1.026243101E0
1.153282723E1,-9.716851711E-1,-2.504202425E-1,-2.265377045E-1,1.028689312E0
1.154282723E1,-7.700504661E-1,-2.973922193E-1,-2.604379654E-1,8.655910040E-1
1.155282723E1,-6.111098528E-1,-2.758394480E-1,-1.962976456E-1,6.986239467E-1
1.156282770E1,-2.774859965E-1,-3.196111023E-1,-9.870815277E-2,4.346182629E-1
1.157282770E1,-1.837122440E-1,-3.220106959E-1,-6.564712524E-2,3.764978379E-1
1.158282770E1,-1.058155298E-2,-2.431230545E-1,-5.629920959E-2,2.497806836E-1
1.159282770E1,5.294135213E-2,-2.122140825E-1,-6.034851074E-3,2.188013323E-1
1.160282770E1,4.325328767E-2,-2.512072921E-1,7.314586639E-2,2.651910034E-1
1.161282723E1,1.322355866E-2,-2.248233855E-1,3.528404236E-2,2.279591648E-1
1.162282723E1,-1.737952530E-1,-1.983713806E-1,-1.099815369E-1,2.857480237E-1
1.163279389E1,-3.668528199E-1,-1.746803522E-1,-1.519660950E-1,4.338063058E-1
1.164276056E1,-6.217445135E-1,-1.912552416E-1,-2.991037369E-1,7.159663770E-1
1.165272723E1,-7.145237923E-1,-2.333872020E-1,-4.198455811E-1,8.609785989E-1
1.166269389E1,-7.713407278E-1,-1.845587492E-1,-3.922510147E-1,8.848103236E-1
1.167266109E1,-7.600244284E-1,-1.082363725E-1,-2.883834839E-1,8.200715077E-1
1.168262776E1,-7.477653027E-1,-1.031484008E-1,-2.882432938E-1,8.080078817E-1
1.169259442E1,-8.035960197E-1,-6.069791317E-2,6.835269928E-2,8.087786416E-1
1.170256109E1,-7.810432911E-1,-7.368671894E-2,1.304121017E-1,7.952771035E-1
1.171252776E1,-6.922284961E-1,-1.111944914E-1,1.399383545E-1,7.149316392E-1
1.172249442E1,-4.524114728E-1,-1.843864620E-1,2.754020691E-2,4.893188849E-1
1.173246109E1,-3.073568046E-1,-1.738883257E-1,1.822185516E-2,3.536062657E-1
1.174242775E1,-1.105924845E-1,-1.890288293E-1,1.365756989E-2,2.194290891E-1
1.175239389E1,-1.015430689E-2,-1.904752851E-1,1.857948303E-2,1.916484838E-1
1.176236055E1,6.324294209E-2,-2.158413529E-1,1.149845123E-2,2.252096218E-1
1.177232722E1,7.059359550E-2,-2.359057367E-1,-3.386688232E-2,2.485597273E-1
1.178229389E1,2.929568291E-3,-2.965869308E-1,1.052103043E-1,3.147087510E-1
1.179226055E1,-4.929113388E-2,-3.945320249E-1,2.418956757E-1,4.654016034E-1
1.180222722E1,-8.750253916E-2,-6.534056067E-1,4.867229462E-1,8.194478675E-1
1.181219388E1,-4.307466745E-2,-7.242032886E-1,5.217285156E-1,8.936030853E-1
1.182216055E1,1.696324348E-1,-7.084702849E-1,3.138456345E-1,7.932240477E-1
1.183212722E1,3.411851525E-1,-4.968697131E-1,-1.241683960E-2,6.028606787E-1
1.184209388E1,4.954887629E-1,3.306460381E-2,-4.029235840E-1,6.394918269E-1
1.185206055E1,4.869226217E-1,2.244578004E-1,-4.021453857E-1,6.702207509E-1
1.186202675E1,1.279324889E-1,2.985166311E-1,-2.363338470E-1,4.016622811E-1
1.187199341E1,-1.169040203E-1,2.250233293E-1,-1.804733276E-1,3.112437480E-1
1.188196008E1,-7.010396719E-1,1.167579293E-1,-2.755546570E-2,7.112301592E-1
1.189192675E1,-9.278541207E-1,1.397812963E-1,5.579757690E-2,9.399816220E-1
1.190189341E1,-1.044801474E0,2.013986707E-1,2.091264725E-1,1.084391731E0
1.191186008E1,-9.887948036E-1,2.208257318E-1,2.914485931E-1,1.054239750E0
1.192182728E1,-8.170940280E-1,1.630883813E-1,3.962182999E-1,9.226209470E-1
1.193182728E1,-6.569387913E-1,9.893709421E-2,4.090013504E-1,7.801533367E-1
1.194182728E1,-2.778723836E-1,6.261593103E-2,2.956781387E-1,4.105598350E-1
1.195182728E1,-2.405732870E-2,1.528261304E-1,1.469297409E-1,2.133610320E-1
1.196182728E1,3.007695377E-1,3.057567477E-1,-4.979610443E-2,4.317744267E-1
1.197182674E1,3.932979107E-1,3.841250539E-1,-1.253089905E-1,5.638595984E-1
1.198182674E1,3.131885529E-1,4.128046632E-1,-2.691774368E-1,5.839103117E-1
1.199182674E1,1.788946986E-1,3.634821177E-1,-3.042697906E-1,5.066583351E-1
1.200182674E1,-2.916347980E-2,1.900506616E-1,-2.280416489E-1,2.982830135E-1
1.201182674E1,-1.349255443E-1,1.472373009E-1,-1.405611038E-1,2.442153746E-1
1.202182674E1,-2.903372645E-1,1.578290462E-1,3.305244446E-2,3.321117268E-1
1.203182674E1,-3.274084926E-1,1.734473109E-1,1.880292892E-1,4.154940484E-1
1.204182674E1,-2.542960644E-1,9.493768215E-2,4.993085861E-1,5.683209622E-1
1.205182724E1,-1.610790491E-1,4.561656713E-2,5.629272461E-1,5.872941475E-1
1.206182724E1,6.472951174E-2,6.670141220E-2,5.222644806E-1,5.304707115E-1
1.207182724E1,1.871210337E-1,1.105737090E-1,4.274225235E-1,4.795110426E-1
1.208182724E1,3.533281684E-1,2.432738543E-1,2.660303116E-1,5.047723144E-1
1.209182724E1,3.774224520E-1,2.480295300E-1,2.601518631E-1,5.211960734E-1
1.210182724E1,3.022027910E-1,1.340832114E-1,2.895984650E-1,4.395134871E-1
1.211182724E1,2.745968997E-1,6.658017635E-3,2.848501205E-1,3.957112302E-1
1.212182724E1,2.444283664E-1,-1.149200499E-1,3.108634949E-1,4.118105834E-1
1.213182724E1,2.362869084E-1,-1.167996824E-1,3.010110855E-1,4.001016652E-1
1.214182724E1,2.556783259E-1,-1.078197360E-1,2.125949860E-1,3.495613392E-1
1.215182724E1,3.019113839E-1,-8.975648880E-2,1.176443100E-1,3.362244707E-1
1.216182724E1,2.942176461E-1,3.311473131E-2,3.281497955E-2,2.978882871E-1
1.217182778E1,2.175816000E-1,1.704198122E-2,6.789970398E-2,2.285662958E-1
1.218182778E1,1.029444039E-1,-1.906561852E-2,-2.408981323E-3,1.047227353E-1
1.219182778E1,2.436852455E-2,-3.204381466E-2,-8.700275421E-2,9.586506291E-2
1.220182778E1,-1.946622133E-2,6.925225258E-3,-2.003278732E-1,2.013905393E-1
1.221182778E1,3.600096703E-2,6.017106771E-2,-2.302141190E-1,2.406557034E-1
1.222182724E1,5.956232548E-2,1.212693453E-1,-2.247371674E-1,2.622226518E-1
1.223182724E1,6.502753496E-2,1.045868397E-1,-1.935596466E-1,2.294173580E-1
1.224182724E1,3.230214119E-2,5.126577616E-2,-1.390190125E-1,1.516505653E-1
1.225182724E1,-1.877641678E-2,2.653312683E-2,-2.742862701E-2,4.253105014E-2
1.226182724E1,-3.544819355E-2,-9.280925989E-2,1.173610687E-1,1.537652549E-1
1.227182724E1,-3.577589989E-2,-1.410569549E-1,1.542921066E-1,2.120920406E-1
1.228182724E1,1.298362017E-2,-2.180644274E-1,2.655429840E-1,3.438513418E-1
1.229182724E1,9.568923712E-2,-2.412364781E-1,4.104375839E-1,4.856032112E-1
1.230182724E1,2.385831177E-1,-2.739363909E-1,4.407329559E-1,5.711467314E-1
1.231182724E1,2.402419448E-1,-2.399346232E-1,4.020509720E-1,5.262411990E-1
1.232182724E1,1.753270328E-1,-2.184413373E-1,2.918910980E-1,4.045449288E-1
1.233182724E1,9.640839696E-2,-2.331462204E-1,1.891031265E-1,3.152962600E-1
1.234182724E1,-3.566128016E-2,-1.772239208E-1,1.796007156E-1,2.548263371E-1
1.235182674E1,-8.849775791E-2,-1.385245025E-1,1.936645508E-1,2.540213558E-1
1.236182674E1,-2.239947915E-1,-8.135992289E-2,1.619462967E-1,2.881314052E-1
1.237182674E1,-3.090442419E-1,-6.302934885E-2,1.229763031E-1,3.385324407E-1
1.238182674E1,-3.964892030E-1,-5.010867119E-2,1.104087830E-1,4.146138762E-1
1.239182674E1,-4.328932762E-1,-2.796214819E-2,2.622318268E-2,4.345873050E-1
1.240182674E1,-4.386192560E-1,-3.206402063E-2,2.619171143E-2,4.405689037E-1
1.241182674E1,-4.558961391E-1,2.245801687E-2,1.426315308E-2,4.566717527E-1
1.242182724E1,-4.408191741E-1,3.834187984E-2,3.793525696E-2,4.441066625E-1
1.243182724E1,-4.598094523E-1,-7.406353951E-3,1.068000793E-1,4.721078727E-1
1.244182724E1,-4.651031196E-1,-1.561432481E-1,1.059894562E-1,5.019316593E-1
1.245182724E1,-4.949352741E-1,-2.127570510E-1,5.737686157E-2,5.417735621E-1
1.246182724E1,-3.887775242E-1,-1.987530589E-1,-1.489553452E-1,4.613441629E-1
1.247182671E1,-3.061198890E-1,-1.613120735E-1,-2.377958298E-1,4.198545321E-1
1.248182671E1,-8.768376708E-2,-9.210568666E-2,-4.392251968E-1,4.572643372E-1
1.249182671E1,2.128851414E-2,-4.523289204E-2,-5.092277527E-1,5.116757953E-1
1.250182671E1,1.014449596E-1,-2.511745691E-2,-4.215917587E-1,4.343519051E-1
1.251182671E1,7.300987840E-2,-1.395745873E-1,-3.509845734E-1,3.847098628E-1
1.252182671E1,-7.609716058E-2,-3.353283703E-1,-1.773815155E-1,3.869109663E-1
1.253182671E1,-5.242988467E-2,-3.909568191E-1,-2.983283997E-2,3.955832725E-1
1.254182671E1,8.434443176E-2,-4.387858808E-1,1.662111282E-1,4.767317605E-1
1.255182671E1,2.800155878E-1,-4.289056063E-1,2.097272873E-1,5.534928035E-1
1.256182671E1,5.649932027E-1,-3.557933271E-1,2.205028534E-1,7.031555440E-1
1.257182671E1,7.529034615E-1,-2.527515888E-1,1.624994278E-1,8.106497715E-1
1.258182671E1,9.073274136E-1,-3.626298904E-2,1.645069122E-1,9.228329014E-1
1.259182671E1,8.862775564E-1,2.909237146E-2,1.420993805E-1,8.980682084E-1
1.260182671E1,6.006848216E-1,8.554852009E-2,1.189889908E-1,6.183034725E-1
1.261182671E1,4.638330042E-1,7.846695185E-2,1.288137436E-1,4.877408112E-1
1.262182671E1,1.920915544E-1,1.034468412E-2,1.144428253E-1,2.238377493E-1
1.263182671E1,1.450048685E-1,5.298316479E-3,1.361913681E-1,1.990039517E-1
1.264182671E1,1.044655144E-1,1.326197386E-2,1.322069168E-1,1.690195033E-1
1.265182671E1,1.025819182E-1,4.932606220E-2,7.155418396E-2,1.344474306E-1
1.266182671E1,2.283310294E-1,1.238175035E-1,4.578590393E-3,2.597822100E-1
1.267182724E1,2.980313897E-1,9.472453594E-2,-4.321098328E-3,3.127524882E-1
1.268182724E1,4.331966937E-1,3.471755981E-2,1.303672791E-2,4.347811411E-1
1.269182724E1,5.375143290E-1,4.569619894E-2,4.177665710E-2,5.410684666E-1
1.270182724E1,6.460011005E-1,1.276709437E-1,1.294479370E-1,6.710991433E-1
1.271182724E1,6.610890031E-1,1.473228931E-1,2.400159836E-1,7.185752412E-1
1.272182674E1,5.523341894E-1,7.081663609E-2,2.513504028E-1,6.109542354E-1
1.273182674E1,4.433850646E-1,3.310960531E-2,1.638517380E-1,4.738501382E-1
1.274182674E1,4.014663100E-1,-5.678236485E-3,9.502220154E-2,4.125974542E-1
1.275182674E1,3.467610776E-1,-1.678621769E-2,4.980564117E-2,3.507215761E-1
1.276182674E1,3.806413710E-1,-2.983927727E-3,9.340286255E-3,3.807676432E-1
1.277182674E1,4.113458097E-1,-2.157419920E-2,1.940917969E-2,4.123682062E-1
1.278182674E1,4.871411920E-1,-4.449227452E-2,7.782745361E-2,4.953213259E-1
1.279182674E1,5.413021445E-1,-3.021854162E-2,5.347061157E-2,5.447754384E-1
1.280182674E1,5.512236357E-1,-6.069621444E-2,2.977561951E-2,5.553540443E-1
1.281182674E1,5.309276581E-1,-7.269790769E-2,4.111289978E-3,5.358974404E-1
1.282182674E1,5.205960274E-1,-7.043179870E-2,-1.219091415E-1,5.392983412E-1
1.283182674E1,5.108084083E-1,-6.245735288E-2,-1.952581406E-1,5.504106579E-1
1.284182674E1,4.408692420E-1,-1.294673383E-1,-3.335237503E-1,5.677724652E-1
1.285182674E1,4.325478971E-1,-1.605393291E-1,-3.312139511E-1,5.679553159E-1
1.286182674E1,4.858204722E-1,-2.569548488E-1,-1.263332367E-1,5.639214593E-1
1.287182674E1,4.918236136E-1,-3.344044685E-1,1.305675507E-2,5.948842697E-1
1.288182674E1,6.082421541E-1,-3.698518276E-1,1.591892242E-1,7.294450641E-1
1.289182674E1,6.409252882E-1,-3.637617230E-1,2.048273087E-1,7.648934845E-1
1.290182674E1,7.135228515E-1,-3.035656214E-1,2.412776947E-1,8.120848921E-1
1.291179341E1,6.960815191E-1,-2.693667710E-1,2.757158279E-1,7.956803104E-1
1.292176007E1,6.035634279E-1,-2.834724486E-1,3.248119354E-1,7.417197813E-1
1.293172674E1,5.116134882E-1,-2.578757405E-1,3.334569931E-1,6.629040844E-1
1.294169340E1,2.277295291E-1,-2.171846330E-1,3.903455734E-1,5.013976166E-1
1.295166007E1,6.127136946E-2,-1.821175814E-1,4.211006165E-1,4.628679329E-1
1.296162674E1,-2.652327418E-1,-1.457814872E-1,3.778648376E-1,4.841306486E-1
1.297159287E1,-4.088108540E-1,-1.542954743E-1,4.042091370E-1,5.952465322E-1
1.298155954E1,-4.095467925E-1,-2.485639453E-1,4.304513931E-1,6.440504732E-1
1.299152620E1,-3.183650374E-1,-2.633805275E-1,4.134435654E-1,5.845179048E-1
1.300149287E1,-7.683140039E-2,-2.225786000E-1,4.871721268E-1,5.410923936E-1
1.301145953E1,8.818069100E-2,-2.205097228E-1,5.031280518E-1,5.563615808E-1
1.302142620E1,3.415353596E-1,-2.300918400E-1,5.093984604E-1,6.550385089E-1
1.303139337E1,4.319019616E-1,-2.231481969E-1,4.560241699E-1,6.665526729E-1
1.304136003E1,4.803651273E-1,-1.945830882E-1,3.144788742E-1,6.062261922E-1
1.305132670E1,4.521668553E-1,-2.139846236E-1,2.380657196E-1,5.540032229E-1
1.306129336E1,3.638725281E-1,-2.166947871E-1,1.071777344E-1,4.368602914E-1
1.307126003E1,2.810107470E-1,-1.912594438E-1,1.017093658E-2,3.400744958E-1
1.308122670E1,1.384860277E-1,-1.275909245E-1,-1.536607742E-1,2.430420898E-1
1.309119336E1,1.242139339E-1,-1.242247224E-1,-2.671651840E-1,3.197469603E-1
1.310116003E1,9.597703815E-2,-3.834429383E-2,-4.023208618E-1,4.153841025E-1
1.311112669E1,7.102257013E-2,3.823214769E-2,-4.420223236E-1,4.493213073E-1
1.312109336E1,4.416739941E-2,1.112641096E-1,-4.414396286E-1,4.573832167E-1
1.313102669E1,3.099840879E-2,7.962703705E-2,-4.317493439E-1,4.401236898E-1
1.314096003E1,3.342002630E-2,-5.797624588E-3,-3.314733505E-1,3.332042808E-1
1.315089336E1,8.853787184E-2,3.912550211E-2,-2.913722992E-1,3.070302532E-1
1.316082669E1,1.697174609E-1,8.166331053E-2,-1.101493835E-1,2.181875329E-1
1.317076003E1,1.883403957E-1,4.364413023E-2,-3.660202026E-2,1.967654000E-1
1.318069336E1,2.067721188E-1,-4.510784149E-2,-8.168220520E-3,2.117926965E-1
1.319062669E1,2.354790866E-1,-1.439380944E-1,3.996467590E-2,2.788651118E-1
1.320056002E1,3.642086983E-1,-1.591575444E-1,1.100120544E-1,4.124096894E-1
1.321052669E1,4.085459113E-1,-1.116761863E-1,2.064971924E-1,4.711925537E-1
1.322049336E1,4.480567276E-1,-8.277565241E-2,3.482074738E-1,5.734588779E-1
1.323046002E1,4.317428470E-1,-1.087592542E-1,3.268060684E-1,5.522976260E-1
1.324042669E1,3.816905022E-1,-2.163584232E-1,3.266887665E-1,5.470138544E-1
1.325039385E1,3.637211621E-1,-1.996921599E-1,3.310251236E-1,5.307990909E-1
1.326036052E1,4.766212702E-1,-1.411397159E-1,3.853969574E-1,6.289825668E-1
1.327032719E1,5.740430951E-1,-5.612644553E-2,3.774585724E-1,6.893117051E-1
1.328029385E1,6.728475094E-1,3.762406111E-2,3.792295456E-1,7.732751057E-1
1.329026105E1,6.795085669E-1,1.752376556E-2,3.142414093E-1,7.488568876E-1
1.330022772E1,6.385634542E-1,-9.191974998E-2,2.496967316E-1,6.917810226E-1
1.331019438E1,5.955953598E-1,-1.312889755E-1,2.142515182E-1,6.464320078E-1
1.332016105E1,5.322479606E-1,-1.280542016E-1,1.791448593E-1,5.760023009E-1
1.333012722E1,5.073917508E-1,-1.065206826E-1,1.539182663E-1,5.408177857E-1
1.334009388E1,4.877494574E-1,-7.011681795E-2,1.982460022E-1,5.311472288E-1
1.335006055E1,4.824271500E-1,-7.531496882E-2,2.661914825E-1,5.561170785E-1
1.336002748E1,3.686804175E-1,-1.183653772E-1,4.629802704E-1,6.035613834E-1
1.336999415E1,2.871844769E-1,-1.364039779E-1,5.134601593E-1,6.039224322E-1
1.337996081E1,1.109611988E-1,-8.742600679E-2,5.902080536E-1,6.068782751E-1
1.338992748E1,4.234164953E-2,-2.270829678E-2,5.998306274E-1,6.017518289E-1
1.339989415E1,-7.574695349E-2,5.821239948E-2,6.285438538E-1,6.357622673E-1
1.340986081E1,-1.370956302E-1,6.659990549E-2,5.997924805E-1,6.188552164E-1
1.341982748E1,-1.795042157E-1,8.502501249E-2,4.707336426E-1,5.109218908E-1
1.342982748E1,-1.770421267E-1,7.258296013E-2,3.517923355E-1,4.004622929E-1
1.343982748E1,-3.937143087E-2,6.855964661E-2,7.783699036E-2,1.109465267E-1
1.344982748E1,5.672588944E-2,1.440185905E-1,-6.386375427E-2,1.674447970E-1
1.345982748E1,2.229869664E-1,2.794250846E-1,-2.316083908E-1,4.259624535E-1
1.346982748E1,2.689965963E-1,2.951003313E-1,-3.299741745E-1,5.180022492E-1
1.347982748E1,3.198643327E-1,2.402986884E-1,-5.529651642E-1,6.825152920E-1
1.348982748E1,3.446034193E-1,1.537798047E-1,-6.660413742E-1,7.655134598E-1
1.349982798E1,3.130146861E-1,8.063364029E-2,-6.166725159E-1,6.962506513E-1
1.350982798E1,3.308699131E-1,5.781245232E-2,-6.108722687E-1,6.971241695E-1
1.351982798E1,4.558399916E-1,3.268009424E-2,-5.814914703E-1,7.395880046E-1
1.352982798E1,5.088966489E-1,4.085242748E-2,-4.663667679E-1,6.914786202E-1
1.353982798E1,5.512261391E-1,1.411849260E-2,-2.919235229E-1,6.239142020E-1
1.354982748E1,5.631915927E-1,-7.870638371E-2,-2.449274063E-1,6.191679088E-1
1.355982748E1,5.952416658E-1,-2.209225297E-1,-1.887607574E-2,6.351973797E-1
1.356982748E1,6.378445029E-1,-2.169184089E-1,1.683092117E-1,6.944258036E-1
1.357982748E1,6.807954311E-1,-1.790690422E-1,4.436931610E-1,8.321128301E-1
1.358982694E1,6.648234129E-1,-1.506603360E-1,4.964399338E-1,8.432919512E-1
1.359982694E1,5.596314669E-1,-1.604186893E-1,5.686998367E-1,8.138433749E-1
1.360982721E1,4.856548905E-1,-1.644759178E-1,5.360937119E-1,7.418284627E-1
1.361982721E1,4.792196155E-1,-1.610031128E-1,4.203243256E-1,6.574541663E-1
1.362982721E1,5.049527287E-1,-1.904859245E-1,3.482789993E-1,6.423086541E-1
1.363982721E1,6.526691914E-1,-3.001016974E-1,1.930685043E-1,7.438504887E-1
1.364982721E1,8.173968792E-1,-3.640431762E-1,8.643817902E-2,8.989642101E-1
1.365982694E1,1.109504223E0,-2.981966734E-1,2.571868896E-2,1.149165927E0
1.366982694E1,1.217066288E0,-3.148315847E-1,6.788158417E-2,1.258958770E0
1.367982694E1,1.271835566E0,-3.500947058E-1,1.287508011E-1,1.325408910E0
1.368982694E1,1.247093678E0,-3.906156123E-1,1.028366089E-1,1.310877021E0
1.369982694E1,1.115509510E0,-3.350190818E-1,1.528282166E-1,1.174715164E0
1.370979361E1,1.047890544E0,-3.115705550E-1,2.136878967E-1,1.113918004E0
1.371976077E1,9.305662513E-1,-2.680362761E-1,2.288169861E-1,9.950649257E-1
1.372972744E1,8.973484039E-1,-2.300184071E-1,1.335372925E-1,9.359352724E-1
1.373969411E1,9.122788906E-1,-1.421345472E-1,7.897377014E-2,9.266562794E-1
1.374966077E1,1.001315117E0,-9.644508362E-2,6.297874451E-2,1.007918618E0
1.375962744E1,1.243497491E0,-5.532884598E-2,1.643657684E-2,1.244836315E0
1.376959410E1,1.380081177E0,-5.764418840E-2,-8.199787140E-2,1.383716213E0
1.377956077E1,1.576058269E0,6.182861328E-2,-1.892690659E-1,1.588585919E0
1.378952744E1,1.627493978E0,1.831731796E-1,-3.033609390E-1,1.665628086E0
1.379949360E1,1.596844673E0,3.936163187E-1,-3.743381500E-1,1.686705596E0
1.380946027E1,1.499009967E0,4.615214467E-1,-3.474082947E-1,1.606463647E0
1.381942693E1,1.140942097E0,4.548943639E-1,-2.273788452E-1,1.249151268E0
1.382939360E1,9.077247977E-1,3.865897655E-1,-1.815967560E-1,1.003191575E0
1.383936027E1,5.383419394E-1,2.493550181E-1,-1.666755676E-1,6.162553965E-1
1.384932693E1,3.773911595E-1,2.108633518E-1,-1.536502838E-1,4.587982674E-1
1.385929410E1,2.638723850E-1,1.070939898E-1,-1.874828339E-1,3.409509807E-1
1.386926076E1,2.716190219E-1,1.010755897E-1,-2.109174728E-1,3.584401599E-1
1.387922743E1,1.185795069E-1,1.730304956E-2,-2.673339844E-1,2.929640834E-1
1.388919410E1,1.434282362E-1,-3.845924139E-2,-2.474565506E-1,2.885923018E-1
1.389916076E1,1.660043299E-1,-2.193518281E-1,6.785964966E-2,2.833330092E-1
1.390912716E1,1.603941619E-1,-3.413504064E-1,3.138570786E-1,4.906655204E-1
1.391909383E1,2.591840625E-1,-4.147043824E-1,6.175985336E-1,7.877715734E-1
1.392906049E1,3.391243815E-1,-4.471583664E-1,8.099346161E-1,9.853679684E-1
1.393902716E1,4.709359705E-1,-3.939028680E-1,1.035408974E0,1.203749102E0
1.394899383E1,5.042840838E-1,-3.257179856E-1,1.079336166E0,1.235055142E0
1.395896049E1,3.275826573E-1,-2.602708638E-1,9.567070007E-1,1.044193280E0
1.396892733E1,1.390146613E-1,-2.028860450E-1,8.305921555E-1,8.662396620E-1
1.397889399E1,2.324283123E-3,-1.287204027E-1,5.530538559E-1,5.678405691E-1
1.398886066E1,-1.988661289E-2,-1.281228065E-1,3.411321640E-1,3.649412066E-1
1.399882732E1,2.207042426E-1,-8.523654938E-2,5.363464355E-3,2.366524853E-1
1.400882732E1,3.807660341E-1,-1.142950654E-1,-1.409349442E-1,4.217923579E-1
1.401882682E1,7.756082416E-1,-6.614136696E-2,-1.914939880E-1,8.016313194E-1
1.402882682E1,9.160208106E-1,-9.757465124E-2,-1.061468124E-1,9.272982712E-1
1.403882682E1,1.087016106E0,-1.348592043E-1,1.029233932E-1,1.100174642E0
1.404882682E1,1.117504716E0,-1.818532348E-1,2.490091324E-1,1.159263964E0
1.405882682E1,1.011006594E0,-1.442751288E-1,3.849630356E-1,1.091396438E0
1.406882682E1,9.035098553E-1,-1.176379919E-1,3.435621262E-1,9.737575110E-1
1.407882682E1,5.875763297E-1,-1.164581776E-1,2.473421097E-1,6.480637080E-1
1.408882682E1,4.038133919E-1,-1.685025692E-1,1.922817230E-1,4.779441728E-1
1.409882682E1,1.926581562E-1,-4.286823273E-1,1.522750854E-1,4.940378574E-1
1.410882732E1,1.981935054E-1,-6.010015011E-1,-1.334476471E-2,6.329783192E-1
1.411882732E1,3.489558399E-1,-6.191617846E-1,-4.009160995E-1,8.160056450E-1
1.412882732E1,5.430202484E-1,-4.914790094E-1,-5.609292984E-1,9.225314546E-1
1.413882732E1,8.321218491E-1,-1.248531342E-1,-5.469141006E-1,1.003558723E0
1.414882732E1,9.055751562E-1,1.124181151E-1,-3.428268433E-1,9.747996926E-1
1.415882682E1,8.090970516E-1,2.678675056E-1,-1.354703903E-1,8.629850903E-1
1.416882682E1,6.228254437E-1,2.605232000E-1,-4.156208038E-2,6.763957996E-1
1.417882682E1,6.193163991E-2,1.588374972E-1,1.826286316E-3,1.704940288E-1
1.418882682E1,-2.581910491E-1,4.118806124E-2,4.864692688E-3,2.615009359E-1
1.419882682E1,-5.849725008E-1,-3.176929951E-1,5.181694031E-2,6.676875475E-1
1.420882682E1,-6.273581982E-1,-4.547400773E-1,-7.123947144E-4,7.748337591E-1
1.421882732E1,-3.713352978E-1,-5.006248951E-1,-2.508335114E-1,6.718873711E-1
1.422882732E1,-1.118997335E-1,-4.252406359E-1,-3.808031082E-1,5.816890544E-1
1.423882732E1,2.238476574E-1,-1.574031711E-1,-2.985811234E-1,4.050113816E-1
1.424882732E1,3.236603737E-1,-6.592011452E-2,-2.011308670E-1,3.867235765E-1
1.425882732E1,2.693443298E-1,-3.809273243E-3,-9.767246246E-2,2.865323516E-1
1.426882716E1,1.175266802E-1,-2.755999565E-3,1.020908356E-2,1.180014470E-1
1.427882716E1,-1.205174029E-1,-2.740013599E-2,1.161012650E-1,1.695721545E-1
1.428882716E1,-2.721884549E-1,-9.711921215E-3,5.121231079E-3,2.724098078E-1
1.429882716E1,-4.987521470E-1,7.599335909E-2,-3.512029648E-1,6.147131178E-1
1.430882716E1,-5.207216144E-1,1.226660013E-1,-5.148744583E-1,7.424915187E-1
1.431882716E1,-3.764319122E-1,2.220559120E-1,-8.189163208E-1,9.282422922E-1
1.432882716E1,-1.560870707E-1,2.850853801E-1,-9.259853363E-1,9.813692937E-1
1.433882716E1,2.200863063E-1,2.107340097E-1,-8.127727509E-1,8.680128741E-1
1.434882716E1,4.063365161E-1,1.640120149E-1,-6.093664169E-1,7.505576163E-1
1.435882766E1,5.285137892E-1,2.299124002E-1,-3.926944733E-2,5.776925018E-1
1.436882766E1,4.894021153E-1,3.070521951E-1,2.134895325E-1,6.159328384E-1
1.437882766E1,3.069772720E-1,3.201975226E-1,4.320869446E-1,6.192419775E-1
1.438882766E1,9.997975826E-2,3.004183769E-1,3.801441193E-1,4.947289204E-1
1.439882766E1,-3.579207659E-1,1.804149151E-1,2.854442596E-1,4.920723947E-1
1.440882716E1,-6.137796044E-1,9.765362740E-2,3.251304626E-1,7.014067661E-1
1.441882716E1,-7.888365388E-1,-2.202171683E-1,4.107246399E-1,9.162169044E-1
1.442882716E1,-7.401117086E-1,-3.053305149E-1,4.108428955E-1,8.998799639E-1
1.443882716E1,-5.730860233E-1,-2.843804061E-1,5.075864792E-1,8.166662962E-1
1.444882716E1,-3.774453402E-1,-1.815866232E-1,5.928773880E-1,7.259079031E-1
1.445882716E1,1.314401627E-3,7.118743658E-2,9.201898575E-1,9.229402757E-1
1.446882769E1,1.673235297E-1,1.843602657E-1,1.029503822E0,1.059180811E0
1.447882769E1,1.992062330E-1,2.820478678E-1,1.103164673E0,1.155943951E0
1.448882769E1,8.026510477E-2,2.306628823E-1,1.026745796E0,1.055393189E0
1.449882769E1,-1.548902988E-1,2.223457098E-1,7.934322357E-1,8.384290859E-1
1.450882769E1,-2.993433475E-1,1.834474802E-1,6.330232620E-1,7.238631556E-1
1.451882719E1,-4.969678521E-1,2.143663168E-1,2.363319397E-1,5.905783179E-1
1.452882719E1,-4.774839282E-1,2.565841675E-1,2.540998459E-1,5.986593926E-1
1.453882719E1,-6.687142253E-1,1.877880096E-1,-1.165161133E-1,7.042862034E-1
1.454882719E1,-7.377848625E-1,9.417557716E-2,-2.032108307E-1,7.710318958E-1
1.455882719E1,-7.960688472E-1,-5.652010441E-2,-4.043579102E-1,8.946649938E-1
1.456882719E1,-8.597112894E-1,-1.054515839E-1,-4.518384933E-1,9.769245425E-1
1.457882719E1,-7.912266850E-1,-1.175549030E-1,-5.152587891E-1,9.514990500E-1
1.458882719E1,-7.014654875E-1,-9.193795919E-2,-4.144525528E-1,8.199252021E-1
1.459882719E1,-3.784916401E-1,-5.196046829E-2,-2.064094543E-1,4.342357364E-1
1.460882769E1,-2.617260218E-1,-8.221560717E-2,-1.580686569E-1,3.166158822E-1
1.461882769E1,5.417805910E-2,-9.038907290E-2,-1.254568100E-1,1.638440044E-1
1.462882769E1,2.255061269E-1,-3.380179405E-2,-2.356357574E-1,3.279020963E-1
1.463882769E1,4.097748995E-1,6.643152237E-2,-5.562086105E-1,6.940436830E-1
1.464882769E1,4.862623811E-1,1.266683340E-1,-7.071237564E-1,8.674790931E-1
1.465882719E1,5.835350752E-1,8.115291595E-2,-6.411800385E-1,8.707530198E-1
1.466882719E1,5.767369866E-1,7.549667358E-2,-5.716829300E-1,8.155652469E-1
1.467882719E1,5.390122533E-1,-6.243705750E-3,-3.377475739E-1,6.361183983E-1
1.468882772E1,5.224698782E-1,-7.534837723E-2,-2.667264938E-1,5.914348435E-1
1.469882772E1,5.051554441E-1,-1.368768811E-1,-2.912235260E-1,5.989394339E-1
1.470882772E1,4.546348453E-1,-1.343870163E-1,-2.865924835E-1,5.539746964E-1
1.471882826E1,3.136922419E-1,-1.836717129E-1,-3.630275726E-1,5.137383957E-1
1.472882826E1,2.126412392E-1,-1.731942296E-1,-3.576936722E-1,4.507297426E-1
1.473882826E1,-5.434009433E-2,-2.920697331E-1,-2.112464905E-1,3.645307321E-1
1.474882826E1,-2.075388432E-1,-2.836787105E-1,-7.954120636E-2,3.603786699E-1
1.475882826E1,-4.260871112E-1,-3.312642574E-1,1.738100052E-1,5.670063073E-1
1.476882772E1,-5.233154297E-1,-3.889841139E-1,4.243898392E-1,7.779938402E-1
1.477882772E1,-6.226139069E-1,-4.423794150E-1,8.352937698E-1,1.131840672E0
1.478882772E1,-6.388788223E-1,-4.303474128E-1,9.759073257E-1,1.243286031E0
1.479882772E1,-7.500596046E-1,-4.574513137E-1,1.145969391E0,1.443986482E0
1.480882772E1,-7.454122305E-1,-4.726552665E-1,1.163867950E0,1.460695382E0
1.481882772E1,-6.669132710E-1,-4.649778008E-1,1.111253738E0,1.376903242E0
1.482882772E1,-4.865590632E-1,-4.238500595E-1,8.780612946E-1,1.089669781E0
1.483882772E1,-2.637272775E-1,-2.075107694E-1,5.050449371E-1,6.063688521E-1
1.484882772E1,-2.449676394E-1,-1.276651621E-1,4.730014801E-1,5.477571891E-1
1.485882822E1,-2.171334028E-1,-1.564055681E-1,4.768352509E-1,5.467919831E-1
1.486882822E1,-1.871941686E-1,-3.764772415E-2,1.882343292E-1,2.681252890E-1
1.487882822E1,-3.517163396E-1,-1.192669868E-1,3.535556793E-2,3.730670367E-1
1.488882822E1,-3.929067254E-1,-1.897952557E-1,-6.082725525E-2,4.405654196E-1
1.489882822E1,-3.620762825E-1,-2.246589661E-1,-7.855415344E-2,4.332916344E-1
1.490882772E1,-3.016425371E-1,-2.188462615E-1,-7.991886139E-2,3.811416151E-1
1.491882772E1,-1.679876447E-1,-1.301419139E-1,-1.556167603E-1,2.633881975E-1
1.492882772E1,-4.187560081E-2,-6.858789921E-2,-2.048206329E-1,2.200212661E-1
1.493882772E1,1.399233937E-1,-4.290807247E-2,-2.299585342E-1,2.725813388E-1
1.494882772E1,2.254806459E-1,-4.775786400E-2,-2.528104782E-1,3.421044769E-1
1.495882772E1,1.552521884E-1,-6.963962317E-2,-4.195842743E-1,4.527735442E-1
1.496882822E1,6.152206659E-2,-5.662840605E-2,-5.368967056E-1,5.433689479E-1
1.497882822E1,-1.384007335E-1,-3.238373995E-2,-5.594558716E-1,5.772298865E-1
1.498882819E1,-2.309811711E-1,-5.406153202E-2,-5.927572250E-1,6.384638427E-1
1.499882819E1,-2.586486936E-1,-1.228891015E-1,-5.504732132E-1,6.205011172E-1
1.500882819E1,-2.053940892E-1,-1.069182754E-1,-3.173761368E-1,3.928687589E-1
1.501882765E1,-4.847645760E-4,-3.494775295E-2,1.308441162E-1,1.354317658E-1
1.502882765E1,1.127742827E-1,9.462237358E-3,2.226896286E-1,2.497964040E-1
1.503882765E1,1.514413059E-1,8.069550991E-2,2.867803574E-1,3.341993534E-1
1.504882765E1,1.079190373E-1,2.502834797E-2,2.178840637E-1,2.444307715E-1
1.505882765E1,-1.285784841E-1,-7.774162292E-2,5.407905579E-2,1.596894823E-1
1.506882765E1,-2.272877693E-1,-1.318199039E-1,-7.094764709E-2,2.721576487E-1
1.507882765E1,-4.679560661E-1,-1.561048031E-1,-1.884450912E-1,5.280749396E-1
1.508882765E1,-4.513501227E-1,-2.146785259E-1,-2.001733780E-1,5.383987221E-1
1.509882765E1,-2.954286635E-1,-2.066901922E-1,-1.135234833E-1,3.780033228E-1
1.510882779E1,-1.243967712E-1,-1.386004686E-1,6.620407104E-3,1.863557790E-1
1.511882779E1,2.057026774E-1,3.998106718E-2,2.966127396E-1,3.631682730E-1
1.512882779E1,3.728941977E-1,1.414343715E-1,4.142646790E-1,5.750382495E-1
1.513882779E1,4.043390751E-1,1.780977249E-1,6.207542419E-1,7.619348503E-1
1.514882779E1,3.981944919E-1,1.645199656E-1,6.215782166E-1,7.562969997E-1
1.515882729E1,3.946324587E-1,1.510429978E-1,6.225280762E-1,7.523895070E-1
1.516882729E1,3.923916817E-1,1.408003569E-1,6.232843399E-1,7.498528794E-1
1.517882729E1,3.897046447E-1,1.353433728E-1,6.236267090E-1,7.477284339E-1
1.518882779E1,-7.216422558E-1,-1.514437795E-1,6.547899246E-1,9.861301177E-1
1.519882779E1,-5.472185612E-1,-6.202131510E-2,3.460445404E-1,6.504164982E-1
1.520882779E1,-4.222952425E-1,-3.165924549E-2,2.532615662E-1,4.934338868E-1
1.521882829E1,-6.543266773E-2,-2.899795771E-2,1.110343933E-1,1.321020517E-1
1.522882829E1,2.477893531E-1,-1.449865103E-2,-8.322048187E-2,2.617927100E-1
1.523882829E1,6.013808250E-1,1.441829801E-1,-4.996109009E-1,7.950211826E-1
1.524882829E1,7.702491879E-1,2.330303192E-1,-5.880012512E-1,9.966606306E-1
1.525882829E1,9.556814432E-1,3.120311499E-1,-6.079082489E-1,1.174837392E0
1.526882779E1,9.516231418E-1,2.758209705E-1,-6.267728806E-1,1.172394155E0
1.527882779E1,8.258947134E-1,9.323978424E-2,-5.175495148E-1,9.791083879E-1
1.528882729E1,7.222966552E-1,2.177476883E-3,-4.738817215E-1,8.638756192E-1
1.529882729E1,5.799965262E-1,-9.396296740E-2,-4.356126785E-1,7.314256048E-1
1.530882729E1,5.082800984E-1,-1.087625027E-1,-4.167900085E-1,6.662520932E-1
1.531882729E1,3.971422315E-1,-7.887816429E-2,-3.333816528E-1,5.244874100E-1
1.532882729E1,2.301740050E-1,-2.242267132E-3,-2.811527252E-1,3.633620168E-1
1.533882729E1,-1.808113456E-1,-4.399120808E-3,-5.696010590E-2,1.896221206E-1
1.534882729E1,-3.612178862E-1,-5.393362045E-2,1.646699905E-1,4.006287590E-1
1.535882779E1,-5.171661377E-1,-2.452928126E-1,4.606447220E-1,7.347264374E-1
1.536882779E1,-4.574580789E-1,-2.115884423E-1,5.296564102E-1,7.311453178E-1
1.537882779E1,-2.528131008E-1,-5.341598392E-2,6.950759888E-1,7.415513208E-1
1.538882779E1,-1.348892450E-1,5.980288982E-2,6.887378693E-1,7.043659181E-1
1.539882779E1,-1.245161891E-1,1.078175008E-1,4.507446289E-1,4.798954212E-1
1.540882765E1,-1.226540208E-1,1.203766167E-1,4.502782822E-1,4.819596145E-1
1.541882765E1,-3.814718723E-1,-1.990517825E-1,6.461906433E-2,4.351069121E-1
1.542882765E1,-3.888080716E-1,-2.734690905E-1,-3.606796265E-2,4.767158041E-1
1.543882765E1,-1.560578942E-1,-2.937022150E-1,-1.200485229E-1,3.535911556E-1
1.544882765E1,7.684627175E-2,-2.717727423E-1,-6.042671204E-2,2.888202909E-1
1.545882765E1,4.253986180E-1,-1.196495295E-1,2.002086639E-1,4.851427658E-1
1.546882819E1,5.678625703E-1,-9.101837873E-2,3.386030197E-1,6.673861318E-1
1.547882819E1,6.842073798E-1,-1.424273849E-1,4.052591324E-1,8.078739152E-1
1.548882768E1,6.811673641E-1,-1.302176118E-1,3.212718964E-1,7.643044130E-1
1.549882768E1,4.943888187E-1,-8.161428571E-2,3.738403320E-4,5.010801687E-1
1.550882769E1,3.450213075E-1,-8.077034354E-2,-6.920433044E-2,3.610440283E-1
1.551882719E1,7.762813568E-2,-1.242754757E-1,-1.222639084E-1,1.908375870E-1
1.552882718E1,-2.473831177E-3,-2.080605328E-1,-1.203641891E-1,2.403806215E-1
1.553882718E1,3.867653012E-2,-4.204301536E-1,-1.326475143E-1,4.425525405E-1
1.554882718E1,1.559850574E-1,-4.411679804E-1,1.594944000E-1,4.943672610E-1
1.555882718E1,3.580531478E-1,-1.986398250E-1,6.313943863E-1,7.525414990E-1
1.556882719E1,3.927117586E-1,-9.505626559E-2,6.582431793E-1,7.723615100E-1
1.557882719E1,2.689376473E-1,-1.534066647E-1,8.317375183E-1,8.874955562E-1
1.558882719E1,8.117413521E-2,-1.537255049E-1,7.975435257E-1,8.162698368E-1
1.559882719E1,-2.769913673E-1,-1.266705990E-1,5.985727310E-1,6.716092410E-1
1.560882725E1,-3.938858509E-1,-1.786205471E-1,5.865354538E-1,7.287490665E-1
1.561882725E1,-4.819461107E-1,-2.052208036E-1,4.331855774E-1,6.797333127E-1
1.562882725E1,-5.502525568E-1,-1.047286987E-1,2.057285309E-1,5.967161846E-1
1.563882725E1,-6.691551805E-1,-3.360122442E-2,-2.250499725E-1,7.067851073E-1
1.564882725E1,-7.337467074E-1,-6.631660461E-2,-3.542222977E-1,8.174689957E-1
1.565882675E1,-8.397083879E-1,-1.666034162E-1,-4.670000076E-1,9.751696683E-1
1.566882675E1,-9.209640622E-1,-2.846564949E-1,-4.197320938E-1,1.051370132E0
1.567882675E1,-9.699086547E-1,-3.081822395E-1,-5.043010712E-1,1.135789884E0
1.568882675E1,-8.860241771E-1,-2.446129620E-1,-5.575780869E-1,1.075066354E0
1.569882675E1,-7.090423703E-1,-4.941546917E-2,-6.730298996E-1,9.788525003E-1
1.570882675E1,-5.861933827E-1,-7.286071777E-2,-6.307973862E-1,8.641971468E-1
1.571882725E1,-3.665789962E-1,3.840476274E-2,-5.970649719E-1,7.016706257E-1
1.572882725E1,-2.688513398E-1,1.456488371E-1,-5.739641190E-1,6.503302519E-1
1.573882725E1,-1.759576797E-1,2.626434565E-1,-6.546564102E-1,7.269922322E-1
1.574882725E1,-1.612676978E-1,3.739800453E-1,-8.914747238E-1,9.800997540E-1
1.575882725E1,-2.915470600E-1,2.501233220E-1,-1.198186874E0,1.258257982E0
1.576882672E1,-3.999775648E-1,6.687903404E-2,-1.038836479E0,1.115184329E0
1.577882672E1,-4.828864336E-1,-1.784609854E-1,-5.333461761E-1,7.412730770E-1
1.578882672E1,-5.151070356E-1,-1.225289106E-1,-5.382404327E-1,7.550174538E-1
1.579882672E1,-3.958744407E-1,-6.130179763E-2,5.514669418E-1,6.816085908E-1
1.580882672E1,-4.126298428E-1,7.724761963E-3,7.802238464E-1,8.826507291E-1
1.581882672E1,-4.944337606E-1,-7.488088310E-2,1.101279259E0,1.209499027E0
1.582882672E1,-5.976881385E-1,-2.350933850E-2,1.040539742E0,1.200211129E0
1.583882672E1,-7.800492644E-1,8.211195469E-2,7.464189529E-1,1.082755966E0
1.584882672E1,-9.104294181E-1,1.484109759E-1,7.062349319E-1,1.161755276E0
1.585882722E1,-1.136886239E0,8.506981283E-2,4.955968857E-1,1.243126489E0
1.586882722E1,-1.256806850E0,2.731206268E-2,2.964315414E-1,1.291580840E0
1.587882722E1,-1.234510899E0,-3.337290511E-2,2.047195435E-1,1.251815083E0
1.588882722E1,-1.139554739E0,1.755964011E-2,3.570365906E-1,1.194306691E0
1.589882722E1,-9.443533421E-1,1.124371737E-1,6.649999619E-1,1.160461245E0
1.590882715E1,-8.625778556E-1,1.833791584E-1,7.912569046E-1,1.184802077E0
