"Time (s)","Linear Acceleration x (m/s^2)","Linear Acceleration y (m/s^2)","Linear Acceleration z (m/s^2)","Absolute acceleration (m/s^2)"
0.000000000E0,-1.088141352E-1,-3.032096028E-1,3.237915039E-2,3.237668739E-1
1.000000000E-2,-1.804333925E-1,-3.350491822E-1,3.389835358E-2,3.820513866E-1
2.000000000E-2,-1.827853918E-1,-3.376616240E-1,6.690216064E-2,3.897457772E-1
3.000466600E-2,-1.603463292E-1,-3.151360154E-1,5.449390411E-2,3.577586324E-1
4.000466600E-2,-1.742276549E-1,-3.189144135E-1,6.643390656E-2,3.694254225E-1
5.000466600E-2,-1.716162264E-1,-3.092129827E-1,4.966735840E-2,3.571157296E-1
6.000466600E-2,-1.668528616E-1,-3.018301427E-1,7.121181488E-2,3.521539934E-1
7.000466600E-2,-1.692002863E-1,-3.039473593E-1,4.965591431E-2,3.513949970E-1
8.000466600E-2,-1.738137305E-1,-3.013276458E-1,6.161880493E-2,3.532795496E-1
9.000466600E-2,-1.593955904E-1,-3.082146049E-1,7.118701935E-2,3.542185605E-1
1.000046660E-1,-1.664631963E-1,-3.104225993E-1,7.357597351E-2,3.598410896E-1
1.100046660E-1,-1.783073395E-1,-3.029739559E-1,6.638526917E-2,3.577621126E-1
1.200046660E-1,-1.590365767E-1,-2.908169031E-1,5.201435089E-2,3.355183998E-1
1.300046660E-1,-1.853121817E-1,-3.169462979E-1,6.158447266E-2,3.722743715E-1
1.400063800E-1,-1.660775393E-1,-3.047746718E-1,5.200195312E-2,3.509608992E-1
1.500063800E-1,-1.683339179E-1,-3.020344377E-1,5.677986145E-2,3.504069949E-1
1.600063800E-1,-1.586909294E-1,-2.993707061E-1,6.395435333E-2,3.448126884E-1
1.700063800E-1,-1.585639715E-1,-3.134705424E-1,4.479217529E-2,3.541364892E-1
1.800063800E-1,-1.656736434E-1,-3.036057353E-1,3.999614716E-2,3.481722137E-1
1.900063800E-1,-1.655911803E-1,-3.057375252E-1,6.153678894E-2,3.531043043E-1
2.000063800E-1,-1.774391830E-1,-3.125049472E-1,6.391811371E-2,3.650062067E-1
2.100063800E-1,-1.844869405E-1,-3.098269105E-1,4.475593567E-2,3.633610318E-1
2.200063800E-1,-1.487039626E-1,-2.630782723E-1,6.781482697E-2,3.097126033E-1
2.300063800E-1,-1.337506175E-1,-2.481900156E-1,6.473064423E-2,2.892707517E-1
2.400063800E-1,-1.227343082E-1,-2.190279216E-1,5.940055847E-2,2.580026496E-1
2.500069800E-1,-1.153876334E-1,-1.923116148E-1,4.222011566E-2,2.282117466E-1
2.600069800E-1,-1.163562685E-1,-1.727393866E-1,5.626392365E-2,2.157389765E-1
2.700069800E-1,-8.703018725E-2,-1.551365107E-1,6.320095062E-2,1.887748675E-1
2.800075150E-1,-6.836629659E-2,-1.394017041E-1,4.146862030E-2,1.607060424E-1
2.900075150E-1,-7.484034449E-2,-1.228853688E-1,4.851531982E-2,1.518407958E-1
3.000075150E-1,-6.056771055E-2,-9.108380973E-2,3.644371033E-2,1.152946312E-1
3.100075150E-1,-6.612681597E-2,-1.064667925E-1,4.355716705E-2,1.326844396E-1
3.200075150E-1,-4.591371864E-2,-1.060257107E-1,4.111480713E-2,1.226374668E-1
3.300070480E-1,-4.312358797E-2,-8.484819531E-2,5.065917969E-2,1.078202790E-1
3.400070480E-1,-3.137917817E-2,-6.454093009E-2,3.627395630E-2,8.041134488E-2
3.500070480E-1,-4.648927227E-2,7.210973650E-2,2.908039093E-2,9.059103527E-2
3.600064810E-1,3.377034515E-2,-1.724378318E-1,7.457256317E-2,1.908829726E-1
3.700064810E-1,-3.808730841E-2,-3.686881065E-2,-1.641178131E-2,5.549143021E-2
3.800064810E-1,-4.316028953E-2,-3.446666524E-2,8.175563812E-2,9.866481627E-2
3.900064810E-1,-4.533279687E-2,-2.461964637E-2,3.576278687E-4,5.158795748E-2
4.000064810E-1,-9.415782988E-3,-4.521231353E-2,6.261730194E-2,7.780576307E-2
4.100064810E-1,-7.160462439E-3,-4.131979495E-2,2.671337128E-2,4.972124176E-2
4.200064810E-1,-3.912815824E-2,-1.434334088E-2,5.545330048E-2,6.936723094E-2
4.300064810E-1,-8.524220437E-3,-4.008485004E-2,4.588794708E-2,6.152366394E-2
4.400056810E-1,-9.391918778E-3,-3.748478368E-2,4.110908508E-2,5.642051065E-2
4.500056810E-1,-9.556077421E-4,-4.435253143E-2,4.830265045E-2,6.558358233E-2
4.600056810E-1,-1.676434278E-2,-3.692378104E-2,4.591751099E-2,6.126031840E-2
4.700057140E-1,-8.619524539E-3,-5.825164914E-2,5.311107635E-2,7.929903696E-2
4.800057140E-1,-2.211768553E-2,-2.900854498E-2,4.833412170E-2,6.055472744E-2
4.900057140E-1,1.009748131E-2,-2.644486912E-2,5.552864075E-2,6.232752341E-2
5.000057140E-1,-1.338157803E-3,-4.948662594E-3,3.638458252E-2,3.674394879E-2
5.100057140E-1,-1.049594209E-2,-1.497537270E-2,3.878688812E-2,4.288180591E-2
5.200057140E-1,-7.507443428E-3,-1.083329692E-2,4.597949982E-2,4.783133317E-2
5.300062140E-1,1.964904368E-4,-2.363292873E-2,5.317020416E-2,5.818611982E-2
5.400067140E-1,-1.905974001E-3,-2.466537431E-2,3.162860870E-2,4.015448064E-2
5.500062140E-1,-4.004709423E-3,-1.127028838E-2,4.839611053E-2,4.985218764E-2
5.600062140E-1,-8.505150676E-3,-7.575981319E-3,5.319118500E-2,5.439701501E-2
5.700062140E-1,-2.257917076E-2,1.262333989E-2,4.122543335E-2,4.866933344E-2
5.800053800E-1,1.634483039E-2,6.081409752E-3,5.320262909E-2,5.598800557E-2
5.900053800E-1,-1.475152746E-2,-1.071143150E-2,4.362487793E-2,4.728078152E-2
6.000058800E-1,-1.201115921E-2,1.755282283E-3,5.560016632E-2,5.690981863E-2
6.100058800E-1,-1.642458513E-2,-1.475339383E-2,5.321025848E-2,5.760869061E-2
6.200058800E-1,-2.304282412E-2,-2.142278105E-2,5.082035065E-2,5.977135879E-2
6.300058800E-1,-2.947887033E-2,3.908585012E-2,3.646278381E-2,6.104295274E-2
6.400058800E-1,-1.652784273E-2,-6.640078127E-2,4.604339600E-2,8.247561854E-2
6.500058800E-1,2.048672736E-2,4.000640661E-2,1.253509521E-2,4.666205288E-2
6.600069130E-1,-1.556960121E-2,-4.159534350E-2,4.605388641E-2,6.398082163E-2
6.700069130E-1,-7.800277323E-3,2.861792594E-2,4.366588593E-2,5.278768422E-2
6.800069130E-1,-5.089167506E-3,-9.901884943E-3,4.606151581E-2,4.738786965E-2
6.900069130E-1,5.070842803E-3,-4.712976515E-3,4.127788544E-2,4.185438353E-2
7.000069130E-1,-1.370077953E-2,7.527679205E-3,4.367542267E-2,4.638879023E-2
7.100069130E-1,5.431458354E-3,-3.551803529E-2,6.043529510E-2,7.030971814E-2
7.200069130E-1,9.454078972E-4,1.764748245E-2,4.846858978E-2,5.159003420E-2
7.300069130E-1,-1.120846719E-3,-1.808125153E-2,5.565357208E-2,5.852783987E-2
7.399735790E-1,-5.945697427E-3,1.316437125E-2,3.889369965E-2,4.148941866E-2
7.499407120E-1,1.078857109E-2,-1.307766885E-2,5.086612701E-2,5.361698953E-2
7.599073780E-1,-1.273848116E-3,-1.304122806E-2,4.847145081E-2,5.021133200E-2
7.698740110E-1,-3.631606698E-3,6.098259240E-3,5.086612701E-2,5.135893506E-2
7.798406770E-1,1.064675674E-2,-8.274730295E-3,6.044197083E-2,6.192783242E-2
7.898073430E-1,1.780048385E-2,-5.847774446E-3,4.607677460E-2,4.974055537E-2
7.997740090E-1,-1.440875232E-3,6.116025150E-3,5.325984955E-2,5.362922206E-2
8.097406750E-1,-1.104322448E-2,-5.866583437E-3,5.565261841E-2,5.704019236E-2
8.197073410E-1,5.683846772E-3,6.075698882E-3,3.649902344E-2,3.743526336E-2
8.296735070E-1,-1.110144332E-2,-2.027232200E-2,9.156703949E-2,9.443903750E-2
8.396396730E-1,-2.842887640E-1,-4.136577994E-2,-1.378059387E-2,2.876128193E-1
8.496063390E-1,-1.984521747E-2,-1.512859017E-2,8.679962158E-2,9.031545385E-2
8.595730050E-1,1.731299981E-2,1.955114305E-2,-4.153251648E-3,2.644308334E-2
8.695396710E-1,3.895524517E-2,-6.535999477E-3,6.050968170E-2,7.226099913E-2
8.795066710E-1,9.516984224E-3,4.139382392E-3,2.940177917E-2,3.117967437E-2
8.894738040E-1,3.091745079E-3,2.054456621E-3,8.447742462E-2,8.455894364E-2
8.994399700E-1,1.099994034E-2,3.335382417E-2,2.223205566E-2,4.156609884E-2
9.094071030E-1,6.058692932E-3,6.528228521E-3,5.335426331E-2,5.409254053E-2
9.193742360E-1,2.066084370E-2,6.116628647E-3,6.293010712E-2,6.651677976E-2
9.293409020E-1,1.352906972E-2,-1.150146127E-3,5.814170837E-2,5.970608693E-2
9.393075680E-1,1.607669145E-2,-8.162163198E-3,3.899002075E-2,4.295698586E-2
9.492742340E-1,1.058906317E-2,-2.508609369E-2,5.335044861E-2,5.989750180E-2
9.592404340E-1,1.943081245E-2,-7.646083832E-4,4.616355896E-2,5.009206798E-2
9.692071000E-1,1.637387276E-2,1.623944193E-2,5.334281921E-2,5.811436608E-2
9.791737660E-1,1.540873200E-2,-7.633611560E-3,5.094242096E-2,5.376645144E-2
9.891404320E-1,1.668823138E-2,4.298623651E-3,5.093383789E-2,5.377016900E-2
9.991075650E-1,1.111318916E-2,6.521675736E-3,3.416824341E-2,3.651717521E-2
1.009074231E0,2.768561244E-3,1.349356771E-2,3.655433655E-2,3.906354850E-2
1.019040631E0,1.898202673E-2,6.001498550E-3,6.288528442E-2,6.596130927E-2
1.029007297E0,8.537933230E-3,-1.102390885E-2,3.654193878E-2,3.911184169E-2
1.039007297E0,-2.104184777E-2,-1.347983629E-2,3.892993927E-2,4.626019364E-2
1.049006830E0,2.922542393E-3,-3.847885877E-3,5.808448792E-2,5.828512002E-2
1.059006830E0,5.480863154E-3,3.374848515E-3,5.808544159E-2,5.844097867E-2
1.069006830E0,1.035695523E-2,-8.483808488E-3,5.329895020E-2,5.495470517E-2
1.079006830E0,-6.366573274E-3,5.972925574E-3,5.569267273E-2,5.637271406E-2
1.089006830E0,1.269635186E-2,1.115512103E-3,3.893184662E-2,4.096498992E-2
1.099006830E0,1.206571981E-2,-1.110992581E-2,4.132175446E-2,4.445783887E-2
1.109006830E0,-4.302822053E-4,-3.759142011E-3,4.371261597E-2,4.387606507E-2
1.119006830E0,-5.689300597E-4,-3.893557936E-3,4.371166229E-2,4.388841413E-2
1.129006830E0,-1.541905850E-2,3.504518420E-3,3.892135620E-2,4.201072462E-2
1.139007296E0,1.213844866E-3,1.794710755E-3,3.174114227E-2,3.181500462E-2
1.149007296E0,-8.344575763E-3,2.104672417E-2,4.371261597E-2,4.922793249E-2
1.159007762E0,3.714837134E-3,-7.466737181E-3,4.131984711E-2,4.215307752E-2
1.169007762E0,1.089080796E-2,-5.513850600E-3,4.371166229E-2,4.538415656E-2
1.179007762E0,1.804896072E-2,6.445512176E-3,4.131793976E-2,4.554647907E-2
1.189007295E0,-2.070325240E-2,1.357324049E-2,2.934360504E-2,3.839146617E-2
1.199007295E0,-2.545111626E-2,1.840843633E-2,4.849910736E-2,5.778229194E-2
1.209006828E0,-3.356240690E-3,3.295395523E-3,5.807495117E-2,5.826511767E-2
1.219006861E0,-7.834944874E-3,-2.040263265E-3,5.328559875E-2,5.389716199E-2
1.229006861E0,-3.122523427E-3,1.458076760E-2,5.088996887E-2,5.302959427E-2
1.239006861E0,-7.935766131E-3,-2.191163599E-3,5.328464508E-2,5.391688959E-2
1.249007327E0,2.115283161E-3,1.177277789E-2,4.849720001E-2,4.995048679E-2
1.259007327E0,-9.880851954E-3,-2.104043961E-4,5.089092255E-2,5.184169657E-2
1.269007327E0,-9.516201913E-3,6.614383310E-3,4.370784760E-2,4.521818337E-2
1.279007327E0,-9.115204215E-3,6.241954863E-3,4.370880127E-2,4.508334789E-2
1.289007327E0,4.984959960E-4,1.101562381E-2,4.610347748E-2,4.740383003E-2
1.299006860E0,-1.395047456E-2,-1.287297159E-2,5.089187622E-2,5.431677645E-2
1.309006860E0,-6.450437009E-3,1.386344433E-3,4.371070862E-2,4.420583826E-2
1.319007126E0,8.301466703E-3,-3.388155252E-3,4.850196838E-2,4.932377604E-2
1.329007126E0,6.362713873E-3,3.823202103E-3,5.568695068E-2,5.617951120E-2
1.339007192E0,2.569156140E-2,3.520805389E-3,4.611015320E-2,5.290178282E-2
1.349007192E0,1.802793518E-2,-3.701686859E-3,4.610729218E-2,4.964465051E-2
1.359007192E0,6.414577365E-4,-6.182976067E-3,4.849720001E-2,4.889395740E-2
1.369007192E0,5.540400743E-4,-1.566164196E-2,5.328559875E-2,5.554231741E-2
1.378973858E0,1.961734146E-2,-1.083669811E-2,3.891944885E-2,4.491099655E-2
1.388940524E0,-9.557571262E-3,-8.921623230E-4,5.088901520E-2,5.178643635E-2
1.398907190E0,4.295770079E-3,-7.617078722E-3,4.609966278E-2,4.692176933E-2
1.408873856E0,-4.591420293E-4,6.776645780E-3,3.891658783E-2,3.950486739E-2
1.418840522E0,-1.245506480E-2,-1.957257837E-2,4.849433899E-2,5.375793316E-2
1.428807188E0,-1.241746545E-2,-3.288201988E-4,5.088901520E-2,5.238314079E-2
1.438773388E0,-7.474496961E-3,2.551902086E-3,4.131603241E-2,4.206417529E-2
1.448740988E0,-1.228375733E-2,4.995808005E-3,4.849910736E-2,5.027934175E-2
1.458707188E0,-1.669248566E-2,2.185613662E-2,3.413581848E-2,4.383587445E-2
1.468674121E0,-4.166379571E-3,1.052506268E-4,5.089855194E-2,5.106889842E-2
1.478640787E0,-2.034564316E-2,1.906737685E-2,5.329513550E-2,6.014882811E-2
1.488607453E0,-2.877868712E-3,6.747260690E-3,6.048011780E-2,6.092333136E-2
1.498574119E0,-2.606578171E-3,1.679018140E-3,5.808734894E-2,5.817003918E-2
1.508540785E0,4.916936159E-3,-3.375146538E-3,4.611682892E-2,4.650085789E-2
1.518506951E0,1.201927662E-4,-8.247755468E-3,3.653907776E-2,3.745856538E-2
1.528473617E0,4.817441106E-3,1.299332827E-3,3.893280029E-2,3.925122856E-2
1.538440283E0,2.288013697E-3,-2.028264850E-2,2.935504913E-2,3.575387736E-2
1.548406483E0,4.651963711E-3,-2.042099088E-2,3.653717041E-2,4.211439726E-2
1.558373149E0,1.181242615E-2,-1.522458345E-2,4.611492157E-2,4.997906906E-2
1.568339815E0,-1.311302185E-4,-2.250546217E-2,5.329799652E-2,5.785490002E-2
1.578306481E0,1.646087691E-2,-7.355976850E-3,4.851245880E-2,5.175451210E-2
1.588273147E0,6.610363722E-3,-4.389334470E-3,5.090713501E-2,5.152183576E-2
1.598239813E0,-1.154474914E-3,1.088370010E-2,3.893661499E-2,4.044561444E-2
1.608206979E0,8.025534451E-3,-3.007836640E-3,4.851436615E-2,4.926560674E-2
1.618173645E0,2.814114094E-3,-2.649996430E-3,5.809020996E-2,5.821867581E-2
1.628140311E0,-9.056702256E-3,-5.065485835E-3,5.090713501E-2,5.195401233E-2
1.638106911E0,1.007407904E-2,2.209600061E-3,4.133033752E-2,4.259772530E-2
1.648073577E0,2.867713571E-3,1.177342236E-2,5.090713501E-2,5.232947210E-2
1.658040243E0,2.194681019E-2,-2.732522786E-3,4.372310638E-2,4.899835905E-2
1.668006909E0,-9.847536683E-3,-1.708411798E-2,3.653717041E-2,4.151874140E-2
1.678006909E0,-4.301257432E-4,-5.197081715E-3,3.892898560E-2,3.927671812E-2
1.688006909E0,-2.849239856E-3,-4.203356802E-4,5.090045929E-2,5.098187527E-2
1.698006909E0,-3.400364518E-2,1.900635660E-3,5.568790436E-2,6.527635861E-2
1.708006909E0,1.885227859E-3,1.386080310E-2,4.850578308E-2,5.048254093E-2
1.718007175E0,1.378007606E-2,4.145145416E-3,4.132175446E-2,4.375568669E-2
1.728007175E0,-1.258947328E-2,-6.727427244E-4,6.047534943E-2,6.177552354E-2
1.738007175E0,2.260088921E-3,6.188556552E-3,4.132270813E-2,4.184462261E-2
1.748006241E0,6.895821542E-3,-8.242711425E-3,4.132175446E-2,4.269639373E-2
1.758006241E0,-3.159791231E-4,1.367077231E-3,4.132175446E-2,4.134556971E-2
1.768005974E0,-9.922254831E-3,-1.067723334E-2,4.132080078E-2,4.381624162E-2
1.778005974E0,9.206697345E-3,-1.111350954E-3,3.892612457E-2,4.001551638E-2
1.788005974E0,6.856523454E-3,-5.791012198E-3,3.892707825E-2,3.994828103E-2
1.798005974E0,2.042789012E-3,-1.527344435E-2,3.174495697E-2,3.528729775E-2
1.808005974E0,4.408251494E-3,3.913253546E-3,6.047534943E-2,6.076194634E-2
1.818005974E0,9.043984115E-3,1.453366131E-3,3.174400330E-2,3.303918381E-2
1.828005974E0,1.773666590E-3,-5.736544728E-3,4.610824585E-2,4.649757170E-2
1.838005974E0,1.849710569E-2,1.355152577E-3,4.850196838E-2,5.192706707E-2
1.848005974E0,-1.061044633E-3,-3.334399313E-3,5.807685852E-2,5.818217536E-2
1.858006474E0,8.013956249E-3,1.125420257E-2,3.892135620E-2,4.130075712E-2
1.868006474E0,-6.380863488E-3,1.596981660E-2,5.089187622E-2,5.371902388E-2
1.878006474E0,1.746319607E-2,8.700050414E-3,4.131317139E-2,4.568842549E-2
1.888006474E0,6.816089153E-4,-1.040325686E-2,4.370784760E-2,4.493404373E-2
1.898006474E0,-4.132356495E-3,-3.231458366E-3,5.328559875E-2,5.354319497E-2
1.908005974E0,7.809840143E-3,-8.092939854E-3,4.131317139E-2,4.281667209E-2
1.918005974E0,5.382996053E-3,-1.769944653E-2,5.088901520E-2,5.414738149E-2
1.928005974E0,-9.110059589E-3,-1.525383443E-2,4.131221771E-2,4.497079033E-2
1.938005974E0,-4.310693592E-3,-9.136684239E-4,2.934074402E-2,2.966978478E-2
1.948005974E0,2.850469202E-3,1.350286603E-2,6.046581268E-2,6.202069872E-2
1.958005974E0,-1.967016608E-3,1.564253122E-3,3.652381897E-2,3.661018157E-2
1.968006240E0,-6.715320051E-3,-5.571447313E-3,3.652381897E-2,3.755164312E-2
1.978006240E0,-1.146737114E-2,1.356797665E-2,4.849529266E-2,5.164672305E-2
1.988006240E0,4.091635346E-4,-9.287521243E-4,3.412914276E-2,3.414422910E-2
1.998006240E0,-2.310757339E-2,-3.367420286E-3,3.652572632E-2,4.335237191E-2
2.008006240E0,1.388914883E-3,-5.646135658E-3,4.610729218E-2,4.647246845E-2
2.018005973E0,-1.304961741E-2,-8.116904646E-3,5.568218231E-2,5.776402066E-2
2.028005973E0,-1.301688328E-2,6.172060966E-3,4.371070862E-2,4.602346831E-2
2.038005973E0,-1.738302410E-2,-3.405798227E-3,4.131984711E-2,4.495663192E-2
2.048005973E0,2.332273871E-3,-3.271974623E-3,4.611206055E-2,4.628679560E-2
2.058005973E0,4.704724997E-3,1.114474982E-2,4.611206055E-2,4.767244502E-2
2.068005973E0,7.051825523E-3,1.607649028E-3,5.090045929E-2,5.141176455E-2
2.078005973E0,4.697669297E-3,-3.133520484E-3,4.611301422E-2,4.645747656E-2
2.088005973E0,2.343643457E-3,-7.874943316E-3,4.611301422E-2,4.683927281E-2
2.098005973E0,1.428604499E-2,-1.263080537E-2,4.611301422E-2,4.990028463E-2
2.108006473E0,-7.291771472E-3,6.450649351E-3,4.371833801E-2,4.478921619E-2
2.118006473E0,-4.930559546E-3,3.921780735E-3,3.892898560E-2,3.943547516E-2
2.128006473E0,1.652656868E-2,1.343003288E-2,3.413963318E-2,4.023689612E-2
2.138006473E0,3.982856870E-3,2.018747851E-2,3.652858734E-2,4.192535189E-2
2.148006473E0,8.742105216E-3,-1.819361001E-2,3.892135620E-2,4.384408532E-2
2.158005973E0,3.884527832E-3,1.531151310E-2,5.089282990E-2,5.328801108E-2
2.168005973E0,1.384932548E-3,-1.342739910E-3,3.652763367E-2,3.657853209E-2
2.178005973E0,-6.209954619E-3,-1.126150042E-2,4.370498657E-2,4.555777408E-2
2.188005973E0,5.255341530E-3,-6.523322314E-3,4.370212555E-2,4.449773170E-2
2.198005973E0,2.839408815E-3,1.268176734E-2,4.609680176E-2,4.789368014E-2
2.208005973E0,-4.368633032E-3,1.517063752E-2,5.088520050E-2,5.327792064E-2
2.218006239E0,3.287345171E-4,-6.340958178E-3,3.412532806E-2,3.471100449E-2
2.228006239E0,1.467272639E-2,5.681306124E-3,3.652000427E-2,3.976527192E-2
2.238006239E0,-1.175534725E-2,-8.647713810E-3,3.652000427E-2,3.932787631E-2
2.248006239E0,9.753268212E-3,-1.098378375E-2,2.933597565E-2,3.280806629E-2
2.258006239E0,9.789802134E-3,-1.421395689E-3,4.370212555E-2,4.480777130E-2
2.268005972E0,-1.903614402E-2,-1.446854323E-3,2.694129944E-2,3.301971808E-2
2.278005972E0,-9.480867535E-3,1.057558879E-2,5.088424683E-2,5.282931480E-2
2.288005972E0,-4.306528717E-3,-8.776154369E-3,3.173255920E-2,3.320425257E-2
2.298005972E0,9.595826268E-4,-8.587807417E-3,4.849529266E-2,4.925915799E-2
2.308005972E0,-1.576602459E-3,-3.890302032E-3,4.131126404E-2,4.152397695E-2
2.318005972E0,-8.737210184E-3,-1.441765577E-3,4.131221771E-2,4.225064333E-2
2.328005972E0,-6.361164153E-3,5.854226649E-3,2.694606781E-2,2.829888601E-2
2.338005972E0,-8.726395667E-3,-8.544154465E-3,5.088901520E-2,5.233397008E-2
2.348005972E0,1.273841783E-2,-8.489362895E-3,4.610061646E-2,4.857574918E-2
2.358006472E0,-4.112455994E-3,8.307047188E-3,4.370498657E-2,4.467712142E-2
2.368006472E0,-6.528619677E-3,-1.079587266E-2,3.891658783E-2,4.091056770E-2
2.378006472E0,-1.380625367E-2,-6.032597274E-3,4.131126404E-2,4.397300771E-2
2.388006472E0,-1.856899261E-2,-8.310522884E-3,5.088806152E-2,5.480389660E-2
2.398006472E0,5.804084241E-3,-7.934011519E-4,3.413295746E-2,3.463200347E-2
2.408005972E0,-3.415465355E-3,2.580145560E-2,5.329132080E-2,5.930721193E-2
2.418005972E0,-1.075108349E-2,-2.889640629E-3,4.371261597E-2,4.510796619E-2
2.428005972E0,3.545444459E-3,-2.904217690E-3,3.174209595E-2,3.207125367E-2
2.438005972E0,3.450628370E-3,-2.929497510E-3,4.610633850E-2,4.632799631E-2
2.448005972E0,-7.803387940E-3,-7.773928344E-3,5.329322815E-2,5.441961955E-2
2.458005972E0,1.813795418E-3,-2.209226787E-2,4.611015320E-2,5.116155179E-2
2.468006238E0,4.310995340E-3,-7.366582751E-3,5.090141296E-2,5.161206316E-2
2.478006238E0,4.281997681E-3,-7.439695299E-3,5.090141296E-2,5.162013572E-2
2.488006238E0,-5.385991186E-3,6.962396204E-3,4.371738434E-2,4.459477049E-2
2.498006238E0,-5.573146045E-4,-1.693297550E-2,4.611301422E-2,4.912683930E-2
2.508006238E0,-1.011253521E-2,-7.301244885E-3,4.371833801E-2,4.546278284E-2
2.518005971E0,6.834190339E-3,9.869541973E-3,3.654003143E-2,3.846151211E-2
2.528005971E0,9.199425578E-3,-2.069100738E-3,4.372119904E-2,4.472643350E-2
2.538005971E0,-1.496432722E-2,-8.698057383E-3,5.808925629E-2,6.061310904E-2
2.548005971E0,4.219088703E-3,-2.070234343E-2,4.611778259E-2,5.072708945E-2
2.558005971E0,-6.569549441E-4,3.233332187E-3,6.287670135E-2,6.296320831E-2
2.568005971E0,-1.278121769E-2,-6.303410977E-3,2.935600281E-2,3.263230633E-2
2.578005971E0,-1.722631231E-2,-3.370806575E-3,4.372692108E-2,4.711848682E-2
2.588005971E0,-1.213483140E-2,-5.485370755E-3,4.133701324E-2,4.342916174E-2
2.598005971E0,5.084499717E-3,9.181726724E-3,3.655242920E-2,3.802941392E-2
2.608006471E0,-9.310424328E-3,-4.681646824E-4,3.655147552E-2,3.772152625E-2
2.618006471E0,-1.406630874E-2,-2.939093858E-3,5.570507050E-2,5.752872494E-2
2.628006471E0,3.473445773E-3,-3.934241831E-4,5.092239380E-2,5.104223544E-2
2.638006471E0,1.055787504E-2,-7.663622499E-3,3.416156769E-2,3.656791684E-2
2.648006471E0,1.060160995E-2,-7.554247975E-3,3.416252136E-2,3.655870159E-2
2.658005971E0,8.054420352E-3,2.121752128E-2,5.092239380E-2,5.575075862E-2
2.668005971E0,-1.548439264E-3,-9.918700904E-3,3.655624390E-2,3.790959324E-2
2.678005971E0,7.937461138E-3,-2.698987722E-3,4.613304138E-2,4.688864821E-2
2.688005971E0,3.058008850E-3,6.808750331E-3,3.894901276E-2,3.965773687E-2
2.698005971E0,1.500041410E-2,-3.413893282E-4,3.655433655E-2,3.951390250E-2
2.708005971E0,9.600002319E-3,6.791468710E-3,3.894519806E-2,4.068184538E-2
2.718005971E0,1.904218271E-2,1.629609615E-2,4.373168945E-2,5.040464398E-2
2.728005971E0,4.038371146E-3,1.552931964E-3,4.851531982E-2,4.870786689E-2
2.738005971E0,3.593768924E-3,-8.183497936E-3,5.329990387E-2,5.404409835E-2
2.748005971E0,-3.957111388E-3,-8.310377598E-3,5.090236664E-2,5.172786518E-2
2.758005971E0,5.525071174E-3,6.030146033E-3,5.090141296E-2,5.155427154E-2
2.768005704E0,5.437787622E-3,-1.159872860E-3,3.653621674E-2,3.695686638E-2
2.778005704E0,6.202682853E-4,-1.127179712E-3,4.850769043E-2,4.852474933E-2
2.788005704E0,7.300231606E-3,5.961950868E-3,4.610919952E-2,4.706268714E-2
2.798005704E0,2.417042851E-3,8.330769837E-3,3.892517090E-2,3.987997933E-2
2.808005704E0,-2.783369273E-3,1.288330182E-2,4.610443115E-2,4.795148780E-2
2.818005704E0,-6.413683295E-4,1.001971960E-2,5.328369141E-2,5.422137866E-2
2.828005704E0,-7.907759398E-3,5.285821855E-3,4.131126404E-2,4.239213498E-2
2.838005704E0,-7.330924273E-4,1.202807203E-2,4.130935669E-2,4.303109215E-2
2.848005704E0,6.415974349E-3,9.076487273E-3,5.806636810E-2,5.912064320E-2
2.858006204E0,-1.041306928E-2,-7.698014379E-3,4.370021820E-2,4.557850928E-2
2.868006204E0,3.907617182E-3,-5.940914154E-3,3.890705109E-2,3.955151776E-2
2.878006204E0,3.885693848E-3,6.081674248E-3,5.566787720E-2,5.613375036E-2
2.888006204E0,-1.300621033E-2,-1.534201205E-3,4.608821869E-2,4.791282900E-2
2.898006204E0,-7.817648351E-3,-4.300877452E-3,4.369449615E-2,4.459621247E-2
2.908005704E0,-5.026467144E-3,1.484166458E-2,3.651428223E-2,3.973453392E-2
2.918005704E0,-5.008134991E-3,1.015146077E-2,3.890895844E-2,4.052210037E-2
2.928005704E0,-1.906848326E-2,-4.611842334E-3,3.651523590E-2,4.145164166E-2
2.938005704E0,7.720142603E-3,1.200849563E-2,5.567073822E-2,5.747204245E-2
2.948005704E0,5.083456635E-4,7.252637297E-3,3.891086578E-2,3.958427262E-2
2.958005704E0,-6.692543626E-3,1.454843581E-2,5.567073822E-2,5.792821608E-2
2.968005970E0,1.501877606E-2,-1.956553012E-2,5.566883087E-2,6.088835959E-2
2.978005970E0,1.254081726E-2,6.826404482E-3,4.130363464E-2,4.370196941E-2
2.988005970E0,-1.136900857E-2,-3.274977207E-4,3.412055969E-2,3.596629261E-2
2.998005970E0,-1.863523573E-2,6.909798831E-3,3.412055969E-2,3.948708554E-2
3.008005970E0,-6.689283997E-3,-2.183252200E-2,4.848670959E-2,5.359446375E-2
3.018005970E0,4.025362432E-4,-1.461299136E-2,5.327510834E-2,5.524435465E-2
3.028005970E0,-1.890069991E-2,-1.690514013E-2,4.130268097E-2,4.846577839E-2
3.038005970E0,-6.516806781E-3,7.484637201E-3,5.088424683E-2,5.184298544E-2
3.048005970E0,1.044970006E-3,7.691714913E-3,4.131126404E-2,4.203421198E-2
3.058005970E0,-1.579153165E-2,4.763677716E-4,5.328178406E-2,5.557470567E-2
3.068005970E0,-1.582055166E-2,1.716317981E-2,5.328083038E-2,5.816967838E-2
3.078005970E0,1.097883284E-2,-6.838701665E-3,4.849529266E-2,5.019059694E-2
3.088005970E0,-5.333263427E-3,-4.434186965E-3,4.849815369E-2,4.899159748E-2
3.098005970E0,2.097090334E-2,9.902499616E-3,6.046772003E-2,6.476251579E-2
3.108006470E0,2.088357881E-2,9.895239025E-3,6.046772003E-2,6.473318148E-2
3.118006470E0,8.980538696E-3,4.698690027E-3,4.370594025E-2,4.486576619E-2
3.128006470E0,1.619633287E-2,-6.086751819E-5,6.764888763E-2,6.956074253E-2
3.138006470E0,1.338664442E-3,-1.704578847E-2,3.891468048E-2,4.250533242E-2
3.148006470E0,3.270808607E-3,-7.304050028E-3,5.088329315E-2,5.150880369E-2
3.158005970E0,-6.229646504E-3,1.667118073E-2,3.891277313E-2,4.278949258E-2
3.168005970E0,5.723867565E-3,4.812672734E-3,3.412437439E-2,3.493418678E-2
3.178005970E0,-4.009947181E-3,2.611428499E-6,4.848957062E-2,4.865509369E-2
3.188005970E0,3.209043294E-3,9.565293789E-3,3.891181946E-2,4.019853850E-2
3.198005970E0,-3.999326378E-3,2.371698618E-3,6.285476685E-2,6.302651252E-2
3.208005970E0,-1.630268991E-3,7.202476263E-5,3.412342072E-2,3.416241803E-2
3.218006236E0,6.541088223E-4,-5.095228553E-3,4.609298706E-2,4.637836423E-2
3.228006236E0,5.417231470E-3,-1.707761735E-2,2.933216095E-2,3.437102089E-2
3.238006236E0,-6.644830108E-3,-9.858459234E-3,4.848670959E-2,4.992298061E-2
3.248006236E0,-9.064689279E-3,-7.475022227E-3,4.369735718E-2,4.524934887E-2
3.258006702E0,-6.757579744E-3,-2.693910152E-3,3.890800476E-2,3.958225449E-2
3.268006435E0,-3.318941221E-2,-5.113460124E-3,5.087947845E-2,6.096233169E-2
3.278006435E0,-4.082389176E-3,7.108341902E-3,5.567073822E-2,5.627100070E-2
3.288006435E0,-1.311264932E-2,-9.448770434E-3,3.891563416E-2,4.213843159E-2
3.298006435E0,1.389876008E-2,-6.797380745E-3,4.370975494E-2,4.636725778E-2
3.308006435E0,2.186655998E-3,7.950216532E-3,5.089569092E-2,5.155927425E-2
3.318006435E0,-4.510894418E-3,-6.103508174E-3,4.611206055E-2,4.673246311E-2
3.328006435E0,7.763586938E-3,1.358829439E-3,5.329895020E-2,5.387854667E-2
3.338619057E0,-1.387953013E-2,-3.455180675E-3,4.850959778E-2,5.057430876E-2
3.348619057E0,1.040247828E-2,-1.755574718E-2,3.893566132E-2,4.395908934E-2
3.358619557E0,3.125011921E-3,-3.215547651E-3,5.330085754E-2,5.348912844E-2
3.368619557E0,3.095865250E-3,1.107723638E-2,3.654003143E-2,3.830748549E-2
3.378619557E0,3.417506814E-4,6.602477282E-3,5.090427399E-2,5.133180895E-2
3.388619557E0,-2.008669078E-3,-7.653959095E-3,4.611682892E-2,4.679080840E-2
3.398619557E0,9.871646762E-3,9.036868811E-3,4.372119904E-2,4.572370996E-2
3.408619057E0,7.452003658E-3,6.737377495E-3,4.851055145E-2,4.953986492E-2
3.418619057E0,-2.088606358E-3,9.116861969E-3,4.132843018E-2,4.237356003E-2
3.428619057E0,5.072563887E-3,6.773468107E-3,3.893375397E-2,3.984279072E-2
3.438619057E0,7.167473435E-3,-8.021421731E-3,2.695846558E-2,2.902541556E-2
3.448619057E0,-4.843577743E-3,-7.963407785E-3,4.371833801E-2,4.470088576E-2
3.458619057E0,9.496487677E-3,-3.185696900E-3,3.653621674E-2,3.788439093E-2
3.468619323E0,-2.441946417E-3,-5.551040173E-3,2.695846558E-2,2.763215546E-2
3.478619323E0,4.781302065E-3,-7.155649364E-4,4.132461548E-2,4.160645055E-2
3.488619323E0,-9.617261589E-3,1.112103835E-2,4.371738434E-2,4.612351795E-2
3.498619323E0,-9.642679244E-3,1.111001521E-2,4.371738434E-2,4.612616822E-2
3.508619323E0,-7.281143218E-3,-8.905753493E-4,4.371738434E-2,4.432852202E-2
3.518619056E0,-2.576049417E-3,-8.360706270E-4,3.414058685E-2,3.424784249E-2
3.528619056E0,-1.217840239E-2,3.941267729E-3,3.413963318E-2,3.646041182E-2
3.538619056E0,2.150617540E-3,-8.120972663E-3,3.413867950E-2,3.515714424E-2
3.548619056E0,-3.270469606E-4,6.299141794E-3,3.174591064E-2,3.236647941E-2
3.558618589E0,-4.218630493E-4,1.824525744E-2,3.892707825E-2,4.299284601E-2
3.568618589E0,-2.885267138E-3,-9.235218167E-4,4.371452332E-2,4.381937023E-2
3.578618589E0,-1.220462471E-2,1.058464125E-2,6.526279449E-2,6.723258020E-2
3.588618589E0,-9.839661419E-3,5.723420531E-3,4.850292206E-2,4.982077807E-2
3.598618589E0,-7.536362857E-3,-8.605625480E-3,4.371261597E-2,4.518458088E-2
3.608619089E0,-7.085148245E-3,1.030348986E-2,5.568599701E-2,5.707268604E-2
3.618619589E0,1.677391678E-2,-2.076717094E-2,3.892612457E-2,4.720045389E-2
3.628619589E0,-7.193870842E-3,-1.109565794E-2,5.329227448E-2,5.490839573E-2
3.638619589E0,-9.569924325E-3,-8.708812296E-3,5.808162689E-2,5.950548080E-2
3.648619589E0,1.908509433E-2,-8.741773665E-3,4.131984711E-2,4.634640436E-2
3.658619089E0,-4.948917776E-3,-6.416473538E-3,3.413677216E-2,3.508535497E-2
3.668619089E0,4.606571048E-3,-1.576967537E-3,3.174304962E-2,3.211430402E-2
3.678619089E0,9.238567203E-3,5.584176630E-3,4.371261597E-2,4.502584755E-2
3.688619089E0,-5.217798054E-3,-1.353374869E-2,2.934741974E-2,3.273620038E-2
3.698619089E0,4.275742918E-3,3.280829638E-3,4.610633850E-2,4.642025711E-2
3.708619089E0,-7.883731276E-3,-9.247474372E-4,3.653049469E-2,3.738295626E-2
3.718619355E0,4.003964365E-3,-3.264117986E-3,4.371356964E-2,4.401775060E-2
3.728619355E0,-9.193420410E-4,1.592317596E-2,3.892421722E-2,4.206527557E-2
3.738619355E0,-5.795009434E-3,1.655898988E-3,4.610729218E-2,4.649953255E-2
3.748619355E0,-5.769137293E-3,1.772314310E-3,4.610824585E-2,4.650155243E-2
3.758619355E0,1.335609704E-2,-2.983544022E-3,4.131984711E-2,4.352719412E-2
3.768619088E0,-9.254068136E-4,1.622114331E-2,3.653144836E-2,3.998160311E-2
3.778619088E0,8.101120591E-3,6.379351020E-3,4.610347748E-2,4.724251168E-2
3.788619088E0,-1.497752964E-3,-3.146611154E-3,4.370975494E-2,4.384845611E-2
3.798619088E0,5.594357848E-3,6.466772407E-3,4.131507874E-2,4.219065911E-2
3.808619088E0,1.469782367E-2,3.945853561E-3,3.173446655E-2,3.519477445E-2
3.818585754E0,-9.693421423E-3,-8.246719837E-3,3.891372681E-2,4.094201926E-2
3.828552920E0,9.431626648E-3,1.257523894E-3,4.849052429E-2,4.941525972E-2
3.838519586E0,-7.838487625E-3,5.934260786E-3,4.609203339E-2,4.712889645E-2
3.848486252E0,-5.539029837E-3,1.120440662E-3,5.087947845E-2,5.119235848E-2
3.858452918E0,-1.760203764E-2,6.284601986E-4,4.129981995E-2,4.489879529E-2
3.868419584E0,-5.652278662E-3,1.025652140E-2,3.651142120E-2,3.834355700E-2
3.878386250E0,-3.618746996E-4,5.139183253E-3,4.369544983E-2,4.399811920E-2
3.888352916E0,-2.850793302E-3,9.902287275E-3,3.890609741E-2,4.024756802E-2
3.898319582E0,-1.012107357E-2,-2.076081932E-3,3.172397614E-2,3.336400618E-2
3.908285748E0,-6.348565221E-4,2.748940140E-3,4.129981995E-2,4.139607279E-2
3.918251914E0,-9.881403297E-3,4.756502807E-3,3.651142120E-2,3.812283211E-2
3.928218580E0,-1.197034493E-2,-7.506869733E-3,3.411674500E-2,3.692688100E-2
3.938185246E0,-2.343548462E-2,-2.774145454E-3,2.933216095E-2,3.764695855E-2
3.948151912E0,-9.691826999E-4,9.166039526E-3,3.891468048E-2,3.999134847E-2
3.958118578E0,-1.296970621E-2,-1.006102189E-2,4.370212555E-2,4.668311492E-2
3.968085711E0,2.285315096E-2,-1.012998819E-2,3.651905060E-2,4.425521694E-2
3.978052377E0,-5.527600646E-3,1.415773481E-2,3.891658783E-2,4.177914111E-2
3.988019043E0,1.629967242E-3,1.893508062E-2,4.370498657E-2,4.765836676E-2
3.997985709E0,-6.559230387E-4,-1.744559407E-2,4.370307922E-2,4.706100425E-2
4.007952375E0,-6.197243929E-4,-1.027712598E-2,5.088615417E-2,5.191728097E-2
4.017918775E0,8.928716183E-3,-3.061980009E-3,3.891468048E-2,4.004310242E-2
4.027885441E0,4.052836448E-3,4.113599658E-3,2.933788300E-2,2.990081210E-2
4.037852107E0,-2.244074270E-2,-3.090895712E-3,3.412532806E-2,4.095947491E-2
4.047818773E0,-1.774357259E-2,6.417490542E-3,4.609489441E-2,4.980720675E-2
4.057785439E0,-3.403510898E-3,1.358947530E-2,4.130649567E-2,4.361747711E-2
4.067752105E0,4.135761410E-3,-3.440853208E-3,3.412437439E-2,3.454586691E-2
4.077719271E0,-1.504369453E-2,-3.346037120E-3,4.609680176E-2,4.860477180E-2
4.087685937E0,-7.940568030E-3,-5.623891950E-3,3.652000427E-2,3.779406691E-2
4.097652603E0,2.361547202E-3,4.020739347E-3,4.370594025E-2,4.395398120E-2
4.107619269E0,-7.302664220E-3,1.724831760E-3,4.849624634E-2,4.907331106E-2
4.117619269E0,-4.522204399E-3,-7.838658988E-3,4.131507874E-2,4.229456984E-2
4.127618769E0,-9.292468429E-3,-6.633065641E-4,5.568027496E-2,5.645425551E-2
4.137618769E0,-9.368721396E-3,-1.027328894E-2,3.652667999E-2,3.908339491E-2
4.147618769E0,3.123812377E-3,1.625569910E-2,4.610729218E-2,4.898865531E-2
4.157618769E0,8.400164545E-3,1.735903323E-3,3.892707825E-2,3.986092756E-2
4.167618769E0,1.076900959E-2,-1.264077052E-2,2.934932709E-2,3.372156057E-2
4.177618769E0,-1.565911621E-2,-1.270992309E-2,4.131984711E-2,4.597912385E-2
4.187618769E0,1.140952110E-3,1.703094691E-3,4.850387573E-2,4.854717566E-2
4.197618769E0,5.940459669E-3,-1.029394194E-2,3.413772583E-2,3.614745671E-2
4.207618769E0,-1.311495900E-3,-5.519971251E-3,4.371356964E-2,4.408022544E-2
4.217618835E0,-1.309826970E-3,-4.780784249E-3,4.371738434E-2,4.399751400E-2
4.227618835E0,1.058898866E-3,-9.580090642E-3,4.611206055E-2,4.710861420E-2
4.237618835E0,1.072683930E-2,-2.539645880E-3,4.132366180E-2,4.276867905E-2
4.247618835E0,1.309231296E-2,7.069949061E-3,5.329418182E-2,5.533229305E-2
4.257618835E0,1.545764133E-2,-1.934034750E-2,3.892803192E-2,4.613436232E-2
4.267618368E0,-1.967772841E-3,1.228565350E-2,3.892707825E-2,4.086718528E-2
4.277618368E0,-9.374693036E-5,-4.349585623E-3,4.610729218E-2,4.631209427E-2
4.287618368E0,1.420276612E-2,1.957859844E-2,6.286621094E-2,6.735874524E-2
4.297618368E0,6.349314004E-3,1.220057160E-2,2.694606781E-2,3.025323629E-2
4.307618368E0,-2.041806281E-2,4.683528095E-3,4.130840302E-2,4.631648609E-2
4.317618368E0,-1.087000221E-2,-1.454377547E-2,3.412532806E-2,3.865509499E-2
4.327618834E0,1.429211348E-3,-2.598747611E-3,5.088615417E-2,5.097251044E-2
4.337618834E0,-5.844566971E-3,-5.062356591E-3,5.088615417E-2,5.147025456E-2
4.347618834E0,-1.306013390E-2,-1.227438822E-2,3.412532806E-2,3.854563165E-2
4.357618834E0,-1.308933273E-2,-3.759413958E-4,2.215290070E-2,2.573369333E-2
4.367618834E0,-5.866374820E-3,-7.511395961E-3,3.891372681E-2,4.006386847E-2
4.377618334E0,-1.996541396E-2,-9.611383080E-3,3.652286530E-2,4.271903707E-2
4.387618334E0,2.838665992E-2,7.362451404E-3,3.652763367E-2,4.684310166E-2
4.397618334E0,-7.549114525E-3,1.220188290E-2,5.568122864E-2,5.750021130E-2
4.407618334E0,-1.946591958E-2,2.602923661E-3,4.131603241E-2,4.574616673E-2
4.417618334E0,1.645900309E-2,7.365997881E-3,2.934455872E-2,3.444212296E-2
4.427618334E0,-2.633355558E-3,-4.609119147E-3,2.694988251E-2,2.746770300E-2
4.437618334E0,9.396348149E-3,1.219085231E-2,4.371070862E-2,4.634149638E-2
4.447618334E0,9.327214211E-3,-1.176645979E-2,3.413391113E-2,3.729035251E-2
4.457618334E0,4.535276443E-3,-6.828539073E-3,4.131698608E-2,4.212233395E-2
4.467618800E0,-7.356192917E-3,-9.233620018E-3,5.089378357E-2,5.224510043E-2
4.477618800E0,-4.969079047E-3,2.825219184E-3,4.850006104E-2,4.883574030E-2
4.487618800E0,1.185256243E-2,-1.393818110E-2,5.329036713E-2,5.634376059E-2
4.497618800E0,1.394524053E-2,7.964257151E-3,4.371166229E-2,4.656832127E-2
4.507618800E0,2.032198012E-3,1.039858162E-2,3.892421722E-2,4.034048853E-2
4.517618733E0,-1.706371084E-2,8.044280112E-3,4.371261597E-2,4.760959425E-2
4.527618733E0,-3.692395985E-4,8.091766387E-3,3.892421722E-2,3.975811499E-2
4.537618733E0,-3.728233278E-4,3.347035497E-3,5.329036713E-2,5.339667473E-2
4.547618733E0,-2.731684595E-3,1.727560163E-2,3.652858734E-2,4.049995315E-2
4.557618733E0,2.838636562E-2,1.486342028E-2,3.892230988E-2,5.041481153E-2
4.567618733E0,1.665383577E-3,2.200916409E-3,4.370498657E-2,4.379204707E-2
4.577619199E0,3.854647279E-3,8.980207145E-3,5.088520050E-2,5.181511417E-2
4.587619199E0,-3.784786910E-3,-5.941532552E-3,4.609107971E-2,4.662632357E-2
4.597619665E0,-3.967825323E-3,-1.586758718E-2,4.369258881E-2,4.665368450E-2
4.607619665E0,5.536425859E-3,-3.866877407E-3,4.129886627E-2,4.184735484E-2
4.617619665E0,-8.814763278E-3,-6.224479526E-3,2.693367004E-2,2.901494062E-2
4.627619198E0,5.482401699E-3,6.155133247E-3,3.890609741E-2,3.976967198E-2
4.637619198E0,-1.360991970E-2,-8.214183152E-3,5.327320099E-2,5.559439417E-2
4.647619198E0,5.974687636E-3,8.879937232E-3,3.412342072E-2,3.576252255E-2
4.657619198E0,5.799606442E-3,-1.268250868E-2,4.130458832E-2,4.359530339E-2
4.667619198E0,1.003712416E-3,-1.030632481E-2,5.088138580E-2,5.192439880E-2
4.677619198E0,9.378641844E-4,1.712940633E-3,4.848766327E-2,4.852697440E-2
4.687619198E0,-3.854352981E-3,-3.031648695E-3,5.088138580E-2,5.111714343E-2
4.697619198E0,-8.694007993E-3,-7.841907442E-3,4.369831085E-2,4.523962487E-2
4.707619198E0,8.128304034E-3,-7.528528571E-3,5.327701569E-2,5.441680319E-2
4.717619264E0,8.182976395E-3,-1.952201873E-2,4.130649567E-2,4.641440404E-2
4.727619264E0,3.129523247E-3,2.577256411E-3,3.651905060E-2,3.674339700E-2
4.737619264E0,-1.130558550E-2,-7.014051080E-3,3.412342072E-2,3.662541491E-2
4.747619264E0,1.018411666E-2,7.206328213E-3,5.327701569E-2,5.471825837E-2
4.757619264E0,-9.083185345E-3,1.197708026E-2,6.045818329E-2,6.229884938E-2
4.767618797E0,-2.021193504E-3,-2.529885620E-3,2.933216095E-2,2.951035768E-2
4.777618797E0,-6.945010275E-3,-4.996255040E-3,4.609107971E-2,4.687838906E-2
4.787618797E0,5.033306777E-3,4.493605345E-3,4.609012604E-2,4.658139526E-2
4.797618797E0,2.639189363E-3,-4.977840930E-3,4.369640350E-2,4.405814227E-2
4.807618797E0,2.569928765E-3,2.190656960E-3,4.130172729E-2,4.143954861E-2
4.817618797E0,1.204982400E-4,-2.681072801E-3,3.890609741E-2,3.899855237E-2
4.827619263E0,-1.715123653E-5,1.068674028E-4,4.369544983E-2,4.369558388E-2
4.837619263E0,4.720125347E-3,2.479605377E-3,3.890705109E-2,3.927068436E-2
4.847619263E0,9.567070752E-3,-2.268936485E-3,3.651332855E-2,3.781401959E-2
4.857619263E0,-7.196478546E-3,1.690872014E-4,3.890800476E-2,3.956830459E-2
4.867619263E0,1.201600954E-2,2.603340894E-3,4.369640350E-2,4.539314429E-2
4.877618796E0,9.919330478E-5,7.370036095E-3,4.369735718E-2,4.431462846E-2
4.887618796E0,-9.970169514E-3,7.039476186E-3,4.608726501E-2,4.767593210E-2
4.897618829E0,-2.725623548E-3,-7.329661399E-3,4.608726501E-2,4.674600471E-2
4.907618829E0,-2.900813147E-2,-4.957314581E-3,4.848194122E-2,5.671459498E-2
4.917618829E0,9.726289660E-3,2.286769450E-3,4.130172729E-2,4.249309006E-2
4.927618829E0,-1.200062037E-2,4.710655659E-3,3.651332855E-2,3.872245250E-2
4.937618829E0,-6.706312299E-3,1.173237711E-2,4.130363464E-2,4.345818142E-2
4.947618829E0,-6.768032908E-3,1.184186712E-2,5.327510834E-2,5.499339283E-2
4.957618829E0,-1.638185233E-3,2.100693807E-2,4.848670959E-2,5.286715526E-2
4.967619295E0,-8.704714477E-3,9.010117501E-3,4.130458832E-2,4.316275348E-2
4.977619295E0,-5.929779261E-3,3.434296697E-3,3.651523590E-2,3.715264632E-2
4.987619295E0,-7.745809853E-4,5.321867764E-3,3.890895844E-2,3.927886580E-2
4.997619295E0,9.100254625E-3,1.175552607E-4,4.848670959E-2,4.933345174E-2
5.007619295E0,-1.477773860E-2,-2.641011029E-3,4.369544983E-2,4.620226004E-2
5.017619228E0,1.394637302E-2,-1.702493429E-2,4.848480225E-2,5.324589897E-2
5.027619228E0,9.088687599E-3,4.508960992E-3,3.890705109E-2,4.020812848E-2
5.037619228E0,-5.204249173E-3,9.268268943E-3,4.848480225E-2,4.963628781E-2
5.047619228E0,-3.501363099E-4,-1.701036468E-2,3.890705109E-2,4.246449960E-2
5.057619228E0,1.880798489E-3,4.921082407E-3,4.609107971E-2,4.639118541E-2
5.067619228E0,9.077869356E-3,1.203497127E-2,5.806255341E-2,5.998756832E-2
5.077619728E0,-7.736764848E-3,-1.678013429E-2,5.566692352E-2,5.865353196E-2
5.087619728E0,9.012009948E-3,-1.686019450E-2,5.327320099E-2,5.659961507E-2
5.097619728E0,4.216268659E-3,-7.301371545E-3,3.890705109E-2,3.981011897E-2
5.107619728E0,8.728899062E-3,3.518760204E-4,4.130172729E-2,4.221552052E-2
5.117619728E0,3.936734051E-3,9.972728789E-3,4.130172729E-2,4.267066758E-2
5.127619261E0,1.662690192E-3,5.220465362E-3,3.651428223E-2,3.692303622E-2
5.137619261E0,1.118477061E-2,1.950268075E-2,5.087852478E-2,5.562443648E-2
5.147619261E0,-5.640853196E-3,2.684719861E-3,3.651332855E-2,3.704389433E-2
5.157619261E0,-1.294098794E-3,-5.017995834E-3,4.129600525E-2,4.161988735E-2
5.167619261E0,1.508639380E-2,1.852478832E-3,5.086994171E-2,5.309220212E-2
5.177619261E0,7.848855108E-3,-6.256029010E-4,3.171443939E-2,3.267723323E-2
5.187619261E0,-1.797467470E-3,4.148516804E-3,3.889656067E-2,3.915844114E-2
5.197618761E0,5.268476903E-3,-7.902465761E-3,5.565547943E-2,5.646005849E-2
5.207618761E0,5.202792585E-3,1.722335815E-3,3.889560699E-2,3.927981332E-2
5.217619227E0,1.239240170E-2,-1.512454450E-2,4.607772827E-2,5.005477508E-2
5.227619227E0,1.434626803E-2,4.249233752E-3,4.368209839E-2,4.617355426E-2
5.237619227E0,6.682481617E-3,1.389329880E-2,5.086231232E-2,5.314747526E-2
5.247619227E0,8.344087750E-3,-7.952272892E-3,3.888511658E-2,4.055754844E-2
5.257619227E0,-2.582788467E-2,-7.943492383E-3,3.648757935E-2,4.540398820E-2
5.267618760E0,2.786528319E-3,1.591963693E-2,5.324554443E-2,5.564429515E-2
5.277618760E0,-6.973061711E-3,1.338756084E-2,3.409004211E-2,3.728245360E-2
5.287618760E0,-2.379175648E-2,-3.517717123E-3,2.690601349E-2,3.608816388E-2
5.297618760E0,-1.194091886E-2,-1.265212893E-3,5.803012848E-2,5.925944750E-2
5.307618760E0,-9.088151157E-3,-1.386031508E-3,3.408908844E-2,3.530696143E-2
5.317618760E0,-8.662473410E-3,-1.350738108E-2,5.085086823E-2,5.332258985E-2
5.327619226E0,-9.805895388E-4,5.784519017E-3,4.606628418E-2,4.643839741E-2
5.337619226E0,1.362442970E-3,9.744316339E-4,3.888320923E-2,3.891927193E-2
5.347619226E0,3.691077232E-3,1.059927791E-2,4.127788544E-2,4.277654228E-2
5.357619226E0,1.361358166E-2,-1.608818397E-2,3.888320923E-2,4.422740360E-2
5.367619226E0,1.121930033E-2,7.775686681E-4,4.846191406E-2,4.974971786E-2
5.377618726E0,6.365019828E-3,-1.593445987E-2,3.649044037E-2,4.032335213E-2
5.387618726E0,1.349313930E-2,-8.835438639E-3,5.085468292E-2,5.335099398E-2
5.397585392E0,-6.144855171E-3,1.542884856E-2,4.366970062E-2,4.672099491E-2
5.407552058E0,-1.469157636E-3,8.227892220E-3,4.366874695E-2,4.446140005E-2
5.417518724E0,-1.542210579E-3,-6.214056164E-3,3.648662567E-2,3.704411911E-2
5.427485390E0,-2.068555355E-2,1.530899853E-2,4.127502441E-2,4.864036597E-2
5.437452123E0,-1.658789814E-3,3.388896585E-3,5.085086823E-2,5.099065604E-2
5.447418789E0,1.529105753E-2,8.333370090E-3,-1.821517944E-3,1.750940961E-2
5.457385455E0,-1.590788364E-2,-2.297388390E-2,4.366874695E-2,5.184418543E-2
5.467352121E0,8.355624974E-3,8.318644017E-3,2.930545807E-2,3.158838678E-2
5.477318787E0,5.906533450E-3,-6.130564958E-3,4.845905304E-2,4.920112586E-2
5.487285453E0,3.450337797E-3,-3.626700491E-3,3.409290314E-2,3.445843629E-2
5.497252119E0,8.126188070E-3,5.932092667E-3,4.127597809E-2,4.248447979E-2
5.507218785E0,5.600862205E-3,-6.050087512E-3,2.690887451E-2,2.814357376E-2
5.517184985E0,5.484290421E-3,3.447037190E-3,4.606342316E-2,4.651664712E-2
5.527151651E0,-6.607752293E-3,-6.271656603E-3,5.563831329E-2,5.637923353E-2
5.537118317E0,-1.444226876E-2,1.131221652E-3,4.366397858E-2,4.600436734E-2
5.547085417E0,4.350598902E-3,-1.582697034E-3,5.563068390E-2,5.582298480E-2
5.557052083E0,-6.678178906E-4,-4.180386662E-3,5.802440643E-2,5.817863315E-2
5.567018749E0,-3.916266933E-2,-1.395700499E-2,5.083942413E-2,6.567465039E-2
5.576985415E0,-2.681291476E-2,1.727050543E-2,3.168773651E-2,4.495904137E-2
5.586952081E0,5.141813308E-3,-1.639161259E-2,5.323982239E-2,5.594284490E-2
5.596918747E0,-8.713982999E-3,5.374956876E-3,3.648471832E-2,3.789404085E-2
5.606885413E0,-8.445404470E-3,-9.161569178E-3,4.366779327E-2,4.541074075E-2
5.616852079E0,8.598137647E-3,3.864616156E-4,4.845905304E-2,4.921744757E-2
5.626818279E0,-5.644161254E-3,1.713950559E-2,3.409290314E-2,3.857389341E-2
5.636784945E0,8.418083191E-3,2.388950437E-3,4.366683960E-2,4.453497602E-2
5.646751611E0,8.715722710E-3,4.473637789E-3,3.887844086E-2,4.009377035E-2
5.656718277E0,8.401736617E-3,1.379681751E-2,4.127025604E-2,4.431901833E-2
5.666684943E0,7.992733270E-3,8.623532951E-3,3.168869019E-2,3.379973656E-2
5.676651609E0,3.240369260E-4,-8.659217507E-3,4.126167297E-2,4.216174456E-2
5.686618742E0,3.316845000E-2,1.939282939E-2,5.083084106E-2,6.371814742E-2
5.696618742E0,-6.026647985E-3,-7.517170161E-3,5.800628662E-2,5.880100017E-2
5.706618742E0,1.498460397E-2,-2.242689580E-2,8.194446564E-2,8.626934253E-2
5.716618742E0,1.405817643E-2,3.712762147E-3,5.081176758E-2,5.285123132E-2
5.726618742E0,-6.781481206E-4,-4.546053708E-3,4.362297058E-2,4.386445089E-2
5.736618675E0,-8.431497961E-3,9.035397321E-3,4.601097107E-2,4.764176761E-2
5.746618675E0,-5.974709988E-3,9.904280305E-3,-2.342796326E-2,2.612778961E-2
5.756618675E0,-2.281692252E-2,-1.268862933E-2,-2.125806808E-1,2.141778680E-1
5.766618675E0,8.854120970E-3,6.035171449E-3,6.828794479E-1,6.829635123E-1
5.776618675E0,2.101653442E-2,-7.910503447E-2,3.189744949E-1,3.293084111E-1
5.786618675E0,-3.726233542E-2,-7.519453764E-3,-2.412919998E-1,2.442679942E-1
5.796619108E0,1.793866605E-2,-1.797354221E-2,3.524847031E-1,3.533982313E-1
5.806619108E0,-7.680974901E-3,9.184204042E-2,-3.083124161E-1,3.217926408E-1
5.816619108E0,2.267612517E-2,-1.323349401E-2,1.465864182E-1,1.489191391E-1
5.826619108E0,1.369909570E-2,3.385535255E-2,-1.335325241E-1,1.384369355E-1
5.836619108E0,-1.569410041E-2,-2.988393232E-2,1.322212219E-1,1.364617372E-1
5.846618674E0,-1.999292523E-2,3.098088875E-2,-6.410217285E-2,7.395012570E-2
5.856618674E0,1.546364278E-3,-1.329598576E-2,9.870338440E-2,9.960689018E-2
5.866618674E0,-5.337018520E-3,2.315308526E-2,1.490783691E-2,2.804982576E-2
5.876618674E0,-1.962022111E-2,-1.594937965E-2,9.152126312E-2,9.494986778E-2
5.886618674E0,7.339805365E-3,1.291204244E-2,2.927494049E-2,3.282705779E-2
5.896618674E0,-4.574455321E-3,7.318429649E-3,9.631156921E-2,9.669748403E-2
5.906618674E0,2.887236699E-2,4.847828299E-3,3.884792328E-2,4.864438465E-2
5.916618674E0,-2.788491547E-4,-1.030046493E-2,4.363059998E-2,4.483086647E-2
5.926618674E0,1.369304582E-2,1.427613199E-3,3.644561768E-2,3.895921754E-2
5.936619140E0,1.609454677E-2,1.331143826E-2,2.447319031E-2,3.217399366E-2
5.946619140E0,1.065721363E-2,-3.694888204E-3,5.798816681E-2,5.907500225E-2
5.956619140E0,6.505623460E-4,1.181621104E-3,3.883171082E-2,3.885513125E-2
5.966619140E0,1.468841359E-2,-5.975153297E-3,5.080223083E-2,5.321953221E-2
5.976619140E0,-7.486291230E-3,-8.138734847E-3,3.882789612E-2,4.037188475E-2
5.986618673E0,-1.688854396E-2,4.058517516E-3,5.080127716E-2,5.368858578E-2
5.996618673E0,-1.437035576E-2,-1.249726862E-2,3.883171082E-2,4.325032500E-2
6.006618673E0,-2.271719277E-3,-2.865325660E-3,5.319881439E-2,5.332433452E-2
6.016618673E0,-4.381798208E-3,9.393677115E-3,5.798912048E-2,5.890822879E-2
6.026618673E0,2.815384418E-3,-1.940662414E-2,3.644084930E-2,4.138210903E-2
6.036618673E0,5.352273583E-3,9.732399136E-3,2.926063538E-2,3.129778280E-2
6.046619106E0,-1.139691472E-2,1.300424337E-4,3.165531158E-2,3.364469241E-2
6.056619106E0,2.961218357E-3,1.447768509E-2,2.447223663E-2,2.858780414E-2
6.066619106E0,-1.367488503E-2,-2.183839679E-3,4.362583160E-2,4.577100414E-2
6.076619106E0,1.044280827E-2,2.724654973E-3,3.644561768E-2,3.800998602E-2
6.086619106E0,-6.087940186E-3,-2.388667315E-3,5.081081390E-2,5.122994785E-2
6.096618706E0,8.511021733E-3,2.559859306E-3,5.320739746E-2,5.394457818E-2
6.106618706E0,-1.531852782E-2,-1.999378204E-3,3.644943237E-2,3.958807810E-2
6.116618706E0,6.244346499E-3,1.708562858E-2,4.123687744E-2,4.507095105E-2
6.126618706E0,3.715265542E-3,1.233029366E-2,4.841995239E-2,5.010320478E-2
6.136618706E0,-1.063595712E-2,7.578339428E-3,4.602527618E-2,4.784224974E-2
6.146618706E0,-1.303757355E-2,1.234878227E-2,4.841995239E-2,5.164264262E-2
6.156618706E0,-1.025807485E-2,4.651866853E-3,4.602527618E-2,4.738347827E-2
6.166618706E0,6.556801498E-3,-1.213045791E-2,3.644847870E-2,3.896961963E-2
6.176618706E0,4.449892789E-3,-7.626555860E-3,5.320930481E-2,5.393696338E-2
6.186619172E0,4.639461637E-3,4.501171410E-3,4.842185974E-2,4.885142423E-2
6.196619172E0,2.379618585E-3,6.545305252E-3,4.363250732E-2,4.418483112E-2
6.206619172E0,7.416166365E-3,9.030040354E-3,4.123973846E-2,4.286323811E-2
6.216619172E0,-4.672341049E-3,8.739028126E-3,5.321025848E-2,5.412516043E-2
6.226619172E0,-1.646846905E-2,-5.401212722E-3,4.363441467E-2,4.695046023E-2
6.236618705E0,1.232115924E-2,8.898533881E-3,4.123973846E-2,4.395123319E-2
6.246618705E0,-4.365850240E-3,4.080656916E-3,4.124069214E-2,4.167141823E-2
6.256618705E0,-1.394645125E-2,-7.847134024E-3,3.405857086E-2,3.763066919E-2
6.266618705E0,5.204118788E-3,-3.014843911E-3,3.645229340E-2,3.694511916E-2
6.276618705E0,-2.044212073E-3,-7.755849510E-3,5.321216583E-2,5.381325671E-2
6.286618705E0,2.623870969E-3,1.365080848E-2,4.842281342E-2,5.037854831E-2
6.296619138E0,9.748060256E-3,-8.602701128E-4,4.842185974E-2,4.940082230E-2
6.306619138E0,5.032122135E-3,6.187777966E-3,3.645038605E-2,3.731275241E-2
6.316619138E0,4.962846637E-3,-5.798019469E-3,3.405570984E-2,3.490040471E-2
6.326619138E0,-6.997793913E-3,1.093665510E-2,4.123783112E-2,4.323353166E-2
6.336619138E0,1.221467927E-2,-8.177533746E-3,3.645038605E-2,3.930268554E-2
6.346618704E0,-2.216544002E-3,-1.541866362E-2,6.039142609E-2,6.236804150E-2
6.356618704E0,-2.271436155E-3,-8.213475347E-3,3.884315491E-2,3.976696220E-2
6.366618704E0,-2.481944859E-3,-1.257935166E-2,3.884315491E-2,4.090465526E-2
6.376618704E0,-8.687749505E-5,-9.656876326E-3,4.123973846E-2,4.235538734E-2
6.386618704E0,-4.991199821E-3,-9.208858013E-3,5.081844330E-2,5.188669695E-2
6.396618670E0,-2.054758370E-4,3.334362060E-3,5.560970306E-2,5.570995661E-2
6.406618670E0,4.638303071E-3,-5.842097104E-3,6.279468536E-2,6.323619584E-2
6.416618670E0,9.444847703E-3,1.091072336E-2,4.364013672E-2,4.596423137E-2
6.426618670E0,2.134693787E-2,-1.544073224E-2,4.842853546E-2,5.513103496E-2
6.436619136E0,-7.886644453E-3,1.542225480E-3,4.124355316E-2,4.201914204E-2
6.446619136E0,1.697540283E-3,1.821476035E-2,4.603195190E-2,4.953382414E-2
6.456619136E0,8.749358356E-3,1.444041729E-3,4.842662811E-2,4.923184781E-2
6.466619136E0,-8.065242320E-3,-3.428321332E-3,4.603004456E-2,4.685687274E-2
6.476619136E0,6.183676422E-3,1.085741073E-2,4.842472076E-2,5.001074687E-2
6.486618669E0,1.564782485E-2,-1.070900261E-2,4.602813721E-2,4.978078519E-2
6.496618669E0,-1.618075743E-2,-1.790527627E-2,4.123592377E-2,4.777883672E-2
6.506618669E0,1.480994746E-2,-1.217987388E-3,3.884124756E-2,4.158678334E-2
6.516618669E0,-4.391558468E-3,-5.966316909E-3,2.926445007E-2,3.018759284E-2
6.526618669E0,1.249265671E-2,1.567988843E-2,3.644847870E-2,4.159828088E-2
6.536618669E0,7.875762880E-3,3.871861845E-3,3.645038605E-2,3.749199379E-2
6.546619102E0,7.589757442E-4,-5.541734397E-3,1.490211487E-2,1.591728280E-2
6.556619102E0,-6.314240396E-3,-1.495159045E-2,4.124069214E-2,4.431945822E-2
6.566619102E0,3.459993750E-3,-5.094449967E-3,4.842567444E-2,4.881568316E-2
6.576619102E0,-1.086109132E-2,4.696846008E-3,3.884983063E-2,4.061198107E-2
6.586619102E0,-1.557947695E-2,-9.443841875E-3,6.039905548E-2,6.308686198E-2
6.596618668E0,-1.533806697E-2,1.238753274E-2,4.124832153E-2,4.571795375E-2
6.606618668E0,-1.295081899E-2,5.035102367E-4,2.927684784E-2,3.201735552E-2
6.616618668E0,6.625272334E-3,5.034953356E-4,3.167343140E-2,3.236284903E-2
6.626618668E0,-2.613406628E-3,-1.412499696E-2,3.646278381E-2,3.919030539E-2
6.636618668E0,-7.329240441E-3,4.894196987E-3,6.040477753E-2,6.104431241E-2
6.646618668E0,-1.895344630E-2,1.714811847E-2,3.407096863E-2,4.259251104E-2
6.656618668E0,6.326250732E-4,1.748053730E-2,5.322933197E-2,5.602973479E-2
6.666618668E0,-3.269139677E-3,3.158554435E-3,2.689743042E-2,2.727884718E-2
6.676618668E0,9.494822472E-3,-6.083421409E-3,4.605865479E-2,4.741897669E-2
6.686619134E0,6.599053741E-4,8.912451565E-3,2.930545807E-2,3.063783838E-2
6.696619134E0,-9.203255177E-2,5.738759786E-2,9.874629974E-2,1.466770558E-1
6.706619134E0,1.662339121E-1,-6.036373377E-1,1.107301712E-1,6.358245983E-1
6.716619134E0,2.843952477E-1,-5.207682848E-1,1.499176025E-2,5.935528757E-1
6.726619134E0,5.825294256E-1,-4.570715427E-1,7.483768463E-2,7.442147579E-1
6.736618667E0,5.838305354E-1,-3.334338069E-1,2.694034576E-2,6.728759023E-1
6.746618667E0,5.177870989E-1,-2.126648426E-1,3.650283813E-2,5.609476555E-1
6.756618667E0,3.872102499E-1,-1.373543739E-1,1.155004501E-1,4.267767047E-1
6.766618667E0,4.628555477E-1,-5.462182686E-2,4.605579376E-2,4.683374191E-1
6.776618667E0,7.207096219E-1,-1.823590249E-1,-1.000032425E-1,7.501185383E-1
6.786618667E0,1.369004130E0,-5.626416951E-2,2.567367554E-1,1.394005641E0
6.796619100E0,1.821087956E0,-1.377049983E-1,-1.215620041E-1,1.830328203E0
6.806619100E0,2.724876881E0,1.799144298E-1,-1.086441040E0,2.938992574E0
6.816619566E0,1.335754633E0,1.263609529E0,-6.339159012E-1,1.944941863E0
6.826619566E0,2.899503708E0,2.292715907E-1,-1.203830719E0,3.147839833E0
6.836619566E0,4.253219962E-1,4.433312416E-1,-2.987289429E-1,6.831400819E-1
6.846619132E0,-2.146511078E-1,1.821182072E-1,2.758464813E-1,3.941236110E-1
6.856619132E0,3.005304635E-1,1.455389261E-1,3.189754486E-1,4.617850964E-1
6.866619132E0,-5.548439920E-3,2.222162932E-1,-2.005805969E-1,2.994051469E-1
6.876619632E0,2.042019069E-1,1.449355632E-1,1.920728683E-1,3.155894850E-1
6.886619632E0,4.054168165E-1,-9.224433452E-3,3.213720322E-1,5.174242634E-1
6.896619632E0,1.896935701E0,-1.018800810E-1,-6.722497940E-1,2.015109027E0
6.906619632E0,2.184721231E0,-3.124600053E-1,-5.214185715E-1,2.267711499E0
6.916619632E0,1.020280480E0,-2.284794450E-1,5.943346024E-1,1.202667342E0
6.926619632E0,1.118674994E0,7.976608723E-2,1.188100815E0,1.633823710E0
6.936620098E0,3.266156197E0,1.230359599E-1,-2.719355583E0,4.251800670E0
6.946620098E0,1.333641052E0,5.353059173E-1,4.913911819E-1,1.518754811E0
6.956620098E0,1.987762451E0,3.928638995E-1,9.055852890E-1,2.219375210E0
6.966620098E0,1.396049261E0,4.376482368E-1,-1.287460327E-1,1.468695019E0
6.976620098E0,1.231292725E0,4.005660117E-1,1.202325821E-1,1.300381012E0
6.986619631E0,6.467472911E-1,6.933316588E-2,1.506502151E0,1.640925921E0
6.996619631E0,9.770165682E-1,2.728162706E-1,2.920150757E-3,1.014395692E0
7.006619631E0,2.003847122E0,-1.702274680E-1,7.259654999E-1,2.138084794E0
7.016619631E0,1.639583588E0,-2.614030540E-1,9.151649475E-2,1.662811224E0
7.026619631E0,8.385192156E-1,-2.941669226E-1,8.049964905E-1,1.199027941E0
7.036619631E0,1.281157508E-2,-1.723758578E-1,1.111433029E0,1.124793737E0
7.046620064E0,-1.171201468E-1,-2.063007653E-1,4.936923981E-1,5.477310640E-1
7.056620497E0,1.811646521E-1,-2.945614755E-1,9.653635025E-1,1.025433462E0
7.066620497E0,6.404035687E-1,-1.020543426E-1,3.907403946E-1,7.571062512E-1
7.076620497E0,9.312950373E-1,-1.343556121E-2,5.726900101E-1,1.093373133E0
7.086620497E0,1.500902891E0,-5.094837770E-2,2.590436935E-1,1.523945163E0
7.096620063E0,1.755821705E0,4.438316077E-2,2.686262131E-1,1.776806058E0
7.106620063E0,8.793147206E-1,1.245219857E-1,6.086063385E-1,1.076615892E0
7.116619596E0,9.368571043E-1,9.190173447E-2,1.848239899E-1,9.593263626E-1
7.126619596E0,1.183284163E0,-3.852676600E-2,-6.418704987E-2,1.185649906E0
7.136619596E0,1.076762915E0,1.203543991E-1,-1.407361984E0,1.776111289E0
7.146619596E0,1.312670827E0,-1.235530972E-1,-8.662576675E-1,1.577584360E0
7.156619596E0,8.231745958E-1,1.405944303E-2,-6.291942596E-1,1.036194721E0
7.166619596E0,5.895531774E-1,2.104131132E-1,-2.652673721E-1,6.798627846E-1
7.176619096E0,7.377800345E-1,3.997729123E-1,1.015665054E0,1.317464710E0
7.186619562E0,3.613761663E-1,4.925174117E-1,6.931893349E0,6.958757902E0
7.196619562E0,1.232567430E0,6.473346353E-1,-2.355498314E0,2.736171944E0
7.206619562E0,-4.176337123E-1,-4.162082076E-1,6.745038986E0,6.770760527E0
7.216619562E0,-1.287027359E0,-5.711825937E-2,2.258247375E0,2.599881368E0
7.226619562E0,-2.613228261E-1,7.576640695E-2,-8.399000168E-1,8.828715683E-1
7.236619095E0,-7.116407156E-1,-1.490344554E-1,1.077867508E0,1.300170043E0
7.246619095E0,3.622708321E-1,-2.094371319E-1,-8.853912354E-1,9.792965371E-1
7.256619095E0,-2.598391473E-1,-5.441067815E-1,-3.418722153E-1,6.931415322E-1
7.266619095E0,-2.590193450E-1,-5.416607857E-1,-3.418550491E-1,6.909068696E-1
7.276619095E0,-2.400706857E-1,-1.532920003E-1,2.152982712E0,2.171742832E0
7.286619095E0,1.154157758E0,-5.257984996E-1,-8.782072067E-1,1.542657477E0
7.296619528E0,6.672283411E-1,-4.339831769E-1,-3.657827377E-1,8.759749245E-1
7.306619528E0,-3.234415948E-1,-3.888057172E-1,1.451471329E0,1.537059976E0
7.316619528E0,-2.132623792E-1,2.207905054E-1,1.466016769E-1,3.401783963E-1
7.326619528E0,2.140563965E0,5.387284756E-1,-3.437681675E0,4.085327130E0
7.336619528E0,3.874228895E-1,5.273797512E-1,1.245537758E0,1.406979106E0
7.346619094E0,2.261001319E-1,4.276340604E-1,-1.991551399E0,2.049455814E0
7.356618660E0,3.150256276E-1,1.960635781E-1,3.763084412E-1,5.284790588E-1
7.366618660E0,-1.377752125E-1,-4.552317411E-2,1.967620850E-1,2.444783971E-1
7.376618660E0,1.510971636E-1,-3.539237380E-1,-1.983146667E-1,4.329215543E-1
7.386618660E0,4.026807249E-1,-7.022028565E-1,-2.830410004E-2,8.099640362E-1
7.396618660E0,-9.657079726E-2,-6.229200959E-1,-3.036308289E-1,6.996763859E-1
7.406618660E0,-9.306199849E-2,-4.556257129E-1,8.182144165E-2,4.721758932E-1
7.416618660E0,-8.484053016E-1,-4.711090326E-1,-4.664506912E-1,1.076713297E0
7.426618660E0,-9.981553555E-1,-4.486803710E-2,-5.335025787E-1,1.132674824E0
7.436618726E0,-1.612139344E0,-1.535088271E-1,7.953147888E-1,1.804185090E0
7.446618726E0,-8.316621184E-1,3.566888720E-2,5.199851990E-1,9.814880315E-1
7.456618726E0,-2.061634958E-1,-1.286862195E-1,5.295553207E-1,5.826597359E-1
7.466618726E0,7.290932536E-1,-1.311088651E-1,2.278652191E-1,7.750413312E-1
7.476618726E0,1.242833734E0,-1.648284942E-1,3.332138062E-1,1.297241520E0
7.486618259E0,7.410970330E-1,-2.447397709E-1,-5.598545074E-1,9.604995769E-1
7.496618259E0,4.783409536E-1,-2.853700817E-1,-5.215549469E-1,7.630633748E-1
7.506618259E0,-3.236128092E-1,-4.694376886E-1,-1.481657982E0,1.587579091E0
7.516618259E0,-5.153205991E-1,-4.178465307E-1,-3.802967072E-1,7.647068906E-1
7.526618259E0,-2.331718445E0,-2.758037746E-1,-1.576461792E-1,2.353259643E0
7.536618259E0,-2.079211473E0,-3.552524000E-2,-7.729806900E-1,2.218531393E0
7.546618692E0,-1.898809314E0,1.654856652E-1,2.913093567E-2,1.906229505E0
7.556618692E0,-9.529209137E-1,-8.083231002E-2,3.954391479E-1,1.034874026E0
7.566618692E0,-2.544424832E-1,-2.047631741E-1,-1.737844467E0,1.768268172E0
7.576618692E0,1.295971274E-1,-2.170505226E-1,-2.151060104E-1,3.319291197E-1
7.586618692E0,4.806945920E-1,-2.581190467E-1,-2.749652863E-1,6.109817032E-1
7.596618258E0,-1.334674507E-1,-4.546186626E-1,-7.861423492E-2,4.802831318E-1
7.606618258E0,-7.635668516E-1,-2.963866591E-1,2.191829681E-2,8.193654864E-1
7.616618258E0,-1.114992142E0,-6.948988885E-2,-3.555393219E-2,1.117721076E0
7.626618258E0,-2.198676586E0,1.278407685E-2,4.002017975E-1,2.234838617E0
7.636618258E0,-2.795377254E0,5.711742863E-2,4.241437912E-1,2.827948789E0
7.646618258E0,-3.564850807E0,1.214680821E-1,-4.514503479E-2,3.567205327E0
7.656618258E0,-3.384559155E0,3.942612559E-2,-1.983785629E-1,3.390597166E0
7.666618258E0,-2.653830767E0,-2.716841921E-2,-2.055540085E-1,2.661918164E0
7.676618258E0,-1.129472375E0,-3.272964954E-1,8.000392914E-1,1.422284679E0
7.686618724E0,3.591574132E-1,-6.446978450E-2,-2.007484436E-1,4.164736945E-1
7.696618724E0,4.539836049E-1,1.430267990E-1,-2.845506668E-1,5.545510443E-1
7.706618724E0,8.730520606E-1,3.502413630E-1,2.781200409E-1,9.809381581E-1
7.716618724E0,1.120880723E0,2.024375200E-1,-4.384040833E-3,1.139023162E0
7.726618724E0,1.269337893E0,-5.051283240E-1,2.374334335E-1,1.386631871E0
7.736618657E0,8.551946878E-1,-8.044736385E-1,4.146251678E-1,1.245170598E0
7.746618657E0,1.625680774E-1,-1.085684657E0,-3.371829987E-1,1.148404079E0
7.756618657E0,-1.851519197E-1,-1.121607304E0,1.536512375E-1,1.147123742E0
7.766618657E0,-5.173452497E-1,-1.000297904E0,-2.581653595E-1,1.155374985E0
7.776618657E0,-9.399021864E-1,-7.372954488E-1,-2.533721924E-1,1.221154440E0
7.786618657E0,-1.306139350E0,-6.923994422E-2,-1.873970032E-2,1.308107544E0
7.796619123E0,-1.094541311E0,2.184071988E-1,7.941818237E-2,1.118941301E0
7.806619123E0,-1.094453931E0,8.866161108E-1,-4.381179810E-3,1.408522889E0
7.816619123E0,-1.311831713E0,1.038127542E0,3.667306900E-1,1.712630326E0
7.826619123E0,-1.660804272E0,1.121079445E0,1.967325211E-1,2.013403495E0
7.836619123E0,-1.386051774E0,1.092534065E0,-1.480445862E-1,1.771069565E0
7.846618689E0,-8.556287289E-1,6.984051466E-1,-2.533893585E-1,1.133170966E0
7.856618689E0,-5.721557513E-2,3.675038815E-1,-1.335600853E0,1.386420702E0
7.866618689E0,-8.690333366E-1,1.198924631E-1,8.767061234E-1,1.240244641E0
7.876618689E0,-9.520107508E-1,-2.349737287E-1,2.997007370E-1,1.025357330E0
7.886618689E0,-1.416014552E0,-1.467807055E0,8.192577362E-1,2.197893992E0
7.896618689E0,-1.188135505E0,-1.758114576E0,7.464599609E-2,2.123253368E0
7.906618689E0,-2.106344223E0,-1.553749800E0,2.901344299E-1,2.633439275E0
7.916618689E0,-2.291398048E0,-1.240996838E0,1.632423401E-1,2.610981851E0
7.926618689E0,-2.567793608E0,-5.599907637E-1,1.081829071E-1,2.630372067E0
7.936619155E0,-2.609498262E0,3.327067196E-2,-3.132038116E-1,2.628437701E0
7.946619155E0,-1.805730820E0,4.798812270E-1,6.062049866E-1,1.964289762E0
7.956619155E0,-1.158290029E0,6.080928445E-1,1.967897415E-1,1.322928154E0
7.966619155E0,-5.980815291E-1,7.244490981E-1,3.141222000E-1,9.905557873E-1
7.976619155E0,-2.421579361E-1,5.443732142E-1,1.800508499E-1,6.224154328E-1
7.986618688E0,-2.814785242E-1,6.090443730E-1,-1.240129471E-1,6.823081554E-1
7.996618688E0,-4.837371111E-1,4.090481997E-1,3.644266129E-1,7.308411445E-1
8.006618688E0,-7.409626842E-1,1.338738352E-1,-1.766710281E-1,7.734084013E-1
8.016618688E0,-1.022657394E0,-2.102809586E-2,-6.671905518E-3,1.022895323E0
8.026618688E0,-1.258803606E0,1.453827019E-3,1.010751724E-1,1.262855820E0
8.036618688E0,-1.444377303E0,7.063024677E-3,9.629535675E-2,1.447600938E0
8.046619121E0,-1.503037691E0,-3.701080382E-2,1.489734650E-2,1.503567102E0
8.056619121E0,-1.114163041E0,-1.335003227E-1,-1.861476898E-2,1.122287008E0
8.066619121E0,1.933923736E-2,-1.848292537E-3,8.195209503E-2,8.422332318E-2
8.076619121E0,-1.089525968E-2,1.276910305E-2,4.125595093E-2,4.453998387E-2
8.086619121E0,1.863241196E-2,-1.128385495E-2,4.605007172E-2,5.094213642E-2
8.096618654E0,-2.429500222E-3,-1.804777537E-3,5.802536011E-2,5.810423486E-2
8.106618654E0,1.233379543E-2,-6.259638350E-3,6.042194366E-2,6.198481151E-2
8.116618654E0,-8.805893362E-3,-6.119035650E-3,6.760787964E-2,6.845298930E-2
8.126618654E0,8.406236768E-3,-8.535638452E-3,3.887939453E-2,4.068327985E-2
8.136618654E0,1.838006079E-2,-6.478395313E-3,9.634590149E-2,9.829714632E-2
8.146618654E0,1.865990460E-2,-6.624523550E-3,9.634780884E-2,9.836145902E-2
8.156618654E0,-4.805184901E-3,2.527094260E-2,-1.550474167E-1,1.571668278E-1
8.166618654E0,3.141091019E-2,-1.151009090E-2,1.825485229E-1,1.855884983E-1
8.176618654E0,1.941283047E-2,-1.948079094E-3,2.452564240E-2,3.133943417E-2
8.186619120E0,1.937200129E-2,5.628279410E-3,7.001686096E-2,7.286503127E-2
8.196619120E0,1.942341775E-2,1.533253584E-3,8.677673340E-2,8.893717717E-2
8.206619120E0,2.794966102E-2,6.926232949E-3,6.290149689E-2,6.917914834E-2
8.216619120E0,-1.872740686E-3,1.731164404E-3,1.395730972E-1,1.395963952E-1
8.226619120E0,3.397209942E-2,-3.324632766E-3,2.708530426E-2,4.357488301E-2
8.236618653E0,2.016468346E-2,-2.860923484E-2,1.516160965E-1,1.556038030E-1
8.246618653E0,2.914347500E-2,5.617775954E-3,-2.314758301E-2,3.763923672E-2
8.256618653E0,4.697252065E-2,-1.637561247E-2,8.939361572E-2,1.023024775E-1
8.266618653E0,4.223773628E-2,3.532898379E-3,5.595207214E-3,4.275294237E-2
8.276618653E0,-1.805076748E-2,-1.092213858E-2,6.305313110E-2,6.648925221E-2
8.286618653E0,3.688491136E-2,3.871587804E-3,6.783962250E-2,7.731558872E-2
8.296619086E0,1.471005380E-2,-1.032129116E-2,8.698844910E-2,8.882513727E-2
8.306619086E0,5.008770898E-2,-1.213684864E-2,7.261657715E-2,8.904633043E-2
8.316619086E0,3.203990310E-2,-2.642191947E-3,1.180953979E-1,1.223930537E-1
8.326619086E0,5.449486524E-2,2.341538854E-2,-4.712486267E-2,7.575436251E-2
8.336619086E0,4.808523878E-2,-2.663380932E-3,-4.474544525E-2,6.573765023E-2
8.346618652E0,1.491253078E-2,-1.606380381E-2,2.569150925E-1,2.578483936E-1
8.356618652E0,1.775202155E-2,2.924306318E-3,4.620075226E-2,4.958019106E-2
8.366618652E0,1.171737909E-2,1.871377975E-2,-7.591724396E-2,7.906282600E-2
8.376618652E0,2.487494797E-2,1.873436198E-2,8.209705353E-2,8.780470120E-2
8.386618652E0,2.558555454E-2,-1.274112612E-3,4.138088226E-2,4.866848447E-2
8.396618652E0,-4.683114588E-3,9.452626109E-3,-3.285408020E-2,3.450614856E-2
8.406618652E0,2.541437745E-2,2.225588635E-2,-1.022939682E-1,1.077277633E-1
8.416618652E0,-2.146527171E-3,2.685483918E-2,-4.005336761E-2,4.827071807E-2
8.426618652E0,1.825439930E-2,-9.492185898E-3,5.091667175E-2,5.491659266E-2
8.436619118E0,3.336572275E-2,-2.055547386E-2,2.041330338E-1,2.078607573E-1
8.446619118E0,1.460895687E-2,-7.209287491E-3,7.003593445E-2,7.190568518E-2
8.456619118E0,2.050731331E-2,5.580802914E-3,2.692794800E-2,3.430465921E-2
8.466619118E0,7.586441934E-3,-2.188706957E-2,1.226930618E-1,1.248606637E-1
8.476619118E0,-2.831369638E-3,8.842313662E-3,5.085849762E-2,5.169903234E-2
8.486618651E0,6.549812853E-3,1.366755739E-2,-6.406688690E-2,6.583515908E-2
8.496618651E0,-2.259229869E-2,-1.431728620E-2,-3.054904938E-2,4.060346121E-2
8.506618651E0,-2.498161048E-2,-4.754552990E-2,3.692951202E-1,3.731803105E-1
8.516618651E0,-4.927787185E-2,-5.850754306E-2,3.094339371E-1,3.187488081E-1
8.526618651E0,4.264089838E-2,1.731106639E-2,-1.287126541E-1,1.366925988E-1
8.536618651E0,-1.191557199E-2,1.242076978E-3,3.649711609E-2,3.841305890E-2
8.546619084E0,3.212019801E-4,-9.635072201E-3,1.442403793E-1,1.445621832E-1
8.556619084E0,5.845427513E-4,1.071967557E-2,5.325984955E-2,5.433106578E-2
8.566619084E0,3.278076649E-3,7.228519768E-3,2.931976318E-2,3.037508515E-2
8.576619084E0,6.037980318E-3,1.129300799E-3,1.256275177E-2,1.398410736E-2
8.586619084E0,6.176717579E-3,5.150539801E-5,1.256465912E-2,1.400089824E-2
8.596618650E0,1.303023100E-2,1.838717237E-2,-2.814006805E-2,3.605188563E-2
8.606618650E0,5.280368030E-3,1.114524622E-2,5.805015564E-2,5.934576118E-2
8.616618650E0,2.133437246E-2,-9.550435469E-3,9.156322479E-2,9.449968466E-2
8.626618650E0,2.292861417E-2,8.034707978E-3,-2.336788177E-2,3.370957992E-2
8.636618650E0,-5.680310726E-2,9.437375516E-2,-3.154745102E-1,3.341514106E-1
8.646618650E0,-4.042371362E-2,-3.704005107E-2,1.825304031E-1,1.905869620E-1
8.656618650E0,2.473439649E-2,3.013492189E-2,-1.622409821E-1,1.668593424E-1
8.666618650E0,1.784870028E-2,-2.052413858E-2,1.466226578E-1,1.491241769E-1
8.676618650E0,2.479598299E-2,-7.150871679E-4,7.958126068E-2,8.335783810E-2
8.686619116E0,2.689734101E-3,-5.481807515E-3,2.960205078E-3,6.785845362E-3
8.696619116E0,-9.221546352E-3,1.972364262E-3,6.760597229E-2,6.826049097E-2
8.706619116E0,9.752973914E-3,5.671652965E-3,6.281566620E-2,6.382081218E-2
8.716619116E0,1.187931001E-2,1.340724295E-3,1.013946533E-2,1.567559585E-2
8.726619116E0,1.161003113E-2,3.186770249E-3,5.323505402E-2,5.457947694E-2
8.736618649E0,1.591425389E-2,-8.791022003E-3,3.168296814E-2,3.652883813E-2
8.746618649E0,-1.042019576E-2,1.015919726E-3,5.083656311E-2,5.190345578E-2
8.756618649E0,-8.539557457E-4,6.332525518E-3,5.562496185E-2,5.599077157E-2
8.766618649E0,6.367056072E-2,-2.182945982E-2,-1.838684082E-3,6.733384273E-2
8.776618649E0,-9.582240880E-2,-6.973247975E-3,5.800819397E-2,1.122297233E-1
8.786618649E0,2.160988748E-3,-7.956055924E-3,3.406333923E-2,3.504682265E-2
8.796619082E0,-2.620071173E-3,-2.520864946E-4,-1.621627808E-2,1.642851165E-2
8.806619082E0,1.186619699E-2,6.025795359E-3,6.758403778E-2,6.888192073E-2
8.816619082E0,9.586572647E-3,-1.242040540E-3,5.332946777E-3,1.104017034E-2
8.826619082E0,1.459866762E-4,-1.179233193E-2,7.476902008E-2,7.569337335E-2
8.836619082E0,-1.896002144E-2,-1.183044538E-2,4.364299774E-2,4.903216396E-2
8.846618648E0,2.556219697E-4,1.639688015E-2,2.942085266E-3,1.666069887E-2
8.856618648E0,2.651542425E-3,-9.702399839E-4,3.167343140E-2,3.179902985E-2
8.866618648E0,-2.072483301E-3,1.841209270E-2,3.885555267E-2,4.304711742E-2
8.876618648E0,1.750596613E-2,3.615076188E-3,1.731109619E-2,2.488376333E-2
8.886618648E0,5.472801626E-3,-5.792016163E-3,6.040668488E-2,6.093001384E-2
8.896618648E0,3.019459546E-3,-1.001342852E-2,6.280136108E-2,6.366629281E-2
8.906618648E0,-7.083021104E-3,-5.005891435E-3,6.519222260E-2,6.576666347E-2
8.916618648E0,-7.030338049E-3,1.167117897E-2,7.237434387E-2,7.364569046E-2
8.926618648E0,9.795568883E-3,-3.243096406E-3,2.449035645E-2,2.657533448E-2
8.936619114E0,-7.213048637E-3,8.846898563E-4,2.448940277E-2,2.554489371E-2
8.946619114E0,4.837870598E-3,4.993730690E-3,5.322074890E-2,5.367299555E-2
8.956619114E0,-1.906178147E-2,1.407273300E-2,3.406715393E-2,4.149655773E-2
8.966619114E0,3.231599927E-3,1.129336189E-3,2.947807312E-3,4.517544274E-3
8.976619114E0,1.040674746E-2,5.229522474E-3,2.210235596E-2,2.498324312E-2
8.986618647E0,-1.399303973E-2,-7.009382360E-3,6.758975983E-2,6.937803857E-2
8.996618647E0,2.824321389E-3,5.003467668E-3,3.407096863E-2,3.455202430E-2
9.006618647E0,2.812556922E-3,9.482439607E-3,3.407096863E-2,3.547757095E-2
9.016618647E0,-1.160341501E-2,-7.132296450E-3,3.646469116E-2,3.892534642E-2
9.026618647E0,-8.930973709E-3,-6.838248577E-3,4.364871979E-2,4.507476760E-2
9.036618647E0,-6.595894694E-3,1.511060447E-2,3.407096863E-2,3.785058913E-2
9.046619080E0,-1.096430421E-2,3.086884506E-3,6.280612946E-2,6.383067225E-2
9.056619080E0,8.076049387E-3,1.342025399E-2,4.364967346E-2,4.637477530E-2
9.066619080E0,1.294058561E-2,-7.925329730E-3,5.801677704E-2,5.996845859E-2
9.076619080E0,-3.992840648E-3,2.472369000E-3,5.322647095E-2,5.343325364E-2
9.086619080E0,3.077998757E-3,1.492592692E-2,3.885936737E-2,4.174096074E-2
9.096618646E0,1.738907397E-2,-6.099476945E-3,5.561828613E-2,5.859161429E-2
9.106618646E0,1.739192009E-2,-5.535531789E-3,5.561828613E-2,5.853643950E-2
9.116618646E0,-2.450786531E-3,-1.254441310E-2,7.955646515E-2,8.057667033E-2
9.126618646E0,-2.383768559E-3,-1.208863966E-2,7.955741882E-2,8.050590321E-2
9.136618646E0,6.713472307E-3,-2.562480047E-3,4.603385925E-2,4.659134267E-2
9.146618646E0,-4.143044353E-4,6.992872804E-3,3.645706177E-2,3.712397165E-2
9.156618646E0,2.112722024E-2,-2.094870433E-4,5.561065674E-2,5.948906171E-2
9.166618646E0,8.525822312E-2,-9.929494932E-3,-7.368373871E-2,1.131231755E-1
9.176619146E0,-4.347457737E-2,-2.171337418E-2,1.609430313E-1,1.681195076E-1
9.186619612E0,2.756398916E-2,2.569156513E-2,-1.623916626E-2,4.103097047E-2
9.196619612E0,-1.645553112E-2,1.154752728E-2,-4.497623444E-2,4.926450603E-2
9.206619612E0,7.088996470E-3,-3.821094986E-3,8.670616150E-2,8.707934933E-2
9.216619612E0,4.211492836E-3,1.154345647E-2,-3.540611267E-2,3.747773837E-2
9.226619612E0,-7.696323097E-3,1.355727785E-3,8.670330048E-2,8.705477414E-2
9.236619145E0,1.550391316E-3,-3.308003535E-3,3.402709961E-2,3.422265490E-2
9.246619145E0,-1.521011442E-2,1.773780398E-2,4.360389709E-2,4.946996172E-2
9.256619145E0,-3.176540136E-3,-1.322247926E-2,7.712459564E-2,7.831428744E-2
9.266619145E0,-1.748950779E-2,2.260900661E-2,3.163337708E-2,4.263473476E-2
9.276619145E0,4.480592906E-3,-9.178292938E-3,6.036758423E-2,6.122550122E-2
9.286619145E0,-7.547855377E-3,-1.127902139E-2,3.402996063E-2,3.663638444E-2
9.296619578E0,7.464990020E-3,1.254578121E-2,4.121780396E-2,4.372676600E-2
9.306619578E0,-2.054639161E-3,-1.614438370E-2,5.318927765E-2,5.562339367E-2
9.316619578E0,-1.997232437E-3,5.445408635E-3,3.643035889E-2,3.688919166E-2
9.326619578E0,4.061162472E-4,-1.140169613E-2,3.642940521E-2,3.817414268E-2
9.336619578E0,-1.402364671E-2,-8.899375796E-3,4.361152649E-2,4.666719190E-2
9.346619144E0,-2.054475248E-3,-4.004959017E-3,3.403472900E-2,3.433108422E-2
9.356619144E0,-4.386603832E-3,9.486540221E-4,4.600715637E-2,4.622554137E-2
9.366619144E0,-6.767019629E-3,-6.197786424E-3,2.924728394E-2,3.065303784E-2
9.376619144E0,7.594063878E-3,5.817477126E-3,4.840183258E-2,4.933812160E-2
9.386619144E0,3.423318267E-4,1.298437081E-2,3.164100647E-2,3.420328006E-2
9.396585810E0,-9.161293507E-3,-1.098633558E-2,4.840183258E-2,5.047144009E-2
9.406552943E0,2.240519226E-2,5.943023600E-3,5.079841614E-2,5.583718521E-2
9.416519609E0,3.241702914E-3,-8.502688259E-3,3.164482117E-2,3.292717802E-2
9.426486275E0,-6.821699440E-3,3.735741135E-3,2.206325531E-2,2.339398598E-2
9.436452941E0,-2.074256539E-3,-3.221601713E-3,5.318927765E-2,5.332710863E-2
9.446419607E0,-9.148702025E-3,1.966133015E-3,3.164100647E-2,3.299572273E-2
9.456386273E0,2.450019121E-2,4.814635962E-3,7.699012756E-3,2.612881333E-2
9.466352939E0,-1.364517212E-2,-7.114421576E-3,8.192253113E-2,8.335530471E-2
9.476319105E0,-1.792646945E-3,5.316843162E-4,3.882408142E-2,3.886908244E-2
9.486285305E0,1.265095174E-2,4.599365348E-4,6.755638123E-2,6.873225419E-2
9.496251971E0,-1.136286557E-2,5.337949842E-3,4.840183258E-2,5.000345808E-2
9.506218637E0,5.405984819E-3,2.946652530E-4,4.361248016E-2,4.394724025E-2
9.516185303E0,1.210839301E-2,-1.701752469E-2,5.797576904E-2,6.162304053E-2
9.526151969E0,-2.245768905E-3,-7.465607487E-3,2.684974670E-2,2.795867792E-2
9.536118635E0,-9.531855583E-3,-2.616988961E-3,4.121589661E-2,4.238460847E-2
9.546085301E0,-1.431135088E-2,-7.492312696E-3,2.924442291E-2,3.340936673E-2
9.556051967E0,-2.155847102E-2,1.878553256E-2,4.121589661E-2,5.016387186E-2
9.566018633E0,-4.670277238E-3,-7.767150179E-3,4.839897156E-2,4.924023314E-2
9.575985299E0,-4.736751318E-3,-7.721084636E-3,4.839897156E-2,4.923933802E-2
9.585951965E0,-1.150411367E-2,-7.730667479E-3,3.643035889E-2,3.897792837E-2
9.595918198E0,-2.307366580E-2,1.967911841E-3,4.601001740E-2,5.150911018E-2
9.605884864E0,-1.077495515E-3,4.382229410E-3,3.882980347E-2,3.909115716E-2
9.615851530E0,-1.782616973E-2,2.334385738E-2,4.840755463E-2,5.662154492E-2
9.625818196E0,-5.081668496E-3,3.794241231E-3,4.122924805E-2,4.171415246E-2
9.635784862E0,-4.638880491E-3,5.917601753E-3,4.602050781E-2,4.663072337E-2
9.645751528E0,-6.314896047E-3,-3.866824787E-3,4.841995239E-2,4.898287492E-2
9.655718261E0,-2.256993204E-2,-1.578853000E-3,3.166484833E-2,3.891731271E-2
9.665684927E0,-9.662009776E-3,1.516403817E-2,4.843044281E-2,5.166052920E-2
9.675651593E0,5.080081522E-3,-4.047873430E-3,4.603862762E-2,4.649459905E-2
9.685618259E0,7.711499929E-4,6.229177816E-4,5.801391602E-2,5.802238491E-2
9.695618259E0,-1.124858111E-2,2.204274200E-2,4.364776611E-2,5.017509879E-2
9.705617792E0,-1.535162330E-2,4.542579874E-3,4.125785828E-2,4.425514930E-2
9.715617792E0,-8.111387491E-3,-4.993867129E-3,5.562400818E-2,5.643370980E-2
9.725617792E0,1.528351605E-1,-2.903170884E-2,-1.550683975E-1,2.196534414E-1
9.735617792E0,-9.470149875E-3,-2.397318743E-2,1.920881271E-1,1.938098193E-1
9.745617792E0,3.730754182E-2,2.675902285E-2,-5.213642120E-2,6.947016911E-2
9.755617792E0,-9.230539203E-3,1.751756668E-2,-8.326816559E-2,8.559004263E-2
9.765617792E0,-1.019665599E-2,-1.419712324E-3,1.250267029E-1,1.254498458E-1
9.775617792E0,3.506161273E-3,-1.287035272E-2,-6.891441345E-2,7.019355759E-2
9.785617792E0,-1.639533043E-2,-3.785204515E-2,1.848745346E-1,1.894206370E-1
9.795617792E0,-4.663206637E-3,6.780963391E-3,4.600429535E-2,4.673459266E-2
9.805617792E0,1.915996894E-2,-2.694525942E-2,7.234096527E-2,7.953846033E-2
9.815617792E0,3.307858482E-2,1.184635982E-2,1.345882416E-1,1.390989712E-1
9.825617792E0,-5.832672119E-3,1.982230507E-2,-1.864910126E-2,2.783402271E-2
9.835617792E0,8.522577584E-3,-2.196566202E-2,9.867095947E-2,1.014449746E-1
9.845617792E0,9.321048856E-4,-6.733527873E-3,-1.892089844E-3,7.056147753E-3
9.855617792E0,5.321189761E-3,2.784625860E-3,4.599189758E-2,4.638236567E-2
9.865617792E0,-1.654789224E-2,-3.690554760E-3,3.880596161E-2,4.234802933E-2
9.875617792E0,-4.631757736E-3,9.514235426E-4,-4.290580750E-3,6.384940850E-3
9.885617792E0,-7.079120725E-3,-6.483656354E-3,6.753730774E-2,6.821612483E-2
9.895617792E0,-1.192929223E-2,8.219565265E-3,3.641223907E-2,3.918826892E-2
9.905618258E0,-7.083483040E-3,-3.877654439E-3,6.274890900E-2,6.326640116E-2
9.915618258E0,-4.812836647E-3,1.251223963E-3,5.795955658E-2,5.817249485E-2
9.925618258E0,-9.598802775E-3,2.781788260E-2,2.443981171E-2,3.825279079E-2
9.935618258E0,2.824209630E-3,1.053197309E-2,6.993389130E-2,7.077886527E-2
9.945618258E0,-1.166973263E-2,1.074817777E-2,3.162574768E-2,3.538211273E-2
9.955618191E0,-4.028558731E-3,-1.147563290E-2,5.557060242E-2,5.688594984E-2
9.965618191E0,-3.631651402E-3,-6.857126951E-3,2.923583984E-2,3.024803156E-2
9.975618191E0,-1.110829413E-3,7.733430248E-3,3.402519226E-2,3.491065158E-2
9.985618191E0,8.920431137E-3,2.540432615E-4,4.121112823E-2,4.216628653E-2
9.995618191E0,-1.013016701E-2,5.293964641E-4,3.642272949E-2,3.780893767E-2
1.000561819E1,-1.007275283E-2,5.707148812E-4,3.642368317E-2,3.779511556E-2
1.001561819E1,6.200373173E-5,-2.012319397E-3,4.360961914E-2,4.365606665E-2
1.002561819E1,-9.453155100E-3,-2.014415571E-3,4.360961914E-2,4.466787316E-2
1.003561819E1,-2.279564738E-3,5.088157952E-3,5.797576904E-2,5.824324478E-2
1.004561819E1,3.107830882E-3,-9.523496963E-3,5.319118500E-2,5.412631309E-2
1.005561819E1,-4.151001573E-3,1.661207713E-2,3.882503510E-2,4.243318596E-2
1.006561819E1,-6.595931947E-3,-2.667512000E-2,4.361248016E-2,5.154722855E-2
1.007561819E1,-1.345472783E-2,-4.766319413E-3,3.403854370E-2,3.691029611E-2
1.008561819E1,8.084505796E-3,-7.240639534E-3,4.601001740E-2,4.727269609E-2
1.009561819E1,-3.893800080E-3,2.318371553E-3,4.840469360E-2,4.861636441E-2
1.010561819E1,-3.820396960E-3,2.290809760E-3,2.685546875E-2,2.722240702E-2
1.011561819E1,-5.881488323E-3,-1.180214155E-2,3.643608093E-2,3.874881216E-2
1.012561819E1,-7.992990315E-3,-8.990311995E-3,5.319786072E-2,5.454104866E-2
1.013561819E1,9.003706276E-3,-1.821617037E-2,3.883266449E-2,4.382774716E-2
1.014561819E1,-1.012231410E-2,-3.274071496E-3,4.601669312E-2,4.723046508E-2
1.015561869E1,-1.475894451E-2,4.312461242E-3,2.925777435E-2,3.305209714E-2
1.016561869E1,-1.444649696E-2,2.136235824E-3,4.601955414E-2,4.828109507E-2
1.017561869E1,2.756491303E-3,-4.982498940E-3,3.883934021E-2,3.925452697E-2
1.018561869E1,-3.746457398E-3,7.404093631E-3,2.447891235E-2,2.584712161E-2
1.019561869E1,6.299056113E-3,7.479450665E-3,4.603099823E-2,4.705818832E-2
1.020561822E1,6.308086216E-3,2.098798286E-4,3.645420074E-2,3.699655056E-2
1.021561822E1,-1.039915532E-2,-2.267020289E-3,5.321407318E-2,5.426803292E-2
1.022561822E1,3.966532648E-3,-7.055480964E-3,3.645420074E-2,3.734195957E-2
1.023561822E1,1.109878719E-2,-2.289556433E-3,4.842472076E-2,4.973307478E-2
1.024561822E1,6.243750453E-3,1.451643463E-2,3.884696960E-2,4.193802978E-2
1.025561822E1,1.114931703E-2,7.310601883E-3,3.645420074E-2,3.881573034E-2
1.026561822E1,6.369844079E-3,-1.432504877E-2,5.560779572E-2,5.777550415E-2
1.027561822E1,4.030689597E-3,-4.768424667E-3,5.560874939E-2,5.595817493E-2
1.028561822E1,6.358221173E-3,2.623583190E-2,5.560779572E-2,6.181401780E-2
1.029561822E1,5.956061184E-3,1.380856708E-2,6.039333344E-2,6.223749604E-2
1.030561822E1,5.353942513E-3,1.315536443E-2,6.038951874E-2,6.203726531E-2
1.031561822E1,2.904459834E-3,-2.529959381E-2,3.884029388E-2,4.644430818E-2
1.032561822E1,-1.673426479E-2,-6.318652071E-3,7.714557648E-2,7.919217734E-2
1.033561822E1,-4.969254136E-3,3.546223510E-3,5.080699921E-2,5.117245701E-2
1.034561822E1,-7.244102657E-3,-1.078000385E-2,4.601955414E-2,4.781720265E-2
1.035561822E1,-4.783667624E-3,-1.355491951E-2,6.756782532E-2,6.907988374E-2
1.036561822E1,-6.975516677E-3,3.632655367E-3,2.447319031E-2,2.570585657E-2
1.037561822E1,2.773337066E-3,1.043725479E-2,3.405094147E-2,3.572246213E-2
1.038561822E1,-6.735153496E-3,1.490711048E-2,2.207946777E-2,2.747884882E-2
1.039561822E1,-1.141373813E-2,7.515565958E-3,6.278419495E-2,6.425427834E-2
1.040561872E1,2.216812596E-2,1.230185293E-2,5.321502686E-3,2.590520768E-2
1.041561872E1,2.469528466E-2,-2.323253080E-3,6.278514862E-2,6.750725499E-2
1.042561872E1,1.271948218E-2,2.676557750E-3,3.166007996E-2,3.422440432E-2
1.043561872E1,-4.605390131E-3,7.132427767E-3,4.123306274E-2,4.209805943E-2
1.044561872E1,-6.985895336E-3,-7.196227554E-3,4.841613770E-2,4.944401697E-2
1.045561822E1,2.524644136E-3,3.284510603E-5,3.404903412E-2,3.414251940E-2
1.046561822E1,-2.316735685E-3,-7.234782912E-3,4.123115540E-2,4.192514190E-2
1.047561822E1,-4.779919982E-3,4.720651545E-3,4.601955414E-2,4.650732791E-2
1.048561822E1,-9.575381875E-3,2.307870658E-3,4.123115540E-2,4.239130076E-2
1.049561822E1,-1.436375082E-2,9.658564813E-3,4.601955414E-2,4.916710867E-2
1.050561822E1,-1.201061904E-2,3.065292258E-4,3.644275665E-2,3.837217016E-2
1.051561822E1,1.367926598E-5,9.968388826E-3,4.601955414E-2,4.708681690E-2
1.052561822E1,-1.685358584E-3,1.203879062E-2,3.405380249E-2,3.615846204E-2
1.053561822E1,1.753093675E-2,7.415742613E-3,4.602527618E-2,4.980615454E-2
1.054561822E1,1.759090647E-2,1.008092519E-2,2.208232880E-2,2.997823024E-2
1.055561822E1,-4.072599113E-3,-2.140498720E-3,6.517982483E-2,6.534200305E-2
1.056561822E1,7.710345089E-3,2.425765852E-3,2.686882019E-2,2.805828327E-2
1.057561822E1,-1.144367456E-2,-9.377733804E-3,4.123497009E-2,4.380892988E-2
1.058561822E1,-1.869349927E-2,-1.701724902E-2,5.320549011E-2,5.890549938E-2
1.059561822E1,2.963036299E-3,-1.678521745E-2,4.362869263E-2,4.684000351E-2
1.060561822E1,-1.591282338E-2,-4.184809513E-3,4.123687744E-2,4.439831798E-2
1.061561822E1,-1.591504365E-2,-4.079145379E-3,4.123687744E-2,4.438927914E-2
1.062561822E1,-1.615867019E-3,1.512104739E-2,3.884220123E-2,4.171299194E-2
1.063561822E1,1.041524112E-2,-1.350709330E-2,3.644847870E-2,4.024189877E-2
1.064561822E1,3.232568502E-3,3.420405323E-3,4.841995239E-2,4.864812906E-2
1.065561872E1,8.039668202E-3,-3.601657227E-3,5.081462860E-2,5.157261560E-2
1.066561872E1,-8.848786354E-3,-8.342038840E-3,2.447700500E-2,2.733156428E-2
1.067561872E1,-4.110798240E-3,8.394885808E-3,3.165912628E-2,3.301019610E-2
1.068561872E1,-4.117570817E-3,1.812105253E-2,3.405284882E-2,3.879334282E-2
1.069561872E1,-6.514005363E-3,2.301528305E-2,4.362964630E-2,4.975622128E-2
1.070561822E1,1.037177444E-2,-1.813262329E-2,4.602527618E-2,5.054395889E-2
1.071561822E1,-8.786819875E-3,-3.555258736E-3,4.602527618E-2,4.699121318E-2
1.072561822E1,3.187015653E-3,1.343449205E-2,5.560207367E-2,5.729077798E-2
1.073561822E1,3.120474517E-3,1.348031033E-2,5.560207367E-2,5.729787713E-2
1.074561822E1,-3.638155758E-3,-3.878665855E-3,6.997108459E-2,7.017287870E-2
1.075561822E1,3.974072635E-3,8.287741803E-3,3.884792328E-2,3.992043412E-2
1.076561822E1,1.602353156E-2,2.514429390E-2,3.166675568E-2,4.349451109E-2
1.077561822E1,2.084166929E-2,-1.353117544E-2,9.870624542E-2,1.017860048E-1
1.078561822E1,3.478695452E-2,-1.839246135E-3,3.166294098E-2,4.707501315E-2
1.079561822E1,-4.230797291E-3,-3.540599719E-2,1.537656784E-1,1.578460267E-1
1.080561822E1,-1.348555088E-6,1.138502080E-2,-9.047508240E-3,1.454221805E-2
1.081561822E1,1.442807913E-2,-8.379995823E-3,1.058769226E-1,1.071835647E-1
1.082561822E1,2.450533211E-3,1.638214476E-2,5.292892456E-4,1.657286720E-2
1.083561822E1,-7.071629167E-3,-5.664223572E-4,6.756877899E-2,6.794018448E-2
1.084561822E1,-5.145698786E-3,1.132921688E-2,1.728630066E-2,2.129895682E-2
1.085561822E1,-7.675938308E-3,3.505330067E-3,3.883361816E-2,3.973987000E-2
1.086561822E1,-1.245497167E-2,-5.656430032E-3,2.920150757E-3,1.398745154E-2
1.087561822E1,9.086787701E-3,1.675486332E-3,4.601669312E-2,4.693520012E-2
1.088561822E1,-1.472718269E-2,6.750725675E-3,3.644084930E-2,3.987979068E-2
1.089561822E1,-7.482253015E-3,-5.055569112E-3,3.404617310E-2,3.522335577E-2
1.090561872E1,7.427237928E-3,-1.246396359E-2,5.320549011E-2,5.514833116E-2
1.091561872E1,-6.873905659E-3,-9.842394851E-3,5.559921265E-2,5.688053940E-2
1.092561872E1,-9.277313948E-3,-2.572270809E-3,5.320549011E-2,5.406948594E-2
1.093561872E1,-1.406336576E-2,2.445468446E-3,2.926254272E-2,3.255848552E-2
1.094561872E1,-1.604199409E-2,-1.894465834E-2,5.081367493E-2,5.655329534E-2
1.095561822E1,-3.948897123E-3,-1.166071929E-2,2.447795868E-2,2.739957343E-2
1.096561822E1,-5.722887814E-3,1.053470839E-2,4.124259949E-2,4.294977926E-2
1.097558489E1,1.627811790E-2,-1.070170105E-2,4.603385925E-2,4.998619535E-2
1.098555156E1,1.154928654E-2,-8.203895763E-3,4.363918304E-2,4.588102246E-2
1.099551822E1,-1.971352100E-2,-1.714265347E-2,5.321598053E-2,5.928266241E-2
1.100548489E1,1.956753433E-3,-5.070501473E-3,5.082321167E-2,5.111298968E-2
1.101545202E1,-2.643108368E-3,-6.907270290E-3,4.843044281E-2,4.899187887E-2
1.102541869E1,4.707820714E-3,1.052272320E-2,4.843235016E-2,4.978537758E-2
1.103538535E1,7.118247449E-3,-8.532784879E-3,3.885459900E-2,4.041234623E-2
1.104535202E1,2.116598189E-3,-3.307966981E-3,6.040191650E-2,6.052944862E-2
1.105531869E1,-1.937213540E-2,6.372446194E-3,3.885364532E-2,4.388044502E-2
1.106528535E1,4.644118249E-3,-1.280932967E-2,3.885459900E-2,4.117434425E-2
1.107525202E1,-1.196151227E-2,-4.993155133E-3,2.449035645E-2,2.770896845E-2
1.108521868E1,7.185786963E-3,1.414253004E-2,4.603862762E-2,4.869498869E-2
1.109518535E1,-1.680751890E-2,-5.034519359E-3,3.406715393E-2,3.831983890E-2
1.110515202E1,-1.202348620E-2,-1.696202531E-2,3.885555267E-2,4.406845240E-2
1.111511868E1,7.748499513E-3,-1.175591163E-2,4.125499725E-2,4.359146134E-2
1.112508581E1,-1.619249582E-3,3.223012201E-3,4.604530334E-2,4.618635878E-2
1.113505248E1,-1.126056910E-2,-1.342890598E-2,4.604530334E-2,4.926769623E-2
1.114501915E1,-1.316761225E-2,-2.226717398E-2,4.365444183E-2,5.074370248E-2
1.115498581E1,-7.999718189E-3,-4.402175546E-5,5.084037781E-2,5.146592508E-2
1.116495248E1,1.408410817E-2,1.741589978E-2,3.408527374E-2,4.078580089E-2
1.117491914E1,-9.442873299E-3,-6.201380864E-3,4.606056213E-2,4.742573526E-2
1.118488581E1,5.409710109E-3,1.575077698E-2,4.127597809E-2,4.450908116E-2
1.119485248E1,1.743850112E-2,6.215278059E-3,3.648757935E-2,4.091545489E-2
1.120481864E1,1.491329074E-2,6.201900542E-3,5.324745178E-2,5.564315710E-2
1.121478531E1,1.444248110E-2,5.897232331E-3,5.324363708E-2,5.548195652E-2
1.122475197E1,-1.435781270E-2,2.503592893E-2,4.366493225E-2,5.234090973E-2
1.123471864E1,-7.134221494E-3,3.655608743E-4,3.408718109E-2,3.482767098E-2
1.124468531E1,4.791110754E-3,2.993158996E-4,3.408718109E-2,3.442354205E-2
1.125465197E1,2.387880161E-2,-2.120293304E-2,5.084705353E-2,6.004318770E-2
1.126461911E1,1.868806779E-3,-1.407684479E-2,5.323791504E-2,5.509923408E-2
1.127461911E1,-1.243728399E-2,-6.958056241E-3,4.126739502E-2,4.365888766E-2
1.128461910E1,-1.250620931E-2,-6.973528303E-3,4.126548767E-2,4.367923810E-2
1.129461910E1,-6.497055292E-4,4.915356636E-3,5.084228516E-2,5.108346903E-2
1.130461910E1,4.209831357E-3,9.446849115E-3,4.365921021E-2,4.486749685E-2
1.131461864E1,8.809812367E-3,-2.914401703E-3,4.365825653E-2,4.463350641E-2
1.132461864E1,2.072116360E-2,1.580171287E-2,4.605102539E-2,5.291273656E-2
1.133461864E1,1.113228500E-2,-1.563346013E-2,5.802249908E-2,6.111418203E-2
1.134461864E1,-8.701451123E-3,5.835494027E-3,2.689170837E-2,2.886056516E-2
1.135461864E1,1.289507002E-2,1.520579867E-2,4.604625702E-2,5.017725510E-2
1.136461864E1,7.534570992E-3,-2.072865609E-3,3.646564484E-2,3.729356225E-2
1.137461910E1,1.413416862E-2,7.178365253E-3,3.406620026E-2,3.757405555E-2
1.138461910E1,4.435233772E-3,2.845782228E-2,4.843139648E-2,5.634819529E-2
1.139461910E1,2.277151123E-2,8.353527635E-3,5.081844330E-2,5.631018848E-2
1.140461910E1,1.956858858E-2,1.945539191E-2,3.884124756E-2,4.764540320E-2
1.141461910E1,-5.304619670E-3,-1.024635136E-2,5.798912048E-2,5.912583869E-2
1.142461864E1,-8.238859475E-3,-1.329623070E-2,4.361915588E-2,4.633896110E-2
1.143461864E1,-1.327572018E-2,-1.378937531E-2,3.164672852E-2,3.698522737E-2
1.144461864E1,-8.721686900E-3,1.203452703E-4,4.122161865E-2,4.213435830E-2
1.145461864E1,-3.524038941E-2,-5.039471667E-3,2.685356140E-2,4.459142384E-2
1.146461864E1,-7.081478834E-2,4.998526722E-2,2.925109863E-2,9.148162634E-2
1.147461864E1,8.879757673E-2,1.089046337E-2,2.926158905E-2,9.412678906E-2
1.148461864E1,3.592574224E-2,-8.734113537E-3,4.841423035E-2,6.091700415E-2
1.149461864E1,4.097461700E-3,-1.915756846E-3,3.883171082E-2,3.909425893E-2
1.150461864E1,6.037093699E-3,2.666616347E-3,5.798339844E-2,5.835779157E-2
1.151461870E1,7.811442018E-3,2.522517927E-3,4.600715637E-2,4.673371546E-2
1.152461870E1,-1.128765196E-2,4.896386992E-3,2.924823761E-2,3.173082248E-2
1.153461870E1,-2.293884754E-3,-5.005637649E-3,5.318737030E-2,5.347162495E-2
1.154461870E1,7.216721773E-3,9.406053461E-3,4.839897156E-2,4.982986416E-2
1.155461870E1,-7.137514651E-3,-7.378454320E-3,4.839897156E-2,4.947571274E-2
1.156461824E1,-2.351142466E-3,2.304669470E-3,3.403282166E-2,3.419169961E-2
1.157461824E1,-1.684065908E-2,-7.099909242E-3,1.248264313E-2,2.213216865E-2
1.158461824E1,5.744398758E-2,1.461408474E-2,3.882026672E-2,7.085475489E-2
1.159461824E1,-3.873783350E-2,-9.194623679E-3,1.872634888E-1,1.914491449E-1
1.160461824E1,1.651768014E-2,2.218644135E-3,-6.413459778E-2,6.626464194E-2
1.161461824E1,-7.485009730E-3,6.568667479E-3,4.600238800E-2,4.706795582E-2
1.162461870E1,-3.501474857E-4,-2.398891374E-4,5.557823181E-2,5.557985248E-2
1.163461870E1,-2.650358528E-2,1.405661926E-2,-2.103710175E-2,3.664134587E-2
1.164461870E1,1.894052774E-1,1.317886868E-3,5.303382874E-3,1.894840938E-1
1.165461870E1,-8.635835350E-2,1.682877308E-3,-2.344608307E-2,8.950036931E-2
1.166461870E1,-8.687765896E-2,9.139410686E-4,-2.345085144E-2,8.999169600E-2
1.167461824E1,1.795647293E-2,2.042799257E-2,4.837512970E-2,5.549676544E-2
1.168461824E1,-3.079002351E-2,-1.091469601E-1,6.991863251E-2,1.332279986E-1
1.169461824E1,7.687297463E-2,1.191765536E-2,1.465349197E-1,1.659034883E-1
1.170461824E1,3.776606172E-3,4.479765147E-2,-1.917839050E-3,4.499744924E-2
1.171461824E1,1.240068674E-2,-2.505227737E-2,6.751060486E-2,7.306897701E-2
1.172461824E1,1.622999832E-2,1.143329591E-2,4.356193542E-2,4.787249021E-2
1.173461824E1,-6.445433944E-3,-5.091138184E-3,1.003646851E-2,1.296896321E-2
1.174461824E1,4.977300763E-3,1.416484173E-2,8.425521851E-2,8.558246380E-2
1.175461824E1,-2.184173837E-2,-1.450162381E-4,2.679061890E-2,3.456616591E-2
1.176461870E1,-7.552158087E-3,-2.908431459E-3,5.552101135E-2,5.610772466E-2
1.177461870E1,-5.144100636E-3,4.311653785E-3,4.115581512E-2,4.169955933E-2
1.178461870E1,-3.388712183E-2,-5.575116258E-3,4.115581512E-2,5.360242593E-2
1.179461870E1,-9.524390101E-3,-8.190260269E-3,4.355144501E-2,4.532684340E-2
1.180461870E1,-6.347298622E-3,-1.056469232E-2,3.876781464E-2,4.067977846E-2
1.181461863E1,-5.807846785E-3,1.392243197E-3,4.355907440E-2,4.396660537E-2
1.182461863E1,-2.981945127E-2,-1.018358162E-3,3.398227692E-2,4.522202861E-2
1.183461863E1,-1.684933156E-2,2.563469671E-2,2.919960022E-2,4.235155608E-2
1.184461863E1,-1.838511601E-2,-7.998133078E-3,6.272411346E-2,6.585056593E-2
1.185461863E1,-5.708832294E-3,2.338635921E-2,3.399658203E-2,4.165669398E-2
1.186461863E1,-7.249463350E-3,1.819313504E-2,4.118537903E-2,4.560460862E-2
1.187461910E1,-1.887183636E-3,-1.797866635E-2,6.513214111E-2,6.759430236E-2
1.188461910E1,-3.257646784E-2,2.533119731E-2,5.316257477E-2,6.729899828E-2
1.189461910E1,-1.246989146E-2,1.054447610E-2,6.753444672E-2,6.948082946E-2
1.190461910E1,-1.400362700E-2,-2.814915590E-2,6.753921509E-2,7.449847060E-2
1.191461910E1,2.759808302E-2,9.055940807E-2,-4.113101959E-1,4.220648503E-1
1.192461863E1,3.059536219E-2,-7.221660763E-2,4.290857315E-1,4.361947725E-1
1.193461863E1,-3.649607301E-3,-2.753257379E-2,2.064123154E-1,2.082724326E-1
1.194461863E1,-3.853730857E-3,-2.718224004E-2,2.064113617E-1,2.082291422E-1
1.195461863E1,-1.803760231E-2,-4.942094535E-2,2.519035339E-1,2.573386394E-1
1.196461863E1,-1.570083201E-2,4.442072008E-3,-7.611274719E-2,7.784213778E-2
1.197461863E1,-1.062284410E-2,1.189338136E-2,3.163242340E-2,3.542467427E-2
1.198461863E1,-1.050166786E-2,8.762422018E-3,7.233524323E-2,7.361693066E-2
1.199461863E1,-1.762042195E-2,1.327572297E-2,-1.146411896E-2,2.486262483E-2
1.200461863E1,4.513062537E-3,3.081259318E-3,7.473278046E-2,7.493230523E-2
1.201461910E1,-1.423030347E-2,7.737467065E-3,-6.669998169E-3,1.751738590E-2
1.202461910E1,7.678039372E-3,-2.710765984E-4,8.910369873E-2,8.943430493E-2
1.203461910E1,-2.066403627E-3,-1.669511572E-2,6.755447388E-2,6.961755421E-2
1.204461910E1,-1.689918339E-3,7.358288392E-3,3.643226624E-2,3.720632010E-2
1.205461910E1,-2.091564238E-2,-5.722058122E-4,5.797958374E-2,6.163946501E-2
1.206461863E1,5.425743759E-3,-5.739463959E-3,4.840183258E-2,4.904199771E-2
1.207461863E1,3.517821431E-3,-6.341007538E-3,2.206897736E-2,2.322979134E-2
1.208461863E1,-6.009496748E-3,-5.264134612E-3,1.488590240E-2,1.689423732E-2
1.209461863E1,-7.780790329E-4,6.436191499E-3,6.756305695E-2,6.787338677E-2
1.210461863E1,-1.028642803E-2,1.569446735E-2,3.165054321E-2,3.679515991E-2
1.211461863E1,-2.477213740E-3,2.476377413E-2,5.316734314E-3,2.544894420E-2
1.212461910E1,-2.347292006E-2,4.794002045E-3,4.123592377E-2,4.769026987E-2
1.213461910E1,-6.464958191E-3,-6.852052175E-3,2.687168121E-2,2.847513924E-2
1.214461910E1,-1.283725351E-2,1.512466650E-2,5.081939697E-2,5.455420903E-2
1.215461910E1,-1.241911948E-2,1.568004675E-2,5.082225800E-2,5.461684999E-2
1.216461910E1,-1.182225347E-2,-5.840764381E-3,4.603767395E-2,4.788890924E-2
1.217461863E1,-3.989808261E-3,1.325910166E-2,4.843711853E-2,5.037734410E-2
1.218461863E1,-7.776465267E-2,-2.279997803E-2,1.322402954E-1,1.550956993E-1
1.219458530E1,-1.961904466E-1,-4.665734991E-2,1.250667572E-1,2.372957931E-1
1.220455196E1,-1.700717807E0,-6.693588495E-1,4.411401749E-1,1.880182699E0
1.221451863E1,-1.774860382E0,-2.179104686E-1,-2.888479233E-1,1.811366189E0
1.222448530E1,-1.634426832E0,-2.951129377E-1,-5.347623825E-1,1.744824782E0
1.223445246E1,-1.753649831E0,-2.776045501E-1,1.318422318E0,2.211467708E0
1.224441913E1,-6.586030722E-1,3.845140636E-1,-7.765827179E-1,1.088434559E0
1.225438579E1,-3.703180254E-1,6.450997591E-1,-4.748678207E-1,8.824899922E-1
1.226435246E1,-3.170773387E-1,5.613785386E-1,1.021570206E0,1.208010591E0
1.227431912E1,5.588869005E-2,4.576138854E-1,-2.401981354E-1,5.198357029E-1
1.228428579E1,7.533676028E-1,3.409386873E-1,3.368568420E-1,8.929022710E-1
1.229425246E1,9.176269770E-1,2.043797076E-1,1.644620895E-1,9.543888687E-1
1.230421912E1,1.027898550E0,1.589953154E-2,-3.048105240E-1,1.072258215E0
1.231418532E1,6.809726954E-1,1.033203527E-1,6.390762329E-2,6.917247223E-1
1.232415199E1,2.676848173E-1,7.514958084E-2,4.473972321E-2,2.816101272E-1
1.233411866E1,2.457898259E-1,1.831295714E-2,-8.215904236E-2,2.598039860E-1
1.234408559E1,-6.113695502E-1,1.418349445E-1,2.171306610E-1,6.641051140E-1
1.235405225E1,-7.891750336E-1,6.117095426E-2,3.756427765E-2,7.924330850E-1
1.236401892E1,-7.876290679E-1,6.019314378E-2,3.758430481E-2,7.908194125E-1
1.237398559E1,-1.717067003E0,7.606276870E-2,1.022577286E-1,1.721790139E0
1.238395225E1,-2.303613901E0,1.230826676E-1,2.148256302E-1,2.316880748E0
1.239391892E1,-2.245297670E0,2.006780356E-1,4.487991333E-2,2.254694549E0
1.240388558E1,-2.392895222E0,2.162385881E-1,-1.992864609E-1,2.410896465E0
1.241385225E1,-2.105854511E0,3.526899219E-1,2.102470398E-2,2.135288140E0
1.242381845E1,-3.403226376E0,2.285196930E-1,-6.397790909E-1,3.470372934E0
1.243378512E1,-2.094075203E0,4.327232242E-1,2.791253090E0,3.516176070E0
1.244375178E1,-6.333003640E-1,1.968742907E-1,-1.700362206E0,1.825119302E0
1.245371845E1,-6.592640877E-1,2.564612031E-1,9.956512451E-1,1.221361080E0
1.246368511E1,-4.334124327E-1,1.332731396E-1,-2.158451080E-1,5.021923707E-1
1.247365178E1,-6.524376273E-1,2.531043887E-1,-1.080799103E-1,7.081087177E-1
1.248361891E1,-9.726663828E-1,2.176880836E-1,-2.589054108E-1,1.029805810E0
1.249361891E1,-1.244149685E0,2.650592029E-1,3.562927246E-2,1.272569945E0
1.250361891E1,-1.282974839E0,2.227324545E-1,3.563976288E-2,1.302652823E0
1.251361891E1,-1.379325628E0,1.064886078E-1,-1.008205414E-1,1.387099057E0
1.252361891E1,-1.372136950E0,3.007897437E-1,-9.361743927E-2,1.407834687E0
1.253361841E1,-1.180187583E0,1.289041042E-1,9.365081787E-3,1.187243321E0
1.254361841E1,-1.575490355E0,1.281958967E-1,5.025930405E-1,1.658675319E0
1.255361841E1,-1.508215189E0,1.186030731E-1,-9.118843079E-2,1.515617061E0
1.256361841E1,-2.134842873E0,-5.169874430E-2,-5.987234116E-1,2.217813467E0
1.257361841E1,-2.881476402E0,-5.550233275E-2,4.332666397E-1,2.914396464E0
1.258361841E1,-2.680471659E0,7.580019534E-3,-1.006479263E-1,2.682371297E0
1.259361841E1,-2.714469194E0,-2.734121680E-1,-4.214315414E-1,2.760561857E0
1.260361841E1,-1.140777707E0,-5.269041657E-1,-5.052165985E-1,1.354343231E0
1.261361841E1,-6.586665511E-1,-6.663283706E-1,3.831481934E-2,9.377116552E-1
1.262361841E1,-3.506562114E-1,-6.400329471E-1,-6.487913132E-1,9.764896927E-1
1.263361841E1,-8.704423308E-1,-1.667937636E-1,-1.675052643E-1,9.019689709E-1
1.264361815E1,-4.680525064E-1,-2.976144850E-1,-3.134746552E-1,6.371137182E-1
1.265361815E1,-4.579931498E-1,-3.763771057E-1,1.238026619E0,1.372635188E0
1.266361815E1,-5.877498388E-1,-7.595576644E-1,7.161722183E-1,1.198031871E0
1.267361815E1,-4.578297734E-1,-9.037308693E-1,-2.175617218E-1,1.036180818E0
1.268361815E1,-5.781390071E-1,-1.019689679E0,3.450698853E-1,1.221918565E0
1.269361815E1,-3.729167879E-1,-9.381115437E-1,1.242999077E0,1.601301628E0
1.270361815E1,-3.111828864E-2,-7.806227207E-1,-4.017934799E-1,8.785090668E-1
1.271361815E1,-1.012205333E-1,-5.492907166E-1,2.087221146E-1,5.962640429E-1
1.272361815E1,-3.478109837E-1,-3.311764896E-1,2.637939453E-1,5.479394065E-1
1.273361865E1,-1.734400839E-1,-3.633607328E-1,4.218254089E-1,5.831373427E-1
1.274361865E1,4.447698593E-1,-3.142411113E-1,-2.365922928E-1,5.937538352E-1
1.275361865E1,6.355102062E-1,-3.997860849E-1,1.824131012E-1,7.726426570E-1
1.276361865E1,7.022993565E-1,-3.767977357E-1,-1.790895462E-1,8.168684014E-1
1.277361865E1,1.283227921E0,-1.703675538E-1,-3.514556885E-1,1.341350104E0
1.278361818E1,1.830529451E0,5.562852323E-2,1.486396790E-2,1.831434832E0
1.279361818E1,1.042991161E0,4.953707010E-2,9.199075699E-1,1.391587015E0
1.280361818E1,1.094931126E0,-1.258466691E-1,-8.039674759E-1,1.364212321E0
1.281361818E1,9.696228504E-1,-2.066347450E-1,5.798416138E-1,1.148513251E0
1.282361818E1,9.582158923E-1,-2.681625783E-1,5.554389954E-2,9.965811505E-1
1.283361818E1,9.310520887E-1,-2.373243272E-1,-3.060112000E-1,1.008376756E0
1.284361844E1,3.720061779E-1,-8.307659626E-2,6.133499146E-1,7.221415616E-1
1.285361844E1,2.248154879E-1,-2.641810477E-2,1.464710236E-1,2.696176563E-1
1.286361844E1,-1.756129563E-1,1.686552465E-1,4.122066498E-1,4.787471407E-1
1.287361844E1,-1.739218235E-1,4.279372394E-1,2.015447617E-1,5.039835042E-1
1.288361845E1,-9.484859705E-1,3.068525195E-1,6.539916992E-1,1.192262239E0
1.289361845E1,-6.372200251E-1,2.034289539E-1,6.612739563E-1,9.405934004E-1
1.290361845E1,-3.562750816E-1,-3.265836835E-2,-1.596462250E0,1.636059356E0
1.291361845E1,-1.048544943E-1,-1.953261346E-1,-5.429687500E-1,5.864825891E-1
1.292361844E1,-2.908645868E-1,-5.601176023E-1,4.913578033E-1,7.998540037E-1
1.293361844E1,-3.024553657E-1,-5.552950501E-1,4.291448593E-1,7.641970631E-1
1.294361844E1,-9.604845047E-1,-4.695856273E-1,1.681327820E-1,1.082270658E0
1.295361844E1,-1.555257797E0,-4.780843258E-1,-1.718139648E-1,1.636126975E0
1.296361845E1,-1.146713853E0,-3.248142600E-1,8.027200699E-1,1.436946928E0
1.297361845E1,-1.193702698E0,-8.052143455E-2,1.815684319E0,2.174423918E0
1.298361895E1,-2.357232571E-1,1.110974029E-1,-9.949302673E-2,2.789389704E-1
1.299361895E1,-3.519082069E-1,8.168253303E-2,1.517562866E-1,3.918435821E-1
1.300361895E1,-2.125274092E-1,-1.483435035E-1,-3.605327606E-1,4.440242856E-1
1.301361895E1,-1.546040326E-1,-3.090442717E-1,-2.288036346E-1,4.144416388E-1
1.302361894E1,1.411232203E-1,-8.465656638E-2,5.704180717E0,5.706554140E0
1.303361844E1,1.534572244E0,1.873970032E-1,7.899755478E0,8.049606588E0
1.304361845E1,-9.008239508E-1,-3.334755599E-1,-2.359864712E0,2.547871896E0
1.305361845E1,-1.668394923E0,-4.903274775E-1,-3.630409241E-1,1.776446275E0
1.306361845E1,-6.183790565E-1,-1.208059341E-1,-5.521507263E-1,8.377691542E-1
1.307361845E1,-6.162664890E-1,-1.233915687E-1,-5.521507263E-1,8.365884826E-1
1.308361844E1,-2.364467084E-1,4.950072616E-2,1.044830322E0,1.072393477E0
1.309361871E1,-3.491954505E-2,-4.698948562E-2,6.473503113E-1,6.499921630E-1
1.310361871E1,7.173360586E-1,1.490587592E-1,-2.241249084E-1,7.661732893E-1
1.311361871E1,8.406771421E-1,1.867545992E-1,1.085758209E-1,8.679885060E-1
1.312361871E1,1.510742903E0,2.082413733E-1,1.421251297E-1,1.531635773E0
1.313361871E1,1.129116535E0,1.300799102E-1,-2.553672791E-1,1.164919474E0
1.314361844E1,1.971439570E-1,3.365954757E-2,3.767004013E-1,4.264995865E-1
1.315361844E1,-1.552730560E0,-2.759394050E-1,3.913974762E-2,1.577544506E0
1.316361844E1,-1.964557409E0,8.771916479E-2,-3.535552979E0,4.045653882E0
1.317361844E1,-1.472748160E0,8.904438466E-2,-1.933916569E0,2.432478025E0
1.318361844E1,-1.472369075E0,9.019883722E-2,-1.933892727E0,2.432272107E0
1.319361844E1,-8.677691817E-1,6.757797301E-2,-3.800458908E-1,9.497499746E-1
1.320361844E1,-6.862661839E-1,-3.921975195E-2,-8.082485199E-2,6.921214639E-1
1.321361844E1,-1.704910398E-2,-1.171396673E-2,-3.053951263E-2,3.688564483E-2
1.322361844E1,-4.383428991E-1,-1.889252961E-1,7.188825607E-1,8.629191160E-1
1.323361894E1,-1.881195605E-2,-2.952434719E-1,-2.243986130E-1,3.713183740E-1
1.324361894E1,4.097590446E-1,-4.436494410E-1,-2.090549469E-2,6.042882929E-1
1.325361894E1,2.052188069E-1,-4.197421074E-1,5.425453186E-3,4.672554237E-1
1.326361894E1,8.632234335E-1,-2.732310295E-1,-4.757795334E-1,1.022827481E0
1.327361894E1,4.517164826E-1,-1.228466481E-1,-6.530189514E-1,8.034754698E-1
1.328361844E1,9.593801945E-2,-3.895923495E-3,4.387798309E-1,4.491625784E-1
1.329361844E1,4.287155867E-1,2.520771027E-1,-6.644535065E-2,5.017518356E-1
1.330361844E1,-1.748810410E-1,2.204431295E-1,1.255416870E-2,2.816667517E-1
1.331361844E1,-3.615234792E-2,2.388127297E-1,-5.678272247E-2,2.481184993E-1
1.332361844E1,2.207769454E-2,1.759667397E-1,-3.727893829E-1,4.128239844E-1
1.333361844E1,3.404479921E-1,-6.305409968E-2,-1.814137936E0,1.846883078E0
1.334361871E1,1.176349521E-1,-9.616533667E-2,3.070421219E-1,3.425793609E-1
1.335361871E1,-2.078387588E-1,-2.070116997E-1,-6.027603149E-1,6.703512443E-1
1.336361871E1,-1.708739400E-1,-1.890212595E-1,1.219213486E0,1.245555484E0
1.337361871E1,2.141160071E-1,-4.659187794E-1,-1.934356689E-1,5.480358852E-1
1.338361871E1,4.001819193E-1,-4.951299727E-1,6.779804230E-1,9.300304900E-1
1.339361844E1,6.218290329E-1,-6.061394215E-1,1.129283905E-1,8.756878244E-1
1.340361844E1,7.195271254E-1,-3.038594127E-1,2.828931808E-1,8.307095633E-1
1.341361844E1,1.135959625E0,-2.372811735E-1,8.192539215E-1,1.420522303E0
1.342361844E1,1.126353741E0,-2.053156793E-1,2.326669693E-1,1.168315538E0
1.343361844E1,1.024686217E0,-1.435859352E-1,-2.988700867E-1,1.076996794E0
1.344361844E1,7.253309488E-1,-8.518961072E-2,1.320562363E-1,7.421597568E-1
1.345361844E1,8.150289059E-1,-4.963289946E-2,1.233577728E-2,8.166319327E-1
1.346361844E1,1.053176880E0,-2.347368747E-2,-1.528491974E-1,1.064469554E0
1.347361844E1,8.342387676E-1,-7.385180146E-2,-8.663406372E-1,1.204970751E0
1.348361894E1,5.438866615E-1,2.971133590E-2,8.336114883E-1,9.957929391E-1
1.349361894E1,1.957114190E-1,-4.249840230E-2,-4.664316177E-1,5.076096214E-1
1.350361894E1,7.273316383E-2,-9.636612982E-2,-7.801570892E-1,7.894438726E-1
1.351361894E1,5.415047407E-1,6.633920968E-2,3.619012833E-1,6.546761137E-1
1.352361894E1,1.184308171E0,1.066045761E-1,3.127304077E0,3.345740751E0
1.353361844E1,2.307557821E0,9.193851799E-2,2.777721405E0,3.612341622E0
1.354361844E1,2.185963631E0,2.216224372E-1,-2.630643845E-1,2.212861579E0
1.355361844E1,2.110293627E0,2.414617836E-1,1.462898254E-1,2.129094572E0
1.356361844E1,1.845621586E0,2.214814872E-1,-1.075153351E-1,1.861970095E0
1.357361844E1,1.939158559E0,1.391840726E-1,-2.200984955E-1,1.956566245E0
1.358361844E1,1.591181278E0,2.587521672E-1,1.039252281E0,1.918034371E0
1.359361871E1,1.256860971E0,1.031283438E-1,-7.540674210E-1,1.469337481E0
1.360361871E1,1.015429020E0,1.728027314E-2,-4.523782730E-1,1.111773720E0
1.361361871E1,8.403640389E-1,-8.124459535E-2,4.406766891E-1,9.523698581E-1
1.362361871E1,6.141558290E-1,-2.596446872E-1,4.079914093E-2,6.680324212E-1
1.363361871E1,8.122456074E-1,-3.503596187E-1,2.993507385E-1,9.338659720E-1
1.364361844E1,6.429604292E-1,-1.728684604E-1,2.226638794E-1,7.020404698E-1
1.365361844E1,-1.386641622E0,-2.254676521E-1,-1.460647583E-1,1.412425418E0
1.366361844E1,4.226584435E-1,-2.487846017E-1,1.333479881E0,1.420810519E0
1.367361844E1,-3.906358778E-2,-1.754778624E-1,9.575576782E-1,9.742869963E-1
1.368361844E1,5.045975447E-1,-3.577091992E-1,6.453418732E-2,6.218836021E-1
1.369358511E1,6.564932466E-1,-4.039547443E-1,2.416219711E-1,8.078019529E-1
1.370355224E1,6.044531465E-1,-2.941213250E-1,1.151455879E0,1.333312267E0
1.371351891E1,1.090420246E0,-2.787701786E-1,-3.234472275E-1,1.171045360E0
1.372348557E1,9.664932489E-1,-5.434718728E-2,1.506090164E-1,9.796662150E-1
1.373345224E1,-6.569560170E-1,-2.436159253E-1,-4.896526337E0,4.946403754E0
1.374341890E1,3.072293997E-1,2.307496965E-3,5.000648499E-1,5.869072181E-1
1.375338557E1,3.196238279E-1,-1.086968407E-1,3.779439926E-1,5.067702202E-1
1.376335224E1,9.193637967E-2,-2.714024857E-2,2.988853455E-1,3.138810933E-1
1.377331890E1,1.295908391E-1,8.164139092E-2,7.993259430E-1,8.138679656E-1
1.378328507E1,-3.522714972E-1,-6.557054818E-3,-2.398118973E-1,4.262017701E-1
1.379325174E1,-5.948778987E-1,5.588844791E-2,4.329957962E-1,7.378947028E-1
1.380321840E1,-8.012277484E-1,1.984184235E-2,-2.660846710E-1,8.444883988E-1
1.381318507E1,-2.862454057E-1,3.987053782E-2,6.150035858E-1,6.795259396E-1
1.382315173E1,3.882641196E-1,1.878478229E-1,7.227315903E-1,8.416512239E-1
1.383311840E1,4.768529534E-1,-2.319581807E-3,6.197853088E-1,7.820025247E-1
1.384308553E1,1.460118413E0,2.256976068E-1,2.917327881E-1,1.505985793E0
1.385305220E1,2.151977301E0,1.961005330E-1,7.418270111E-1,2.284681386E0
1.386301886E1,1.895322084E0,6.190116405E-1,1.122536659E0,2.288123634E0
1.387298553E1,1.912018299E0,4.489592910E-1,2.462205887E-1,1.979394604E0
1.388295220E1,2.182647705E0,1.948148906E-1,1.575899124E-1,2.196983939E0
1.389291860E1,2.384016752E0,5.847700313E-2,2.246437073E-1,2.395291262E0
1.390288526E1,2.023084402E0,2.484370172E-1,-1.757873535E0,2.691600047E0
1.391285193E1,1.725141883E0,8.507259935E-2,-1.951906681E0,2.606394359E0
1.392281859E1,1.285197258E0,2.671891749E-1,1.699321747E0,2.147281175E0
1.393278526E1,9.641082287E-1,1.980544254E-2,7.584781647E-1,1.226860244E0
1.394275193E1,8.565322161E-1,1.061531231E-1,-1.657705307E-1,8.788605075E-1
1.395271909E1,1.114332676E0,1.973149925E-1,2.388429642E-1,1.156596940E0
1.396268576E1,7.119820714E-1,4.008458853E-1,-6.733589172E-1,1.058776712E0
1.397265242E1,1.063701868E0,5.569721460E-1,-1.969013214E-1,1.216737345E0
1.398261909E1,1.046036124E0,4.181107581E-1,-6.399164200E-1,1.295569837E0
1.399261909E1,2.048761845E0,1.551580727E-1,1.079165459E0,2.320796676E0
1.400261862E1,1.404401064E0,2.521459162E-1,-7.069654465E-1,1.592394440E0
1.401261862E1,1.150688171E0,2.699447274E-1,3.344964981E-1,1.228349026E0
1.402261862E1,1.069144487E0,4.201577231E-2,-1.132259369E-1,1.075943945E0
1.403261862E1,6.394746304E-1,-5.670044199E-2,-1.922569275E-1,6.701533177E-1
1.404261862E1,1.125713348E0,7.844721898E-3,4.230260849E-1,1.202598499E0
1.405261862E1,1.184047222E0,-5.239667371E-2,2.147426605E-1,1.204503070E0
1.406261862E1,1.877996564E0,-2.336387038E-1,-7.257556915E-2,1.893865188E0
1.407261862E1,1.917397380E0,-1.626011431E-1,1.624107361E-3,1.924280250E0
1.408261862E1,1.806647062E0,-1.519225985E-1,1.644268036E-1,1.820464297E0
1.409261909E1,1.497643471E0,-7.097554952E-2,-3.432054520E-1,1.538103857E0
1.410261909E1,1.055914879E0,7.210990787E-2,4.225254059E-2,1.059217328E0
1.411261909E1,9.615550041E-1,1.758723706E-2,-4.509773254E-1,1.062204258E0
1.412261909E1,1.575785995E0,-1.065883785E-1,2.432985306E-1,1.598016507E0
1.413261909E1,1.809547305E0,2.488826960E-2,2.624435425E-1,1.828649088E0
1.414261862E1,1.731451392E0,5.766011029E-2,-1.972808838E-1,1.743607857E0
1.415261862E1,1.922974467E0,-4.014033452E-2,1.546373367E-1,1.929599636E0
1.416261862E1,1.002572417E0,-2.946416438E-1,-8.959007263E-2,1.048804811E0
1.417261862E1,-1.686942577E-2,1.017828882E-1,9.473896027E-2,1.400707123E-1
1.418261862E1,6.578467786E-2,1.122578420E-2,-1.048088074E-3,6.674384287E-2
1.419261862E1,4.294975847E-2,-1.283382811E-2,3.963661194E-2,5.983686073E-2
1.420261909E1,5.883699656E-2,1.362643857E-2,2.046966553E-2,6.376895168E-2
1.421261909E1,4.350297898E-2,-9.177867323E-4,5.876445770E-2,7.312053748E-2
1.422261909E1,4.267828912E-2,8.651952259E-3,2.283763885E-2,4.917164211E-2
1.423261909E1,3.724046797E-2,6.255630404E-3,5.155944824E-2,6.390901399E-2
1.424261909E1,4.863507301E-2,1.387599856E-3,4.676342010E-2,6.748417014E-2
1.425261859E1,5.296333134E-2,2.066887729E-2,5.154514313E-2,7.674124533E-2
1.426261859E1,4.299027473E-2,-8.470565081E-4,4.675197601E-2,6.351872548E-2
1.427261859E1,3.545805067E-2,1.374573540E-2,4.914188385E-2,6.213809900E-2
1.428261859E1,3.992205113E-2,-1.231126487E-2,3.716659546E-2,5.591684207E-2
1.429261859E1,3.497878462E-2,7.303843275E-3,5.392456055E-2,6.468940972E-2
1.430261859E1,4.677481204E-2,-1.996969804E-3,4.434490204E-2,6.448520192E-2
1.431261859E1,5.384120345E-2,7.937222719E-3,4.434394836E-2,7.020157014E-2
1.432261859E1,2.944565564E-2,-1.130652614E-2,4.654598236E-2,5.622644079E-2
1.433261859E1,1.037135720E-3,5.583764054E-3,6.316947937E-2,6.342426346E-2
1.434261905E1,-2.692475915E-2,-6.843790412E-2,6.786537170E-2,1.000719644E-1
1.435261905E1,-2.360887825E-2,3.339339420E-2,4.386234283E-2,5.997001774E-2
1.436261905E1,-4.239337146E-2,-4.306254908E-2,3.478946686E-1,3.531037829E-1
1.437261905E1,6.158828735E-2,2.232372388E-2,5.097198486E-2,8.300366876E-2
1.438261905E1,1.217583343E-1,-7.035178691E-2,-9.990787506E-2,1.724994186E-1
1.439261859E1,-1.671915501E-1,-3.503393382E-2,1.634321213E-1,2.364116097E-1
1.440261859E1,-1.368377358E-2,3.024646267E-2,-4.157066345E-3,3.345706748E-2
1.441261859E1,-7.257439196E-3,-3.506638110E-3,1.107616425E-1,1.110545288E-1
1.442261859E1,-9.411677718E-3,2.837188728E-2,-1.766204834E-3,2.994433410E-2
1.443261859E1,-9.320080280E-3,-1.034576818E-2,7.724571228E-2,7.849075666E-2
1.444261859E1,-1.865332574E-2,1.154380012E-2,2.217960358E-2,3.119520311E-2
1.445261869E1,-3.868602216E-3,1.611725613E-2,4.612541199E-2,4.901311722E-2
1.446261869E1,1.326806843E-3,2.080416679E-2,3.655147552E-2,4.207830956E-2
1.447261869E1,-5.692996085E-3,2.515010163E-2,4.852294922E-2,5.494919851E-2
1.448261869E1,-1.269930601E-2,1.497303601E-2,3.415679932E-2,3.939734915E-2
1.449261869E1,1.401016116E-2,9.494000115E-3,4.852390289E-2,5.139056145E-2
1.450261822E1,-1.464060694E-2,2.535290644E-2,2.697372437E-2,3.980827857E-2
1.451261822E1,-1.922664046E-2,2.933461219E-3,3.894519806E-2,4.353156728E-2
1.452261822E1,-2.334703505E-2,1.161895413E-2,3.894901276E-2,4.687333715E-2
1.453261822E1,-6.027013063E-3,1.110109966E-2,5.810737610E-2,5.946449745E-2
1.454261822E1,-7.709123194E-3,1.739319414E-2,4.613971710E-2,4.990818848E-2
1.455261822E1,-9.470775723E-3,9.334976785E-3,5.572032928E-2,5.728518552E-2
1.456261822E1,-1.845345646E-2,8.563679643E-3,5.093574524E-2,5.484812492E-2
1.457261822E1,-3.512687981E-3,8.125527762E-3,4.136276245E-2,4.229942430E-2
1.458261822E1,-1.265017688E-2,1.471661311E-2,4.375934601E-2,4.786946876E-2
1.459261869E1,-1.436115801E-2,1.151013095E-2,4.376411438E-2,4.747655928E-2
1.460261869E1,-6.444305182E-3,1.183654182E-3,4.376983643E-2,4.425752690E-2
1.461261869E1,3.809414804E-3,-1.377516147E-2,3.180408478E-2,3.486784368E-2
1.462261869E1,-2.738607675E-2,5.368169397E-3,4.377365112E-2,5.191287870E-2
1.463261869E1,-3.146377951E-2,-9.282479063E-3,2.941417694E-2,4.406049981E-2
1.464261822E1,-4.063829780E-3,2.574957907E-4,3.660678864E-2,3.683256699E-2
1.465261822E1,3.814935684E-3,-2.220432274E-3,3.900718689E-2,3.925614198E-2
1.466261822E1,1.848019660E-3,-2.136877738E-3,4.140472412E-2,4.150099520E-2
1.467261822E1,-5.218431354E-3,1.821033657E-4,3.661823273E-2,3.698864901E-2
1.468261822E1,-7.133215666E-3,-4.503676668E-3,4.380416870E-2,4.460909173E-2
1.469261822E1,-2.389454842E-2,2.187725157E-2,3.901576996E-2,5.071285720E-2
1.470261869E1,-1.643456519E-3,2.420582809E-3,5.338859558E-2,5.346870401E-2
1.471261868E1,1.805167645E-2,9.418732487E-3,5.339241028E-2,5.714302249E-2
1.472261868E1,-5.702100694E-3,1.138010435E-2,4.621124268E-2,4.793224047E-2
1.473261868E1,-7.904745638E-3,6.071385927E-3,4.381656647E-2,4.493593470E-2
1.474261868E1,6.470508873E-3,1.083370205E-2,3.902912140E-2,4.101839712E-2
1.475261858E1,4.137903452E-3,-1.144407317E-3,4.142475128E-2,4.164663170E-2
1.476261858E1,1.370673627E-2,1.559779141E-2,4.142475128E-2,4.633762763E-2
1.477261859E1,-5.537956953E-3,5.544331856E-3,5.818271637E-2,5.870806646E-2
1.478261859E1,6.360761821E-3,1.224203967E-2,2.705574036E-2,3.037004959E-2
1.479261859E1,3.708794713E-3,-7.656900212E-3,4.381179810E-2,4.463022442E-2
1.480261859E1,-1.304159313E-2,1.894250512E-3,3.902339935E-2,4.118855464E-2
1.481261859E1,-3.465905786E-3,4.332439974E-3,3.902339935E-2,3.941583738E-2
1.482261858E1,8.442506194E-3,1.988981850E-3,4.620647430E-2,4.701351111E-2
1.483261858E1,-5.971230567E-3,-8.019326255E-3,6.296539307E-2,6.375426191E-2
1.484261905E1,-3.504335880E-3,8.663996123E-3,4.141807556E-2,4.245941806E-2
1.485261905E1,8.458800614E-3,-5.719056353E-3,4.381179810E-2,4.498591519E-2
1.486261905E1,3.416724503E-3,1.312020142E-2,3.423213959E-2,3.681919435E-2
1.487261905E1,-1.418374479E-3,2.278340794E-2,6.056880951E-2,6.472770774E-2
1.488261905E1,1.049812883E-2,-4.046951421E-3,4.141330719E-2,4.291445604E-2
1.489261858E1,7.971026003E-3,-1.358418074E-2,3.901767731E-2,4.207667245E-2
1.490261858E1,-1.163250953E-2,2.950967755E-3,6.535148621E-2,6.644426415E-2
1.491261858E1,1.471412927E-2,5.307868123E-4,4.140853882E-2,4.394831535E-2
1.492261858E1,-1.163795590E-2,-1.943138428E-3,2.943611145E-2,3.171281227E-2
1.493261858E1,-1.875238121E-2,7.689097896E-3,4.859256744E-2,5.264989685E-2
1.494261858E1,2.849549055E-3,-9.095367044E-3,4.380321503E-2,4.482819736E-2
1.495261905E1,8.922517300E-4,-1.622072794E-2,4.380702972E-2,4.672220009E-2
1.496261905E1,1.531411707E-2,-8.588210680E-3,3.662586212E-2,4.061690929E-2
1.497261905E1,5.734272301E-3,1.076965593E-3,5.099105835E-2,5.132377388E-2
1.498261905E1,1.729064435E-2,1.101830136E-2,3.422737122E-2,3.989839956E-2
1.499261905E1,7.773727179E-3,3.872813657E-3,4.859542847E-2,4.936542502E-2
1.500261858E1,-8.987464011E-3,-5.660614930E-3,3.662300110E-2,3.813215546E-2
1.501261858E1,-4.207178950E-3,6.293037906E-3,3.422832489E-2,3.505539767E-2
1.502261858E1,1.196368039E-2,8.440630510E-3,3.901195526E-2,4.166901181E-2
1.503261858E1,9.557127953E-3,3.765903413E-3,3.901195526E-2,4.034170766E-2
1.504261858E1,7.179237902E-3,3.801796585E-3,4.140663147E-2,4.219602166E-2
1.505261858E1,1.770138741E-3,-1.348179765E-3,3.661155701E-2,3.667910967E-2
1.506261858E1,6.688736379E-3,1.067178790E-2,3.182506561E-2,3.422661322E-2
1.507261858E1,1.275472343E-3,1.016092859E-2,6.054878235E-2,6.140868296E-2
1.508261858E1,-1.126997173E-3,2.960418351E-3,4.378890991E-2,4.390333508E-2
1.509261905E1,-8.307136595E-3,-4.309997428E-3,5.097198486E-2,5.182400831E-2
1.510261905E1,1.563422382E-2,-1.871500164E-3,5.336666107E-2,5.564109975E-2
1.511261905E1,-1.309844851E-2,7.749831304E-3,3.900051117E-2,4.186489114E-2
1.512261905E1,3.723070025E-3,2.954500262E-3,4.618453979E-2,4.642846151E-2
1.513261905E1,-1.332867891E-2,-1.908539422E-2,3.899765015E-2,4.541720677E-2
1.514261858E1,-3.805041313E-3,4.882095847E-3,4.378604889E-2,4.422138936E-2
1.515261858E1,3.383234143E-3,1.990981400E-4,5.096912384E-2,5.108167478E-2
1.516261858E1,9.190812707E-4,-6.994284224E-3,3.899765015E-2,3.963056193E-2
1.517261858E1,-1.823652536E-2,-6.949865259E-3,4.618072510E-2,5.013512596E-2
1.518261858E1,-3.458537161E-3,2.912503667E-3,3.660678864E-2,3.688497162E-2
1.519261858E1,9.016864002E-3,3.068961203E-3,4.139995575E-2,4.248151004E-2
1.520261908E1,4.299618304E-3,1.021894254E-2,3.900623322E-2,4.055119892E-2
1.521261908E1,-6.410628557E-4,-1.419324800E-2,3.661060333E-2,3.927079738E-2
1.522261908E1,-6.794556975E-4,-2.366615832E-2,5.815887451E-2,6.279333877E-2
1.523261908E1,-6.410777569E-4,-6.448318250E-3,3.900527954E-2,3.953989910E-2
1.524261908E1,-1.268236339E-2,-1.603609324E-2,3.900432587E-2,4.403789350E-2
1.525261862E1,-7.833562791E-3,-2.557582036E-2,4.618835449E-2,5.337463240E-2
1.526261862E1,-2.651758492E-3,6.448452361E-3,2.703762054E-2,2.792216477E-2
1.527261862E1,-9.524971247E-3,-1.194132492E-2,4.380130768E-2,4.638830534E-2
1.528261862E1,7.226683199E-3,-2.381958999E-3,3.422451019E-2,3.506017365E-2
1.529261862E1,-6.845794618E-3,-1.652834006E-3,5.577564240E-2,5.621849383E-2
1.530261862E1,-6.607435644E-3,8.441071957E-3,4.141330719E-2,4.277817100E-2
1.531261862E1,-6.597891450E-3,-2.031617239E-2,5.099010468E-2,5.528354011E-2
1.532261862E1,1.284676790E-2,-5.414818414E-3,4.141712189E-2,4.370054564E-2
1.533261862E1,-6.218455732E-3,2.383736707E-2,4.141807556E-2,4.819072778E-2
1.534261908E1,8.138991892E-3,9.453703649E-3,4.381179810E-2,4.555314867E-2
1.535261908E1,1.533135772E-2,4.639535211E-3,5.099487305E-2,5.345140684E-2
1.536261908E1,-1.559995115E-3,2.241207287E-3,2.226257324E-2,2.242941734E-2
1.537261908E1,7.821097970E-4,-9.748984128E-3,3.902149200E-2,4.022848774E-2
1.538261908E1,-1.664191484E-3,1.417470817E-2,5.578136444E-2,5.757822943E-2
1.539261861E1,-6.329573691E-3,2.852701023E-2,4.141712189E-2,5.068759021E-2
1.540261861E1,1.283974200E-2,8.890673518E-3,3.902244568E-2,4.203158714E-2
1.541261861E1,3.011815250E-3,-1.094670221E-2,4.620170593E-2,4.757624356E-2
1.542261861E1,-8.890978992E-3,-8.497797884E-3,3.423118591E-2,3.637356410E-2
1.543261861E1,-1.129350811E-2,1.542722527E-2,4.380798340E-2,4.779834740E-2
1.544261861E1,-8.958190680E-3,-1.338481437E-2,4.859638214E-2,5.119580836E-2
1.545261911E1,1.541880518E-2,8.453167975E-4,3.902244568E-2,4.196671753E-2
1.546261911E1,1.001052558E-3,1.279759593E-2,5.338859558E-2,5.491013300E-2
1.547261911E1,-8.728079498E-3,-4.432053305E-3,4.859828949E-2,4.957435032E-2
1.548261911E1,8.023619652E-3,-2.055588178E-3,4.380893707E-2,4.458505223E-2
1.549261911E1,7.978364825E-3,7.564058527E-3,3.423213959E-2,3.595425799E-2
1.550261861E1,-1.346597821E-2,-1.155199017E-2,4.380893707E-2,4.726525165E-2
1.551261861E1,1.054529846E-2,1.483994443E-2,3.902244568E-2,4.306017344E-2
1.552261861E1,8.211255074E-3,-1.882919110E-3,4.141712189E-2,4.226521122E-2
1.553261861E1,-8.600689471E-3,-4.296243191E-3,4.141712189E-2,4.251832017E-2
1.554261861E1,-6.277695298E-3,-1.869013533E-3,4.859828949E-2,4.903770398E-2
1.555261861E1,5.755297840E-3,5.188127980E-4,4.620456696E-2,4.656452112E-2
1.556261861E1,1.020103693E-3,7.677057758E-3,3.662872314E-2,3.743849872E-2
1.557261861E1,-1.426197588E-3,-1.919419505E-3,3.902244568E-2,3.909564525E-2
1.558261861E1,1.053698361E-2,-1.937103458E-3,6.057071686E-2,6.151091069E-2
1.559261908E1,5.009844899E-4,1.223026030E-2,5.098915100E-2,5.243780861E-2
1.560261908E1,-9.084373713E-3,-6.941671483E-3,4.859542847E-2,4.992222267E-2
1.561261908E1,-4.228673875E-3,5.128455348E-3,4.380607605E-2,4.430750541E-2
1.562261908E1,7.734373212E-3,-2.071820199E-3,4.859542847E-2,4.925067142E-2
1.563261908E1,1.025876403E-2,9.947894141E-3,5.099010468E-2,5.295463730E-2
1.564261861E1,-4.053518176E-3,2.740487456E-3,4.859638214E-2,4.884208880E-2
1.565261861E1,7.859036326E-3,5.053985864E-3,3.901863098E-2,4.012182434E-2
1.566261861E1,-6.445012987E-3,7.441287860E-3,3.901958466E-2,4.024225322E-2
1.567261861E1,-1.116921753E-2,1.640198752E-4,3.662586212E-2,3.829141025E-2
1.568261861E1,-1.549579203E-3,-4.579277709E-3,3.423213959E-2,3.457181454E-2
1.569258528E1,1.276533306E-2,2.540607937E-3,3.183746338E-2,3.439523937E-2
1.570255195E1,1.283249259E-2,2.450859174E-4,4.380893707E-2,4.565036583E-2
1.571251861E1,1.037790626E-2,1.217955258E-2,5.338573456E-2,5.573220876E-2
1.572248528E1,5.264662206E-3,7.109220140E-3,3.183460236E-2,3.304087751E-2
1.573245194E1,-1.200211048E-2,-2.817174420E-3,3.661823273E-2,3.863783244E-2
1.574241861E1,-2.483889461E-3,-5.035959184E-4,4.379940033E-2,4.387266558E-2
1.575238478E1,4.503056407E-3,-9.750146419E-4,1.745986938E-2,1.805755270E-2
1.576235144E1,-3.458186984E-4,-3.406201489E-3,4.140281677E-2,4.154413359E-2
1.577231811E1,1.985467970E-3,8.615661412E-3,3.182601929E-2,3.303130649E-2
1.578228477E1,1.841664314E-2,-2.294128016E-2,4.858207703E-2,5.679518719E-2
1.579225144E1,1.315135509E-2,-1.021497883E-3,3.660678864E-2,3.891090558E-2
1.580221811E1,-1.613051444E-2,1.583592966E-3,4.378509521E-2,4.668871197E-2
1.581218524E1,-1.378834248E-2,3.958768211E-3,4.378318787E-2,4.607339551E-2
1.582215190E1,-1.618402451E-2,4.002675414E-3,5.336189270E-2,5.590559590E-2
1.583211857E1,-1.138591021E-2,-3.205785528E-3,3.660106659E-2,3.846497222E-2
1.584208524E1,-3.007715195E-2,8.832781576E-3,3.899955750E-2,5.003617276E-2
1.585205190E1,1.856726408E-2,-3.272731788E-3,4.858398438E-2,5.211389073E-2
1.586201857E1,-7.720485330E-3,-3.165804781E-3,4.858493805E-2,4.929629214E-2
1.587198523E1,-1.256101578E-2,-1.276203711E-2,5.816173553E-2,6.085586405E-2
1.588195190E1,2.196364105E-3,-1.266196556E-2,5.576992035E-2,5.723140225E-2
1.589191810E1,9.658604860E-3,1.400010567E-2,5.098438263E-2,5.374661737E-2
1.590188477E1,-9.446322918E-3,-9.835718200E-3,4.380130768E-2,4.587514494E-2
1.591181810E1,-2.315603197E-3,-1.224909630E-2,5.337905884E-2,5.481538380E-2
1.592175143E1,9.861283004E-3,-1.180377975E-2,4.619789124E-2,4.869105948E-2
1.593168477E1,5.139745772E-3,-1.649334840E-2,5.338191986E-2,5.610772582E-2
1.594161810E1,1.956562698E-2,7.486985996E-3,3.422832489E-2,4.013037432E-2
1.595155143E1,1.443868130E-2,7.415302098E-4,3.901386261E-2,4.160657232E-2
1.596148476E1,-3.214552999E-4,5.798688158E-3,3.661632538E-2,3.707402598E-2
