"Time (s)","Linear Acceleration x (m/s^2)","Linear Acceleration y (m/s^2)","Linear Acceleration z (m/s^2)","Absolute acceleration (m/s^2)"
0.000000000E0,2.119202375E0,5.515664101E0,-8.018856049E-1,5.962934655E0
9.986000000E-3,2.118932962E0,5.515186310E0,-8.018932343E-1,5.962397982E0
1.997900000E-2,2.119712830E0,5.515715599E0,-8.018884659E-1,5.963164107E0
2.997433300E-2,2.207979560E-4,-1.180857420E-3,3.610229492E-2,3.612227671E-2
3.997083300E-2,5.761757493E-4,-3.064423800E-4,3.611660004E-2,3.612249553E-2
4.996803300E-2,-2.388060093E-4,-1.508742571E-3,3.609848022E-2,3.613078475E-2
5.996819900E-2,9.308949113E-3,-4.195630550E-3,-7.003784180E-3,1.238195631E-2
6.996619900E-2,9.613484144E-3,1.006057858E-2,9.115600586E-2,9.221199338E-2
7.996444900E-2,-2.148970962E-3,-3.291946650E-2,8.397579193E-2,9.022329511E-2
8.996289300E-2,5.595266819E-3,-9.461268783E-3,1.943111420E-2,2.232466834E-2
9.996149300E-2,-6.282284856E-3,-1.908715069E-2,9.844017029E-2,1.004701625E-1
1.099602200E-1,8.059367537E-4,-2.143299580E-2,5.065917969E-3,2.203829321E-2
1.199590530E-1,3.353551030E-3,1.072250307E-2,1.296892166E-1,1.301749257E-1
1.299579760E-1,-1.098737866E-2,-3.586634994E-3,1.081409454E-1,1.087568413E-1
1.399569760E-1,3.523528576E-3,1.066523790E-2,1.236724854E-2,1.670662711E-2
1.499560420E-1,3.714919090E-3,8.212342858E-3,1.105298996E-1,1.108968075E-1
1.599551670E-1,-5.722820759E-3,8.218452334E-3,2.786636353E-3,1.039514206E-2
1.699543430E-1,-7.246084511E-3,8.195638657E-7,8.645725250E-2,8.676037259E-2
1.799535650E-1,2.298094332E-3,-9.513720870E-3,1.463031769E-2,1.760222480E-2
1.899528280E-1,-4.812434316E-3,-2.412384748E-2,5.048751831E-3,2.511193813E-2
1.999528280E-1,1.555071026E-2,3.156334162E-3,8.177661896E-2,8.330187539E-2
2.099521610E-1,-8.306510746E-3,-3.508205712E-2,2.431488037E-2,4.348519587E-2
2.199515240E-1,-3.664724529E-3,1.052251458E-2,1.176948547E-1,1.182211163E-1
2.299509150E-1,5.806699395E-3,-3.484001756E-2,8.178424835E-2,8.908539644E-2
2.399503310E-1,-1.983180642E-3,3.029106557E-2,6.759071350E-2,7.409444116E-2
2.499497710E-1,5.749799311E-3,-1.276046038E-3,1.344604492E-1,1.345893788E-1
2.599492320E-1,-1.333068311E-2,5.859717727E-3,2.773284912E-3,1.482344472E-2
2.699487130E-1,1.075020432E-2,1.544238627E-2,5.784034729E-2,6.082384369E-2
2.799482130E-1,7.082700729E-3,-1.329962909E-2,7.468223572E-3,1.681722768E-2
2.899477300E-1,-2.566277981E-4,-6.101250648E-3,-2.604961395E-2,2.675581253E-2
2.999472630E-1,9.232148528E-3,-3.711965680E-2,4.338741302E-2,5.784089467E-2
3.099477630E-1,1.259638369E-2,-2.420708537E-3,3.399944305E-2,3.633855858E-2
3.199477630E-1,5.249179900E-3,2.385380864E-2,1.321630478E-1,1.344010018E-1
3.299477630E-1,-9.213827550E-3,-1.205037534E-2,9.385585785E-2,9.507380405E-2
3.399477630E-1,-1.774004847E-2,3.112177551E-2,6.742858887E-2,7.635370867E-2
3.499477630E-1,1.493178308E-3,2.395014465E-2,1.416501999E-1,1.436684313E-1
3.599472630E-1,1.450572163E-2,-1.893296838E-2,7.399559021E-3,2.497251940E-2
3.699472630E-1,-1.752217859E-2,7.263720036E-3,4.104042053E-2,4.521177378E-2
3.799472630E-1,-7.863737643E-3,-4.873573780E-3,2.188205719E-2,2.375740975E-2
3.899472630E-1,8.922427893E-3,-7.389336824E-3,2.187919617E-2,2.475704431E-2
3.999472630E-1,1.345253736E-2,-3.038914502E-2,8.890628815E-2,9.491469311E-2
4.099472630E-1,-1.006983221E-3,-3.253762424E-2,3.863239288E-2,5.051903390E-2
4.199472630E-1,3.439284861E-3,1.763443649E-2,8.429431915E-2,8.618778494E-2
4.299472630E-1,-1.299987733E-2,5.531832576E-3,1.082315445E-1,1.091497375E-1
4.399472630E-1,3.536425531E-3,2.702359855E-2,1.964473724E-2,3.359608438E-2
4.499477630E-1,6.417803466E-3,4.842336476E-2,1.344604492E-1,1.430581101E-1
4.599477630E-1,1.060909033E-2,4.974271357E-2,3.133773804E-2,5.974064091E-2
4.699477630E-1,-5.501955748E-4,1.754286885E-2,6.230926514E-2,6.473406742E-2
4.799477630E-1,1.138687134E-2,-4.792816937E-2,5.501937866E-2,7.385054019E-2
4.899477630E-1,-2.605817094E-2,-6.599052250E-2,-2.621459961E-2,7.563717714E-2
4.999472960E-1,-2.011390403E-2,-6.078891456E-2,-9.276390076E-3,6.469862967E-2
5.099472960E-1,-2.773351967E-3,-3.025707603E-2,-1.868247986E-2,3.566815364E-2
5.199472960E-1,7.474876940E-3,3.689295053E-2,6.282520294E-2,7.323912690E-2
5.299472960E-1,2.331818640E-2,4.408782721E-2,1.297674179E-1,1.390217863E-1
5.399472960E-1,2.965676785E-2,4.677686095E-2,5.781269073E-2,8.006188737E-2
5.499472960E-1,8.606582880E-3,2.525459230E-2,1.271305084E-1,1.299000919E-1
5.599477960E-1,-1.919885725E-2,-3.182415664E-2,2.888679504E-2,4.707249721E-2
5.699477960E-1,-1.339719445E-2,-4.592122138E-2,5.051326752E-2,6.956891250E-2
5.799477960E-1,-3.814540058E-2,-4.252320528E-2,-3.557300568E-2,6.729586396E-2
5.899477960E-1,-2.118259668E-3,-7.997930050E-3,-4.506111145E-2,4.581438283E-2
5.999477960E-1,2.821363509E-3,1.588982344E-2,4.831314087E-2,5.093727674E-2
6.099472960E-1,4.831806570E-2,3.270810843E-2,1.000690460E-2,5.919961123E-2
6.199472960E-1,3.114777803E-2,4.596440494E-2,1.416206360E-1,1.521161239E-1
6.299472960E-1,-1.340730488E-2,-2.042296529E-2,-1.650810242E-2,2.948509421E-2
6.399472960E-1,-1.811578870E-2,1.051725447E-2,1.103849411E-1,1.123549272E-1
6.499472960E-1,-3.717840463E-2,-4.261924326E-2,1.007976532E-1,1.155802775E-1
6.599472960E-1,-4.664915800E-2,-2.595551312E-2,7.692909241E-2,9.363716069E-2
6.699472960E-1,-8.815381676E-3,-1.022219658E-3,-1.881408691E-2,2.080206128E-2
6.799472960E-1,6.166290492E-3,2.497659624E-2,3.280639648E-4,2.572860517E-2
6.899472960E-1,2.546289936E-2,6.554591656E-2,-3.319549561E-2,7.775967689E-2
6.999477620E-1,4.536253214E-2,1.691164076E-2,1.485328674E-1,1.562234797E-1
7.099477620E-1,-3.087282181E-3,-4.059500992E-2,4.796123505E-2,6.291077975E-2
7.199477620E-1,-1.023089886E-2,-4.059886932E-2,1.078176498E-1,1.156615109E-1
7.299477620E-1,-1.405995339E-2,-5.146230757E-2,5.296039581E-2,7.517216848E-2
7.399477620E-1,-1.896338537E-2,-2.196398377E-2,3.396034241E-2,4.466913279E-2
7.499472620E-1,1.061372459E-2,4.388320446E-2,1.178169250E-1,1.261713700E-1
7.599472620E-1,7.182285190E-3,2.710813284E-2,1.955318451E-2,3.418717758E-2
7.699472620E-1,1.792755723E-2,6.767690182E-2,2.185058594E-2,7.334172383E-2
7.799472620E-1,9.996503592E-3,-1.788422465E-3,-1.668262482E-2,1.953045083E-2
7.899472620E-1,9.832806885E-3,-3.537067771E-2,-2.386474609E-2,4.378692772E-2
7.999472620E-1,4.827499390E-3,-6.829179823E-2,1.151304245E-1,1.339480836E-1
8.099477620E-1,-2.229226753E-2,-4.330302775E-2,-3.787612915E-2,6.169844863E-2
8.199477620E-1,-2.387347445E-2,2.075473964E-2,9.871864319E-2,1.036632650E-1
8.299477620E-1,-8.100986481E-3,2.736754715E-2,6.031990051E-2,6.673154439E-2
8.399477620E-1,3.025703132E-3,6.349925697E-2,7.936573029E-2,1.016869198E-1
8.499477620E-1,2.690330148E-3,5.391456187E-2,7.916641235E-2,9.581930235E-2
8.599472620E-1,1.959548891E-2,5.915537477E-3,2.170085907E-2,2.983125967E-2
8.699472620E-1,3.739066422E-3,-4.120123386E-2,8.151912689E-2,9.141602889E-2
8.799472620E-1,-2.959743142E-3,-4.499314725E-2,-3.568649292E-2,5.750364472E-2
8.899472620E-1,-2.156418934E-2,2.878248692E-3,-1.968383789E-3,2.184429244E-2
8.999472620E-1,-2.631398290E-2,-1.847724617E-2,9.380626678E-2,9.916375351E-2
9.099472620E-1,-3.792554140E-3,-3.272339702E-3,-2.832317352E-2,2.876271601E-2
9.199472620E-1,1.789336652E-2,1.109884679E-2,1.153326035E-1,1.172389286E-1
9.299472620E-1,2.730745822E-2,-2.006994188E-2,9.138965607E-2,9.747086271E-2
9.399472620E-1,2.265904099E-2,4.975646734E-4,7.229804993E-2,7.576732628E-2
9.499477280E-1,-3.775961697E-3,4.120989144E-2,1.417322159E-1,1.476500391E-1
9.599477280E-1,1.096785814E-2,4.373580217E-3,-6.820678711E-3,1.363612020E-2
9.699477280E-1,1.602828503E-3,2.568385005E-2,9.373188019E-2,9.720028074E-2
9.799477280E-1,-3.178983927E-3,1.359298825E-2,-2.119636536E-2,2.538033043E-2
9.899477280E-1,-4.124142230E-3,-3.250598907E-3,1.222896576E-2,1.330873946E-2
9.999477940E-1,-1.147022098E-2,1.494765282E-3,7.687473297E-2,7.774011102E-2
1.009947794E0,2.194255590E-2,-2.730530500E-2,2.180576324E-2,4.126192860E-2
1.019947794E0,1.239832491E-2,6.348997355E-3,1.367330551E-1,1.374407385E-1
1.029947794E0,9.583011270E-3,-1.266516745E-2,9.843158722E-2,9.970465352E-2
1.039947794E0,-6.920099258E-3,2.545951307E-2,6.251049042E-2,6.785009942E-2
1.049947794E0,5.084030330E-3,1.103124022E-2,1.127901077E-1,1.134422497E-1
1.059948294E0,-4.744239151E-3,-1.583281159E-2,5.038261414E-3,1.727917261E-2
1.069948294E0,-4.548102617E-3,1.529219747E-2,4.813385010E-2,5.070901366E-2
1.079948294E0,3.919452429E-4,-1.828244328E-2,2.450942993E-4,1.828828655E-2
1.089948294E0,-9.113371372E-3,-3.271466494E-2,-2.150535583E-3,3.402833588E-2
1.099948294E0,-1.134687662E-2,4.011064768E-3,5.772209167E-2,5.896337946E-2
1.109947794E0,3.340646625E-3,-1.228867471E-2,3.139209747E-2,3.387676534E-2
1.119947794E0,1.287234575E-2,1.399375498E-2,8.406639099E-2,8.618979381E-2
1.129947794E0,-8.595220745E-3,-1.729822159E-2,7.927322388E-2,8.159258737E-2
1.139947794E0,-1.562704891E-2,3.998205066E-3,3.856468201E-2,4.180221286E-2
1.149947794E0,-1.047056168E-2,2.329224348E-2,8.166122437E-2,8.556118766E-2
1.159947794E0,-4.380792379E-4,1.382231712E-3,3.615951538E-2,3.618857597E-2
1.169947794E0,1.635701954E-2,4.184493423E-2,5.051994324E-2,6.760780483E-2
1.179947794E0,6.806381047E-3,-6.752863526E-3,6.965923309E-2,7.031597787E-2
1.189947794E0,-1.236794144E-2,2.431824803E-3,5.289077759E-2,5.437199740E-2
1.199947860E0,2.146877348E-3,-2.637396753E-2,1.055631638E-1,1.088291174E-1
1.209947860E0,4.500955343E-3,2.360716462E-3,7.683181763E-2,7.699973884E-2
1.219947860E0,-7.344692945E-3,-7.327929139E-3,6.246280670E-2,6.331860138E-2
1.229947860E0,-4.864893854E-3,-1.683501899E-2,9.358882904E-2,9.521530328E-2
1.239947860E0,-1.675926894E-2,1.428243518E-2,2.176094055E-2,3.095802939E-2
1.249947393E0,1.524537802E-4,3.098748624E-2,6.485557556E-2,7.187832237E-2
1.259947393E0,2.210161090E-2,8.925303817E-3,9.774208069E-3,2.576193696E-2
1.269947393E0,1.477541775E-2,1.547174156E-2,3.131008148E-2,3.792108858E-2
1.279947393E0,2.412091941E-2,-1.618281007E-2,5.763816833E-2,6.454347793E-2
1.289947393E0,-1.221514493E-2,-9.076058865E-3,9.754180908E-3,1.807563707E-2
1.299946859E0,4.045166075E-3,-1.153835654E-2,2.890968323E-2,3.138896023E-2
1.309947359E0,-1.269367337E-2,-9.126707911E-3,5.764102936E-2,5.972365031E-2
1.319947359E0,6.366409361E-3,-1.895040274E-3,1.438369751E-1,1.439902696E-1
1.329947359E0,3.618851304E-3,-8.470937610E-3,1.151199341E-1,1.154878872E-1
1.339947359E0,1.185826957E-3,1.068706810E-2,1.216697693E-2,1.623745478E-2
1.349947359E0,1.460514963E-3,2.025622129E-2,1.031475067E-1,1.051278067E-1
1.359946859E0,-7.794573903E-3,-1.226067543E-3,4.981994629E-3,9.331607280E-3
1.369946859E0,-5.320660770E-3,2.272817492E-2,4.089450836E-2,4.708757990E-2
1.379947359E0,-1.235326380E-2,-3.280848265E-2,-2.615547180E-2,4.373909424E-2
1.389947359E0,-2.161263302E-2,-1.841586828E-2,7.363319397E-3,2.933374479E-2
1.399947359E0,1.221393794E-2,-8.534386754E-3,8.637809753E-2,8.765381778E-2
1.409947359E0,9.838789701E-3,-3.966209292E-2,2.412700653E-2,4.745519826E-2
1.419947359E0,3.905594349E-4,-1.003727317E-2,1.247043610E-1,1.251082612E-1
1.429947359E0,-9.267218411E-3,-1.424662769E-2,4.809856415E-2,5.101293572E-2
1.439947359E0,3.435015678E-4,7.830768824E-3,6.965827942E-2,7.009789459E-2
1.449947825E0,2.832524478E-3,5.603834987E-3,1.175470352E-1,1.177146195E-1
1.459947825E0,1.033689827E-2,5.670040846E-3,1.219749451E-2,1.696407089E-2
1.469947825E0,9.506270289E-4,1.518830657E-2,4.092597961E-2,4.366376250E-2
1.479947825E0,7.917433977E-3,-9.127616882E-3,2.612113953E-3,1.236213129E-2
1.489947825E0,5.491405725E-3,9.911492467E-3,-2.178192139E-3,1.153853287E-2
1.499947758E0,-9.323544800E-3,-2.136625350E-2,8.401489258E-2,8.718914755E-2
1.509947758E0,-2.102166414E-3,-2.356761694E-2,2.416229248E-2,3.381816154E-2
1.519947758E0,2.701282501E-3,2.007919550E-2,1.055784225E-1,1.075047642E-1
1.529947758E0,-6.614767015E-3,-3.810971975E-3,8.642387390E-2,8.676038630E-2
1.539947758E0,-6.397970021E-3,5.764156580E-3,6.966209412E-2,7.019235627E-2
1.549947758E0,1.031546295E-2,1.546412706E-2,1.031847000E-1,1.048457454E-1
1.559948258E0,1.274436712E-2,-1.091584563E-2,-2.163887024E-3,1.691913078E-2
1.569948258E0,-1.818409935E-2,2.978676558E-2,2.417087555E-2,4.245166778E-2
1.579948258E0,5.890935659E-3,-1.575739682E-2,-2.166748047E-3,1.696152925E-2
1.589948258E0,1.193672419E-3,8.116811514E-3,-2.850723267E-2,2.966428488E-2
1.599948258E0,1.790829748E-2,-1.588073373E-2,9.120559692E-2,9.429403869E-2
1.609947758E0,5.785644054E-3,-3.256665170E-2,3.853511810E-2,5.078401134E-2
1.619947758E0,7.901392877E-3,3.907546401E-3,1.103763580E-1,1.107277803E-1
1.629947758E0,-4.091754556E-3,-1.267300546E-2,1.151685715E-1,1.159359624E-1
1.639947758E0,-1.353155077E-2,8.880928159E-3,4.094505310E-2,4.402807201E-2
1.649947758E0,-8.485794067E-3,2.325992286E-2,1.103782654E-1,1.131211482E-1
1.659948258E0,1.472502947E-3,1.077686250E-2,7.411003113E-3,1.316176270E-2
1.669948258E0,1.606039703E-2,1.722806692E-2,1.457786560E-2,2.769940086E-2
1.679947758E0,1.382251829E-2,-2.588465810E-2,9.787559509E-3,3.093337773E-2
1.689947758E0,4.376851022E-3,-2.354349196E-2,-2.373504639E-2,3.371654291E-2
1.699948224E0,-7.639825344E-3,-1.402117312E-2,7.442951202E-2,7.612300892E-2
1.709948224E0,6.634958088E-3,-2.131348848E-2,-2.188682556E-3,2.242939570E-2
1.719948224E0,-3.182329237E-3,1.276247203E-2,1.175374985E-1,1.182711776E-1
1.729948224E0,1.269854605E-3,-8.200883865E-3,1.055812836E-1,1.059069142E-1
1.739948224E0,-1.157112420E-3,1.380416751E-2,2.418518066E-2,2.787143544E-2
1.749947757E0,1.346487552E-2,1.621165872E-2,1.055898666E-1,1.076723766E-1
1.759947757E0,8.886665106E-3,-7.791876793E-3,5.026817322E-3,1.284348290E-2
1.769947757E0,1.835465431E-3,1.849217713E-2,2.896690369E-2,3.441527361E-2
1.779947757E0,8.925616741E-3,-5.382671952E-3,-1.891517639E-2,2.159684443E-2
1.789947757E0,-6.164655089E-3,-5.723848939E-3,-4.552841187E-3,9.565238205E-3
1.799948257E0,1.066686213E-2,-1.536759734E-2,7.445621490E-2,7.677026074E-2
1.809948757E0,1.162938774E-3,-3.443509340E-3,7.415771484E-3,8.258562216E-3
1.819948757E0,2.506685257E-2,1.349046826E-3,1.247367859E-1,1.272377019E-1
1.829948757E0,-1.340010017E-2,-2.738609910E-2,8.642768860E-2,9.164773028E-2
1.839948757E0,-6.452180445E-3,1.871949434E-2,6.489467621E-2,6.784813263E-2
1.849948757E0,8.183017373E-3,3.082160652E-2,1.127805710E-1,1.172023481E-1
1.859948257E0,-3.546938300E-3,4.538863897E-3,-6.933212280E-3,9.013960800E-3
1.869948257E0,-6.076470017E-3,3.980606794E-3,2.418136597E-2,2.524890450E-2
1.879948257E0,8.263073862E-3,-2.539855242E-2,2.250671387E-4,2.670983919E-2
1.889948257E0,-1.782082021E-3,5.971238017E-3,-1.892089844E-2,1.992063999E-2
1.899948257E0,1.003650576E-2,-1.552280784E-2,1.103725433E-1,1.119097285E-1
1.909948257E0,-6.815500557E-3,-2.024321258E-2,1.699733734E-2,2.729740244E-2
1.919948257E0,1.952275634E-4,1.572741568E-2,1.079826355E-1,1.091221301E-1
1.929948257E0,-7.085554302E-3,-1.778282225E-2,7.206916809E-2,7.456808189E-2
1.939948257E0,4.922568798E-3,2.788189054E-2,7.686138153E-2,8.191033802E-2
1.949948723E0,-1.171223819E-2,-1.036010683E-2,9.841060638E-2,9.964514933E-2
1.959948223E0,-1.919575036E-3,-1.275669038E-2,2.431869507E-4,1.290259888E-2
1.969948223E0,-1.779533923E-3,6.225556135E-3,2.657604218E-2,2.735343320E-2
1.979948223E0,1.031680405E-2,-3.937754035E-2,-1.891803741E-2,4.488785214E-2
1.989948223E0,1.262088865E-2,-1.793850958E-2,2.628326416E-3,2.209038379E-2
1.999947756E0,3.416836262E-4,-1.707966626E-2,8.165931702E-2,8.342706877E-2
2.009947756E0,2.330094576E-4,-2.338439226E-2,9.850502014E-3,2.537550955E-2
2.019947756E0,1.696357876E-2,2.778509259E-2,1.295824051E-1,1.336090344E-1
2.029947756E0,1.471863687E-2,-2.476648986E-2,9.366989136E-2,9.800033591E-2
2.039947756E0,6.836250424E-3,2.860783041E-2,2.904415131E-2,4.133648516E-2
2.049947756E0,2.064207196E-2,-8.031725883E-6,8.651256561E-2,8.894109966E-2
2.059948256E0,3.218665719E-3,5.854666233E-5,-2.068519592E-3,3.826487949E-3
2.069948256E0,3.414668143E-3,5.821883678E-5,-2.070426941E-3,3.993747072E-3
2.079948256E0,7.740184665E-4,-2.178113163E-2,7.502555847E-3,2.305005735E-2
2.089948256E0,7.560089231E-3,9.324803948E-3,-2.072334290E-3,1.218201491E-2
2.099948222E0,1.157929748E-2,-5.239829421E-3,9.609508514E-2,9.693194175E-2
2.109947722E0,-1.554846019E-2,1.923575997E-3,3.384971619E-2,3.729957164E-2
2.119947722E0,-1.791734993E-2,1.634579897E-2,8.891868591E-2,9.216696413E-2
2.129947722E0,-1.034487039E-2,-8.030295372E-3,7.932949066E-2,8.040317205E-2
2.139947722E0,4.699394107E-3,3.636255860E-3,1.467227936E-2,1.582979606E-2
2.149947722E0,4.901297390E-3,3.242577612E-2,1.056547165E-1,1.106271793E-1
2.159947722E0,1.700657606E-2,1.244994998E-2,1.465415955E-2,2.567039688E-2
2.169947722E0,-1.674888283E-2,1.407875121E-2,5.773639679E-2,6.174324113E-2
2.179947722E0,2.605542541E-3,-8.416220546E-3,-2.129554749E-2,2.304608346E-2
2.189947722E0,-1.411965489E-2,-3.719064593E-2,1.940631866E-2,4.426187980E-2
2.199948188E0,-4.589162767E-3,3.635078669E-3,8.884334564E-2,8.903602797E-2
2.209948188E0,-4.627995193E-3,1.244813204E-3,9.833335876E-3,1.093903076E-2
2.219948188E0,-2.319417894E-3,8.357509971E-3,9.123611450E-2,9.164745638E-2
2.229948188E0,4.876717925E-3,1.311093569E-3,9.123897552E-2,9.137861894E-2
2.239948188E0,1.208455116E-2,6.156057119E-3,4.096031189E-2,4.314719650E-2
2.249947721E0,2.569258213E-4,-5.751058459E-3,1.415214539E-1,1.416384926E-1
2.259947721E0,-2.005055547E-3,1.335021853E-2,7.438659668E-3,1.541370300E-2
2.269947721E0,-4.308015108E-3,2.525307238E-2,2.419662476E-2,3.523852024E-2
2.279947721E0,-1.614351571E-2,-4.258866608E-2,-6.945610046E-3,4.607221589E-2
2.289947721E0,1.045072079E-2,-4.266902804E-3,-3.089046478E-2,3.288836936E-2
2.299947721E0,5.752608180E-3,-6.729841232E-3,1.343126297E-1,1.346041075E-1
2.309948221E0,3.439217806E-3,-2.587218583E-2,2.417564392E-2,3.557611527E-2
2.319947921E0,-8.622832596E-3,1.052369177E-2,1.008033752E-1,1.017173623E-1
2.329947921E0,-6.217204034E-3,-8.513584733E-3,8.883380890E-2,8.945714256E-2
2.339947921E0,-1.124471426E-3,2.069947124E-2,8.165836334E-2,8.424856586E-2
2.349947921E0,-1.253879815E-2,2.276138961E-2,7.685947418E-2,8.113372349E-2
2.359947421E0,-3.025233746E-4,1.068454981E-2,-9.338378906E-3,1.419353535E-2
2.369947421E0,-2.392314374E-3,-1.790300012E-3,-4.563331604E-3,5.454570334E-3
2.379947421E0,9.807951748E-3,-3.337290883E-2,7.397651672E-3,3.556223013E-2
2.389947421E0,-9.492963552E-3,-9.317159653E-3,-9.358406067E-3,1.626362767E-2
2.399946954E0,-4.590697587E-3,-3.987878561E-3,8.881664276E-2,8.902456802E-2
2.409946954E0,-9.090721607E-3,-8.450806141E-3,2.657032013E-2,2.932642589E-2
2.419946954E0,2.485889941E-2,1.604010165E-2,1.127729416E-1,1.165889622E-1
2.429946954E0,-1.590989530E-3,-7.832899690E-3,1.055917740E-1,1.058938539E-1
2.439946954E0,1.992452145E-2,1.856666803E-2,5.531406403E-2,6.165511654E-2
2.449947420E0,1.521617919E-2,1.857845485E-2,9.362220764E-2,9.665303336E-2
2.459947420E0,7.105991244E-4,6.206721067E-3,2.418041229E-2,2.497440042E-2
2.469947420E0,-1.863703132E-3,8.185207844E-3,2.896118164E-2,3.015329267E-2
2.479947420E0,7.806658745E-3,-2.538362145E-2,1.219940186E-2,2.922494764E-2
2.489947420E0,-6.610237062E-3,-1.554027200E-3,-9.349822998E-3,1.155549327E-2
2.499946953E0,-1.854561269E-3,-2.064588666E-2,6.008529663E-2,6.356048226E-2
2.509946953E0,-4.295632243E-3,-3.728283942E-2,2.417373657E-2,4.464114818E-2
2.519946953E0,1.973667741E-2,1.725926995E-3,9.362220764E-2,9.569552248E-2
2.529946953E0,9.940184653E-3,-7.277831435E-3,9.363555908E-2,9.444253293E-2
2.539946519E0,-1.171997935E-2,2.369582653E-3,5.532932281E-2,5.660659680E-2
2.549946519E0,-7.113091648E-3,2.207374573E-2,5.773639679E-2,6.222007584E-2
2.559947019E0,2.076178789E-4,1.010815799E-2,1.942634583E-2,2.189979167E-2
2.569947019E0,2.806380391E-3,7.594615221E-3,2.181720734E-2,2.327110842E-2
2.579947019E0,-9.251371026E-3,4.735723138E-3,-2.368259430E-2,2.586271858E-2
2.589947019E0,1.239027828E-2,-9.678736329E-3,7.440567017E-3,1.739422233E-2
2.599947019E0,5.160264671E-3,-7.161706686E-3,1.056089401E-1,1.059771985E-1
2.609946519E0,3.249719739E-4,-2.428352833E-3,1.941394806E-2,1.956792997E-2
2.619946819E0,5.138501525E-3,2.875360847E-2,1.032152176E-1,1.072686130E-1
2.629946819E0,1.240153611E-2,4.822626710E-3,1.008195877E-1,1.016938793E-1
2.639946819E0,9.875997901E-3,-5.273699760E-3,4.334831238E-2,4.477078768E-2
2.649946819E0,-9.198665619E-3,2.346931398E-2,8.165550232E-2,8.545785632E-2
2.659946819E0,-1.144909859E-2,-2.803608775E-3,-1.890277863E-2,2.227682923E-2
2.669946819E0,-4.127584398E-3,1.079846919E-2,3.614807129E-2,3.795163959E-2
2.679946819E0,-6.290242076E-3,-1.856711507E-2,1.219081879E-2,2.308508111E-2
2.689946819E0,5.714572966E-3,-1.384110749E-2,-6.964683533E-3,1.651482417E-2
2.699946952E0,-3.907233477E-3,-1.628993452E-2,7.922840118E-2,8.098004689E-2
2.709946952E0,-1.499772072E-3,-1.156188548E-2,3.852462769E-2,4.025013603E-2
2.719946952E0,1.063718647E-2,2.243392169E-2,1.127548218E-1,1.154559674E-1
2.729946952E0,-3.643169999E-3,-1.819877326E-2,8.881378174E-2,9.073233086E-2
2.739946952E0,6.010338664E-3,1.052419841E-2,3.853321075E-2,4.039419827E-2
2.749946485E0,1.099697500E-2,1.772603393E-2,7.923507690E-2,8.193499344E-2
2.759946485E0,1.786874235E-2,4.255622625E-4,2.145767212E-4,1.787509719E-2
2.769946485E0,-1.719683409E-3,9.809121490E-3,3.852176666E-2,3.978822291E-2
2.779946485E0,-4.081279039E-3,1.695901155E-4,7.394790649E-3,8.447989592E-3
2.789946485E0,2.213095874E-2,2.103418112E-3,2.654075623E-2,3.462102603E-2
2.799946485E0,-9.414814413E-3,-7.727563381E-3,7.442378998E-2,7.541388785E-2
2.809946985E0,-7.059954107E-3,-1.969519258E-2,2.653884888E-2,3.379429038E-2
2.819946985E0,-2.430520952E-3,1.621480286E-2,8.639621735E-2,8.793823762E-2
2.829946985E0,9.559400380E-3,-5.475282669E-4,9.597396851E-2,9.645042537E-2
2.839947418E0,-9.496323764E-3,1.143333316E-2,4.569244385E-2,4.804894064E-2
2.849947418E0,9.789898992E-3,1.557759941E-2,1.103239059E-1,1.118475210E-1
2.859946918E0,1.473017782E-2,1.157283783E-3,-6.996154785E-3,1.634819948E-2
2.869946918E0,1.059100032E-4,1.511466503E-2,8.637332916E-2,8.768589571E-2
2.879946918E0,-9.449526668E-3,-2.557033300E-2,4.968643188E-3,2.770961745E-2
2.889946918E0,2.501949668E-3,-1.838573813E-2,1.215076447E-2,2.217963471E-2
2.899946918E0,9.689390659E-3,-1.567617059E-3,6.482601166E-2,6.556488010E-2
2.909946918E0,1.392289996E-4,-1.605443656E-2,7.360458374E-3,1.766184208E-2
2.919946918E0,1.434836537E-2,1.029804349E-2,1.055278778E-1,1.069955994E-1
2.929946918E0,-2.954408526E-3,-8.565470576E-3,1.151142120E-1,1.154702456E-1
2.939946918E0,6.705567241E-3,2.500483394E-2,2.583503723E-3,2.601693379E-2
2.949947384E0,-2.672865987E-3,1.305274665E-2,9.356498718E-2,9.450886326E-2
2.959947384E0,1.415866613E-2,1.059187949E-2,1.859664917E-4,1.768305181E-2
2.969947384E0,4.366368055E-3,1.481062174E-2,1.214790344E-2,1.964665988E-2
2.979947084E0,4.028268158E-3,1.399672031E-2,1.213359833E-2,1.895677537E-2
2.989947084E0,1.589554548E-2,-1.957197487E-2,-4.626274109E-3,2.563460510E-2
2.999946950E0,3.304615617E-3,-1.466281712E-2,8.875751495E-2,9.002119279E-2
3.009946950E0,5.534604192E-3,-2.889397740E-2,2.651119232E-2,3.960223595E-2
3.019946950E0,-9.040176868E-3,5.099907517E-3,9.595584869E-2,9.651558814E-2
3.029946950E0,4.932314157E-3,-4.063874483E-3,9.117794037E-2,9.140163898E-2
3.039946950E0,-2.850752324E-2,3.130659461E-3,3.371524811E-2,4.426282712E-2
3.049946950E0,7.548011839E-3,1.035806537E-2,8.878326416E-2,8.970356735E-2
3.059947050E0,-1.386813819E-2,1.988230646E-2,-2.201080322E-3,2.434083239E-2
3.069947050E0,5.697399378E-3,2.186068892E-2,2.173042297E-2,3.134583485E-2
3.079947050E0,-1.338124275E-2,-1.946060359E-2,-1.419639587E-2,2.755558756E-2
3.089947050E0,-1.048202813E-2,-1.972799003E-2,1.213073730E-2,2.542088299E-2
3.099947050E0,-1.966138557E-2,-2.667491138E-2,1.031150818E-1,1.083090073E-1
3.109946550E0,-4.707090557E-3,-2.160772681E-3,2.411174774E-2,2.466175215E-2
3.119946550E0,1.247539371E-2,1.987704635E-2,9.834098816E-2,1.011023361E-1
3.129946550E0,1.254831254E-2,-2.566139400E-2,9.833908081E-2,1.024038188E-1
3.139946550E0,7.678046823E-4,1.498255134E-2,4.805755615E-2,5.034476211E-2
3.149946550E0,1.038353145E-2,-4.175737500E-3,9.354877472E-2,9.421585727E-2
3.159946550E0,-8.632570505E-3,-4.169866443E-3,-1.179981232E-2,1.520344140E-2
3.169946550E0,5.669005215E-3,1.571995020E-2,1.934051514E-2,2.555992919E-2
3.179946550E0,1.760522276E-2,-1.336261630E-2,2.651691437E-2,3.452028578E-2
3.189946550E0,5.249038339E-3,-1.293823123E-3,1.840591431E-4,5.409275323E-3
3.199947016E0,5.208961666E-3,-1.326152682E-2,7.919597626E-2,8.046740974E-2
3.209947016E0,1.909342408E-2,-2.730375528E-2,4.329109192E-2,5.462758035E-2
3.219947016E0,4.298664629E-3,1.862472296E-2,8.400630951E-2,8.615346110E-2
3.229947016E0,-8.720830083E-4,-7.595270872E-3,7.922363281E-2,7.959166203E-2
3.239947016E0,6.509318948E-3,1.636698842E-2,5.049037933E-2,5.347455421E-2
3.249946549E0,-3.561392426E-3,1.857332885E-2,7.443237305E-2,7.679733210E-2
3.259946549E0,3.706909716E-3,-1.507355273E-2,-4.582405090E-3,1.618491915E-2
3.269946549E0,-1.056656241E-3,1.371416450E-2,4.569816589E-2,4.772334016E-2
3.279946849E0,-1.534853876E-2,-1.266989112E-2,4.090881348E-2,4.549323909E-2
3.289946849E0,-5.686640739E-3,1.568675041E-3,2.021789551E-4,5.902499523E-3
3.299946849E0,1.820284873E-2,-1.273284853E-2,8.639812469E-2,8.920821198E-2
3.309947349E0,2.289278805E-2,-7.934808731E-3,1.457118988E-2,2.827296428E-2
3.319946915E0,-1.066706330E-2,2.079993486E-2,8.879375458E-2,9.181913952E-2
3.329946915E0,1.803781092E-2,-1.756529510E-2,9.837055206E-2,1.015414582E-1
3.339946915E0,-1.588109136E-2,1.850645244E-2,2.175998688E-2,3.268325066E-2
3.349946915E0,-1.100011915E-2,8.880212903E-3,9.598064423E-2,9.701620931E-2
3.359946815E0,-1.790232211E-2,-1.560328901E-2,-1.656436920E-2,2.895399959E-2
3.369946815E0,3.620967269E-3,2.983142436E-2,3.850364685E-2,4.884215499E-2
3.379946815E0,3.732390702E-3,6.357878447E-4,4.567527771E-2,4.583193167E-2
3.389946815E0,3.862656653E-3,-7.013440132E-3,1.693439484E-2,1.873184955E-2
3.399946815E0,1.585049182E-2,-9.448543191E-3,1.127052307E-1,1.142058759E-1
3.409946815E0,-3.343105316E-3,-9.444817901E-3,6.481933594E-2,6.558907874E-2
3.419946815E0,3.808006644E-3,9.594261646E-3,6.002902985E-2,6.091005825E-2
3.429946815E0,-5.697846413E-3,-2.443909645E-3,9.354686737E-2,9.375209087E-2
3.439946815E0,-3.210932016E-3,1.426696777E-2,9.745597839E-3,1.757364877E-2
3.449947281E0,1.759909093E-3,9.538367391E-3,7.678508759E-2,7.739526735E-2
3.459947281E0,-2.869799733E-3,4.754096270E-3,-2.138137817E-2,2.209073368E-2
3.469947281E0,-9.855344892E-3,1.134569943E-2,1.535415649E-4,1.502918140E-2
3.479947281E0,-1.219153404E-2,-2.017991245E-2,1.690483093E-2,2.901095789E-2
3.489947281E0,1.421201974E-2,-1.771336794E-2,2.648448944E-2,3.488800782E-2
3.499946814E0,9.389348328E-3,-1.525707543E-2,1.031017303E-1,1.046465719E-1
3.509946814E0,2.461604774E-3,1.107382774E-2,8.155059814E-2,8.233583191E-2
3.519946814E0,-1.198776811E-2,1.446068287E-3,5.521392822E-2,5.651880720E-2
3.529946814E0,9.527727962E-3,-2.243411541E-2,1.174669266E-1,1.199689375E-1
3.539946814E0,-2.432316542E-3,1.625522971E-3,2.169799805E-2,2.189432821E-2
3.549946814E0,-1.181466877E-2,-3.942251205E-4,4.564666748E-2,4.715251917E-2
3.559947314E0,1.228048652E-2,-4.488080740E-4,2.547264099E-3,1.254991364E-2
3.569947314E0,5.233809352E-3,9.114667773E-3,1.516342163E-4,1.051156134E-2
3.579947314E0,2.793498337E-3,-7.700428367E-3,4.564189911E-2,4.637114603E-2
3.589947314E0,7.550440729E-3,-7.815733552E-3,-1.421642303E-2,1.789417587E-2
3.599947314E0,2.426567674E-2,-2.223594487E-2,7.437038422E-2,8.132782033E-2
3.609946814E0,-1.594722271E-4,-7.368937135E-3,9.353828430E-2,9.382823294E-2
3.619947247E0,4.311159253E-3,5.166500807E-3,4.566669464E-2,4.615978579E-2
3.629947247E0,-5.114294589E-3,-2.601400018E-2,1.198863983E-1,1.227828682E-1
3.639947247E0,6.512649357E-3,1.060415804E-2,7.373809814E-3,1.446498671E-2
3.649947247E0,1.453734934E-3,1.290261745E-3,6.005477905E-2,6.008622644E-2
3.659947247E0,4.064247012E-3,8.470937610E-3,4.984855652E-3,1.063596134E-2
3.669947247E0,-5.322761834E-3,-3.559514880E-3,-1.417160034E-2,1.555108343E-2
3.679947247E0,-5.295924842E-3,-1.066622138E-2,6.484031677E-2,6.592481913E-2
3.689947247E0,1.907281578E-3,-8.273705840E-3,2.892589569E-2,3.014629949E-2
3.699947713E0,6.434507668E-3,-2.210067213E-2,1.079492569E-1,1.103761055E-1
3.709947713E0,1.370085776E-2,-1.247303188E-2,7.921981812E-2,8.135766473E-2
3.719947713E0,1.589156687E-3,1.662717760E-2,6.486225128E-2,6.697835542E-2
3.729947713E0,1.331542432E-2,-1.178461313E-2,9.839057922E-2,9.998441734E-2
3.739947713E0,-1.116828620E-2,1.486250758E-2,-9.342193604E-3,2.080628102E-2
3.749947246E0,3.290645778E-3,4.478842020E-4,3.375434875E-2,3.391732610E-2
3.759946812E0,-6.378561258E-3,1.248738170E-2,-2.131271362E-2,2.551181113E-2
3.769946812E0,9.430125356E-4,-9.055137634E-3,2.336502075E-4,9.107106162E-3
3.779946812E0,1.060402393E-2,-1.618723571E-2,7.206344604E-2,7.461643371E-2
3.789946812E0,-1.098512113E-2,-1.378959417E-2,9.812355042E-3,2.017692011E-2
3.799946812E0,-1.103039086E-2,-1.384441555E-2,1.199474335E-1,1.212465429E-1
3.809947312E0,3.567643464E-3,-1.329594851E-2,5.052471161E-2,5.236656194E-2
3.819947312E0,1.273848116E-3,1.346410811E-2,5.532073975E-2,5.694988272E-2
3.829947312E0,1.115163416E-2,-9.838432074E-3,8.406352997E-2,8.536879266E-2
3.839947312E0,-1.025925577E-2,1.650397480E-2,1.702213287E-2,2.583382512E-2
3.849947312E0,2.100965381E-2,2.202495933E-3,4.575347900E-2,5.039481503E-2
3.859946812E0,9.063057601E-3,7.047384977E-3,2.657890320E-3,1.178427041E-2
3.869946812E0,-2.828687429E-3,-1.239329576E-4,2.632141113E-4,2.843609259E-3
3.879946812E0,-2.934470773E-3,4.693865776E-6,2.660751343E-4,2.946512638E-3
3.889946812E0,1.820422709E-3,4.658624530E-3,2.420711517E-2,2.471843738E-2
3.899946812E0,2.111220360E-2,1.424109936E-2,1.151885986E-1,1.179701119E-1
3.909946812E0,1.321841031E-2,-5.512312055E-3,7.447814941E-2,7.584264431E-2
3.919946812E0,3.054820001E-3,1.328679919E-2,6.968593597E-2,7.100704634E-2
3.929946812E0,1.926574856E-2,-1.360650361E-2,1.079874039E-1,1.105331869E-1
3.939946812E0,-7.665477693E-3,1.969620585E-2,9.822845459E-3,2.330640183E-2
3.949947278E0,6.836310029E-3,-6.654426455E-3,5.052375793E-2,5.141659890E-2
3.959947278E0,-1.497811824E-2,-1.891493797E-2,-9.336471558E-3,2.587061278E-2
3.969947278E0,-1.268318295E-2,9.806707501E-3,-1.651954651E-2,2.302020979E-2
3.979946911E0,-5.528077483E-3,3.504008055E-4,6.488895416E-2,6.512494755E-2
3.989946911E0,-9.096935391E-4,1.000338793E-2,2.640724182E-3,1.038598751E-2
3.999946444E0,1.581758261E-3,-9.160727262E-3,1.055936813E-1,1.060021057E-1
4.009946444E0,-5.415484309E-3,7.679313421E-3,7.925701141E-2,7.981211176E-2
4.019946444E0,6.461627781E-3,-1.849278808E-3,7.686424255E-2,7.715752879E-2
4.029946444E0,1.888684928E-3,-1.182278991E-2,1.079797745E-1,1.086415077E-1
4.039946444E0,-2.694778144E-3,1.219816506E-2,-3.567600250E-2,3.779992347E-2
4.049946444E0,-4.884518683E-3,-2.286702394E-3,4.093551636E-2,4.128927258E-2
4.059947377E0,1.201348007E-2,-2.280816436E-3,-9.344100952E-3,1.538954351E-2
4.069947377E0,-1.963563263E-2,-2.583622932E-3,9.807586670E-3,2.210026997E-2
4.079947377E0,8.943051100E-3,2.259343863E-3,8.882141113E-2,8.929908103E-2
4.090724532E0,6.992697716E-3,1.978129148E-3,1.698303223E-2,1.847252554E-2
4.100724532E0,-1.768395305E-4,-3.160239756E-2,9.120464325E-2,9.652476239E-2
4.110724032E0,-2.373822033E-3,-5.265265703E-3,5.768299103E-2,5.797141975E-2
4.120724032E0,-9.346932173E-3,4.251122475E-3,2.894878387E-2,3.071594490E-2
4.130724032E0,1.473321021E-2,-5.321204662E-4,9.598827362E-2,9.711384715E-2
4.140724498E0,3.801733255E-4,-5.381420255E-3,-2.851581573E-2,2.902164645E-2
4.150724498E0,2.913206816E-3,-2.981171012E-3,5.528354645E-2,5.544046052E-2
4.160724498E0,-8.913591504E-3,-2.446515858E-2,2.145767212E-4,2.603924233E-2
4.170724498E0,1.517769694E-2,-7.207661867E-3,5.013465881E-3,1.753418701E-2
4.180724498E0,-6.550759077E-3,-1.401798427E-2,6.487846375E-2,6.669806133E-2
4.190724498E0,-1.132354140E-2,-2.084751427E-2,3.376102448E-2,4.126315808E-2
4.200724964E0,5.504742265E-3,1.581206918E-3,9.842395782E-2,9.859045530E-2
4.210724964E0,5.598634481E-3,2.123638988E-3,9.843349457E-2,9.861545215E-2
4.220724964E0,-4.134654999E-3,-2.058044076E-3,8.168792725E-2,8.181838653E-2
4.230724964E0,1.980705559E-2,-1.842421293E-2,1.008501053E-1,1.044151081E-1
4.240724964E0,2.726584673E-3,2.541403472E-2,-4.480361938E-3,2.594958705E-2
4.250724497E0,2.797797322E-3,-7.926672697E-4,7.453346252E-2,7.459016709E-2
4.260724497E0,-1.135777682E-2,-3.247469664E-3,-9.269714355E-3,1.501575032E-2
4.270724497E0,1.522865891E-2,1.105363667E-2,-2.603244781E-2,3.212138346E-2
4.280724863E0,5.745440722E-3,-9.664148092E-4,4.100608826E-2,4.141791063E-2
4.290724863E0,3.259032965E-3,8.678764105E-3,3.382587433E-2,3.507323789E-2
4.300724863E0,1.279670000E-2,-1.047171652E-2,1.176252365E-1,1.187817690E-1
4.310725363E0,3.166519105E-3,-8.303821087E-4,7.213592529E-2,7.221016615E-2
4.320725363E0,5.638360977E-3,-5.626723170E-3,6.734657288E-2,6.781601585E-2
4.330725363E0,3.389880061E-3,-2.010580897E-2,7.213115692E-2,7.495757894E-2
4.340725363E0,5.994528532E-3,3.776296973E-3,1.227188110E-2,1.417017491E-2
4.350725363E0,7.919333875E-3,2.796262503E-2,7.692527771E-2,8.223212631E-2
4.360724863E0,2.665795386E-3,6.105452776E-3,3.051757812E-4,6.669044227E-3
4.370724863E0,-2.693496644E-3,1.769964397E-2,-3.082275391E-2,3.564511859E-2
4.380724863E0,8.935958147E-3,-1.388455927E-2,7.451725006E-2,7.632465454E-2
4.390724863E0,3.746226430E-3,2.248287201E-4,-4.496574402E-3,5.856956699E-3
4.400724863E0,-1.303953677E-2,-4.620313644E-3,1.008520126E-1,1.017963912E-1
4.410724863E0,1.334100962E-3,-1.890781522E-2,7.691001892E-2,7.921133954E-2
4.420724863E0,-2.498379722E-2,-4.544287920E-3,5.775547028E-2,6.309148138E-2
4.430724863E0,-2.851694822E-3,-1.380506158E-2,9.367179871E-2,9.472654201E-2
4.440724396E0,-2.516433597E-3,1.732625067E-2,7.475852966E-3,1.903732591E-2
4.450724862E0,5.501136184E-4,7.780060172E-3,4.577922821E-2,4.643888130E-2
4.460724862E0,-4.160851240E-3,-1.617047191E-2,7.470130920E-3,1.829206661E-2
4.470724862E0,1.501809806E-2,1.501142979E-2,-2.105712891E-3,2.133823611E-2
4.480724862E0,5.142122507E-3,2.616330981E-3,5.295658112E-2,5.326993613E-2
4.490724862E0,-1.884073019E-2,-4.562854767E-3,2.822875977E-4,1.938743005E-2
4.500724395E0,5.532920361E-3,-6.980642676E-3,9.365558624E-2,9.407821966E-2
4.510724395E0,1.751756668E-2,-1.422414184E-2,7.928848267E-2,8.243697494E-2
4.520724395E0,1.503306627E-2,2.397495508E-2,6.731605530E-2,7.302220795E-2
4.530724395E0,3.086671233E-3,-1.667129993E-2,9.844207764E-2,9.989145324E-2
4.540724395E0,1.465872675E-2,7.428884506E-3,1.704216003E-2,2.367491951E-2
4.550724395E0,2.764344215E-3,2.418075502E-2,1.128139496E-1,1.154094352E-1
4.560724495E0,2.685405314E-3,9.428247809E-3,7.457733154E-3,1.231750958E-2
4.570724495E0,2.772755921E-3,2.129232883E-2,2.900314331E-2,3.608647620E-2
4.580724495E0,1.676589251E-2,-6.012693048E-3,4.095745087E-2,4.466274074E-2
4.590724495E0,-1.019265503E-2,-8.897215128E-3,-1.411628723E-2,1.955301048E-2
4.600724495E0,2.335996181E-2,-8.762761950E-3,1.127834320E-1,1.155100703E-1
4.610723995E0,3.633402288E-3,-1.115940511E-2,2.419853210E-2,2.689429104E-2
4.620723995E0,-8.660398424E-3,9.424835443E-4,1.056098938E-1,1.059685823E-1
4.630723995E0,-1.582972705E-3,-1.329441369E-2,9.842967987E-2,9.933604138E-2
4.640723995E0,-8.865766227E-3,1.801830530E-2,1.224040985E-2,2.351783940E-2
4.650723995E0,-1.351030916E-2,6.111189723E-3,9.125137329E-2,9.244830026E-2
4.660723995E0,3.571122885E-3,3.783330321E-3,-1.170253754E-2,1.280686893E-2
4.670723995E0,1.329265535E-3,6.123095751E-3,-4.522323608E-3,7.727267257E-3
4.680723995E0,-5.708821118E-3,-1.116360724E-2,2.659130096E-2,2.939921856E-2
4.690723995E0,-1.255887002E-2,-2.813467383E-2,-2.146720886E-3,3.088516632E-2
4.700724461E0,-2.636283636E-3,-8.482664824E-3,1.127862930E-1,1.131355536E-1
4.710724461E0,1.676329225E-2,-1.757200062E-2,2.660083771E-2,3.601926901E-2
4.720724461E0,-7.158592343E-3,1.675361395E-2,1.271762848E-1,1.284746529E-1
4.730724461E0,1.441737264E-2,-2.626709640E-2,9.844684601E-2,1.029057942E-1
4.740724461E0,-1.183643192E-2,1.488023996E-2,4.338741302E-2,4.737077444E-2
4.750724461E0,-2.047680318E-3,2.439707518E-2,8.408737183E-2,8.757908639E-2
4.760724461E0,2.884782851E-3,2.913042903E-3,2.870559692E-4,4.109767899E-3
4.770724461E0,-6.528653204E-3,9.566873312E-3,3.379535675E-2,3.572498447E-2
4.780724961E0,1.038107276E-2,-2.478584647E-3,1.703166962E-2,2.009944834E-2
4.790724961E0,-1.348789781E-2,-1.928550005E-2,-1.648902893E-2,2.873572645E-2
4.800724961E0,-1.592178643E-2,-7.310509682E-3,7.449436188E-2,7.652683703E-2
4.810725461E0,1.310728490E-3,2.456158400E-3,5.055236816E-2,5.062897046E-2
4.820725461E0,1.807590574E-2,1.688009501E-2,9.125518799E-2,9.454726496E-2
4.830725461E0,1.324803382E-2,1.648959517E-2,9.124660492E-2,9.366621621E-2
4.840725461E0,5.982890725E-3,1.366992295E-2,2.180576324E-2,2.642258665E-2
4.850725461E0,-6.065696478E-3,8.317008615E-3,1.295366287E-1,1.299450018E-1
4.860725361E0,-1.816411316E-2,-4.331737757E-3,-9.344100952E-3,2.088088077E-2
4.870725361E0,-6.173707545E-3,2.200335264E-2,1.459884644E-2,2.711804767E-2
4.880725361E0,-5.683526397E-3,-7.348254323E-3,1.458168030E-2,1.728943938E-2
4.890725361E0,-3.917366266E-4,4.139095545E-3,-2.191543579E-3,4.699833271E-3
4.900725361E0,2.027891576E-3,-1.735281944E-2,8.160877228E-2,8.345791993E-2
4.910725361E0,2.114267647E-2,-2.213764191E-2,8.879280090E-2,9.392150685E-2
4.920725361E0,9.073242545E-3,8.997648954E-3,7.442760468E-2,7.551655285E-2
4.930725361E0,-3.279082477E-3,-1.241448522E-2,1.127424240E-1,1.134712563E-1
4.940725361E0,-1.510644704E-2,-5.167394876E-3,2.654838562E-2,3.097940430E-2
4.950725827E0,1.157815009E-2,-2.433985472E-3,1.031694412E-1,1.038456135E-1
4.960725827E0,-7.684059441E-3,2.663731575E-4,-1.893138885E-2,2.043313995E-2
4.970725827E0,9.227722883E-3,2.115964890E-4,4.571056366E-2,4.663315637E-2
4.980725827E0,-7.645107806E-3,-2.844999731E-2,1.219367981E-2,3.188315931E-2
4.990725827E0,-1.007705927E-2,-1.307581365E-2,-1.172733307E-2,2.024979919E-2
5.000725360E0,9.382978082E-3,-1.257438958E-2,9.602260590E-2,9.729592177E-2
5.010725360E0,2.155289054E-3,-2.161473036E-2,2.660083771E-2,3.434306926E-2
5.020725360E0,1.151123643E-2,5.473330617E-3,1.032342911E-1,1.040181944E-1
5.030725360E0,-7.630325854E-3,3.215253353E-3,1.008434296E-1,1.011827901E-1
5.040725360E0,-5.153231323E-3,8.054286242E-3,-4.505157471E-3,1.056994625E-2
5.050724893E0,4.613965750E-3,1.517809927E-2,1.056299210E-1,1.068145289E-1
5.060724993E0,1.438844204E-2,1.759143174E-2,-2.845191956E-2,3.641424805E-2
5.070724993E0,7.135055959E-3,9.903192520E-3,3.139495850E-2,3.368420497E-2
5.080724493E0,6.752140820E-3,-1.690846682E-2,-1.889038086E-2,2.623612290E-2
5.090724493E0,-5.258649588E-3,-2.169331908E-2,-2.367877960E-2,3.254132898E-2
5.100724493E0,-7.753521204E-3,-1.452052593E-2,8.406352997E-2,8.566002472E-2
5.110723993E0,4.177637398E-3,-4.348650575E-3,3.379631042E-2,3.433007449E-2
5.120723993E0,9.051635861E-3,1.966416836E-2,9.844207764E-2,1.007941183E-1
5.130723993E0,1.140648872E-2,-4.274860024E-3,8.647155762E-2,8.732532674E-2
5.140723993E0,1.142552495E-2,1.487740874E-2,4.576778412E-2,4.946281406E-2
5.150723993E0,3.911003470E-3,7.530540228E-3,9.365272522E-2,9.403636491E-2
5.160723993E0,4.104413092E-3,-2.085432410E-3,-1.409149170E-2,1.482448561E-2
5.170723993E0,-8.337728679E-3,9.518623352E-3,2.181911469E-2,2.522291965E-2
5.180723993E0,8.215136826E-3,-1.970469952E-2,-1.649856567E-2,2.698085109E-2
5.190723993E0,-1.801490784E-3,1.156297326E-2,-4.521369934E-3,1.254553728E-2
5.200724459E0,2.886861563E-3,-9.995371103E-3,7.209587097E-2,7.284267996E-2
5.210724459E0,1.014930010E-2,-7.589533925E-3,1.463317871E-2,1.935818269E-2
5.220724459E0,5.443677306E-3,2.037897706E-3,9.364509583E-2,9.382531973E-2
5.230724459E0,-1.541182399E-3,-9.914159775E-3,9.124946594E-2,9.179940546E-2
5.240724459E0,-1.091515273E-2,1.648157835E-2,4.575824738E-2,4.984576398E-2
5.250723992E0,8.318468928E-3,1.170450449E-2,1.199798584E-1,1.208360822E-1
5.260723992E0,-1.098237932E-2,1.649230719E-3,-1.650238037E-2,1.989123363E-2
5.270723992E0,-3.615088761E-3,1.350314915E-2,-1.411151886E-2,1.986300250E-2
5.280723992E0,1.509971917E-3,-1.781319082E-2,-4.541397095E-3,1.844489279E-2
5.290723992E0,1.110754162E-2,-5.824699998E-3,-2.145767212E-3,1.272434391E-2
5.300723992E0,3.823950887E-3,-1.062338054E-2,9.123039246E-2,9.192640166E-2
5.310724492E0,3.720141947E-3,-1.546093822E-2,-2.848339081E-2,3.262182733E-2
5.320724492E0,3.674894571E-3,3.638431430E-3,1.032009125E-1,1.033303991E-1
5.330724492E0,1.545638591E-2,-1.743806899E-2,8.884620667E-2,9.185115434E-2
5.340724492E0,1.033156365E-2,1.666691899E-2,2.900409698E-2,3.501092741E-2
5.350724492E0,-4.580520093E-3,2.629843354E-2,1.056261063E-1,1.089470656E-1
5.360724392E0,1.950039715E-2,1.193851233E-2,2.671241760E-3,2.302018892E-2
5.370724392E0,-4.663445055E-3,2.128127217E-2,2.661132812E-2,3.439190384E-2
5.380724392E0,1.667280495E-2,-2.016882598E-2,4.096221924E-2,4.860727694E-2
5.390724392E0,6.459042430E-3,5.915924907E-3,5.047798157E-3,1.010928597E-2
5.400724392E0,-1.309548318E-2,-1.828283072E-2,7.447910309E-2,7.780032375E-2
5.410724392E0,-5.840510130E-3,-1.575776935E-2,3.138446808E-2,3.560061362E-2
5.420724392E0,-5.814470351E-3,-1.550368965E-2,3.139019012E-2,3.548966743E-2
5.430724392E0,-1.063618064E-2,-4.843920469E-4,6.971168518E-2,7.052008242E-2
5.440724392E0,-1.030310988E-2,2.643020451E-2,2.183628082E-2,3.579850477E-2
5.450724858E0,-1.923396438E-2,3.576569259E-2,6.731796265E-2,7.861830733E-2
5.460724858E0,-1.992978156E-3,-1.264029741E-2,1.462936401E-2,1.943623863E-2
5.470724858E0,8.706226945E-4,3.895118833E-3,1.701450348E-2,1.747636299E-2
5.480724858E0,1.053249091E-2,-2.237185836E-2,-1.650428772E-2,2.972919313E-2
5.490724858E0,-1.529753208E-3,-7.937759161E-3,-2.368354797E-2,2.502515954E-2
5.500724391E0,-3.910735250E-3,-5.604177713E-3,9.123897552E-2,9.149454253E-2
5.510724391E0,1.041539758E-2,-5.600258708E-3,4.574775696E-2,4.725146211E-2
5.520724391E0,2.461825311E-2,6.919130683E-3,1.032228470E-1,1.063432598E-1
5.530724391E0,-1.133663952E-2,-8.231401443E-5,8.167934418E-2,8.246236376E-2
5.540724391E0,-1.843012869E-2,2.157528698E-2,5.055522919E-2,5.797407912E-2
5.550724391E0,-8.389450610E-3,3.067226708E-2,9.124374390E-2,9.662604023E-2
5.560724891E0,8.668817580E-3,1.335044205E-2,2.897930145E-2,3.306331220E-2
5.570724891E0,-1.037519425E-2,1.049141586E-2,7.420539856E-3,1.651601872E-2
5.580724891E0,-6.440505385E-4,-4.500761628E-3,1.937770844E-2,1.990395037E-2
5.590724891E0,2.086558938E-2,-1.167961955E-2,-1.414203644E-2,2.778099220E-2
5.600724891E0,1.849044859E-2,-6.893172860E-3,9.360027313E-2,9.565784679E-2
5.610724391E0,1.268163323E-3,-3.551921248E-2,7.411956787E-3,3.630647046E-2
5.620724391E0,-1.554485410E-2,2.440185845E-2,1.271276474E-1,1.303784181E-1
5.630724391E0,-1.575604081E-2,2.913609147E-3,7.445621490E-2,7.616081590E-2
5.640724391E0,1.094870269E-3,3.416796029E-2,7.445812225E-2,8.193082583E-2
5.650724391E0,-2.268419042E-2,2.904753387E-2,7.684516907E-2,8.522623850E-2
5.660691557E0,1.982457936E-3,1.869753003E-3,-1.176548004E-2,1.207694648E-2
5.670658690E0,-2.282679081E-3,1.574981213E-2,-4.596710205E-3,1.656493135E-2
5.680625356E0,7.561601698E-3,-1.365849376E-2,4.806232452E-2,5.053433794E-2
5.690592022E0,2.812452614E-3,-1.405650377E-2,2.562522888E-3,1.456233881E-2
5.700558688E0,7.561579347E-3,-1.405279338E-2,1.031217575E-1,1.043491991E-1
5.710525354E0,1.951026917E-2,-1.387380064E-2,9.594345093E-2,9.888517949E-2
5.720492020E0,5.222119391E-3,7.864013314E-3,1.246786118E-1,1.250354728E-1
5.730458686E0,-6.976626813E-3,7.821321487E-4,8.397960663E-2,8.427253041E-2
5.740425352E0,-6.779521704E-3,3.176465631E-3,-2.615928650E-2,2.720955932E-2
5.750391552E0,-9.016118944E-3,1.515163481E-2,5.285072327E-2,5.571410403E-2
5.760358218E0,1.248564571E-2,-2.782228589E-2,1.693916321E-2,3.488418254E-2
5.770324884E0,-6.860390306E-3,8.544296026E-3,-2.202987671E-3,1.117690048E-2
5.780291550E0,3.291592002E-4,-1.532061398E-2,4.328918457E-2,4.592148799E-2
5.790258216E0,-2.119309828E-2,-1.304785907E-2,2.892017365E-2,3.815456047E-2
5.800224882E0,1.017405838E-2,-5.416154861E-3,1.127281189E-1,1.133158197E-1
5.810191548E0,1.246813685E-2,-7.623404264E-3,3.372192383E-2,3.675239959E-2
5.820158214E0,1.713047922E-2,1.444968581E-2,1.103496552E-1,1.126023673E-1
5.830124880E0,-1.938268542E-3,-1.181721687E-2,7.443523407E-2,7.539235751E-2
5.840091546E0,-1.131225377E-2,-2.133557200E-2,-1.415252686E-2,2.799049365E-2
5.850058212E0,1.748467982E-2,3.200185299E-2,8.642005920E-2,9.379903654E-2
5.860024378E0,-1.361593604E-2,1.529833674E-2,2.269744873E-4,2.048131682E-2
5.869991044E0,-4.020482302E-3,2.487297356E-2,-2.166748047E-3,2.528880956E-2
5.879957710E0,5.599446595E-3,-1.658293605E-2,3.133773804E-2,3.589430868E-2
5.889924376E0,-1.585718244E-2,-3.321392834E-2,1.697254181E-2,4.053001908E-2
5.899891042E0,-2.278426662E-2,-3.521981835E-2,1.079616547E-1,1.158243381E-1
5.909857708E0,-1.506754011E-2,-3.680023551E-2,5.530166626E-2,6.811433322E-2
5.919824841E0,-9.682551026E-3,9.735241532E-3,6.489562988E-2,6.633226590E-2
5.929791507E0,-1.899316907E-3,-1.371563971E-2,9.602832794E-2,9.702147157E-2
5.939758173E0,5.796059966E-3,1.322060823E-2,2.651214600E-4,1.443776585E-2
5.949724839E0,6.006449461E-3,2.273713052E-2,7.209205627E-2,7.583085861E-2
5.959724339E0,1.567033678E-2,1.081153750E-3,-2.134323120E-3,1.585192996E-2
5.969723872E0,1.801877469E-2,-1.573389769E-2,-1.889514923E-2,3.048374062E-2
5.979723872E0,1.342266798E-3,-3.723154962E-2,3.856849670E-2,5.362386507E-2
5.989723872E0,3.372699022E-3,-2.455435693E-2,-1.169395447E-2,2.740511110E-2
5.999723872E0,1.272509992E-2,-1.406793296E-2,1.224060059E-1,1.238671271E-1
6.009723872E0,1.481804997E-2,1.037016511E-3,6.495952606E-2,6.663625165E-2
6.019723872E0,7.036156952E-3,2.788683772E-2,9.370613098E-2,9.802051931E-2
6.029724138E0,-1.867935061E-4,-8.023649454E-3,8.652400970E-2,8.689544348E-2
6.039724138E0,4.212677479E-3,-5.856305361E-4,3.146457672E-2,3.175073547E-2
6.049724138E0,2.596367896E-2,3.778123856E-2,8.892631531E-2,1.000471097E-1
6.059724138E0,-1.268532872E-2,-8.149594069E-3,2.725601196E-3,1.532195647E-2
6.069724138E0,-8.083023131E-3,1.072695851E-2,-1.643371582E-2,2.122427661E-2
6.079724638E0,1.259431243E-3,7.788985968E-4,6.496620178E-2,6.498307644E-2
6.089724638E0,-1.082556695E-2,-1.593053341E-2,-4.467010498E-3,1.977192396E-2
6.099724638E0,3.514349461E-3,-1.621648669E-3,8.890914917E-2,8.899335482E-2
6.109724638E0,-1.150332391E-3,-1.592132449E-2,1.708126068E-2,2.337907835E-2
6.119724638E0,-9.472146630E-4,8.080154657E-3,1.128530502E-1,1.131459105E-1
6.129724638E0,4.109866917E-3,-1.366093755E-3,7.693862915E-2,7.706043001E-2
6.139725138E0,-5.874186754E-4,-3.631725907E-3,5.113601685E-3,6.299477435E-3
6.149725138E0,2.108491212E-2,3.234839439E-2,6.497001648E-2,7.557840419E-2
6.159725138E0,-6.277188659E-4,7.948949933E-3,1.228713989E-2,1.464764973E-2
6.169725638E0,-1.509265602E-2,5.150645971E-3,7.491111755E-3,1.761914229E-2
6.179725638E0,1.132930070E-2,-1.652505994E-2,6.973934174E-2,7.256036415E-2
6.189725638E0,-3.081694245E-3,2.574503422E-3,-3.321552277E-2,3.345737377E-2
6.199725638E0,6.397448480E-3,1.934394240E-2,1.391735077E-1,1.406569611E-1
6.209725638E0,1.355247945E-2,-1.405511796E-2,7.453060150E-2,7.704561376E-2
6.219725171E0,2.333270013E-2,1.712922752E-2,9.368515015E-2,9.805474333E-2
6.229725171E0,-8.158110082E-3,-9.703949094E-3,9.367752075E-2,9.453147244E-2
6.239725171E0,-7.044821978E-4,-1.932771504E-2,-2.843379974E-2,3.438804780E-2
6.249725171E0,1.880481839E-3,2.162069082E-3,6.494045258E-2,6.500363940E-2
6.259725171E0,-2.448558807E-4,-1.226995885E-2,9.869575500E-3,1.574866233E-2
6.269725171E0,6.437301636E-6,-1.231467724E-2,9.865760803E-3,1.577924438E-2
6.279725437E0,-6.972402334E-3,-2.201111615E-2,3.141117096E-2,3.898416716E-2
6.289725437E0,1.437504590E-2,-9.684622288E-3,2.902507782E-2,3.380664130E-2
6.299725437E0,1.155193150E-2,-6.834477186E-3,1.032600403E-1,1.041287334E-1
6.309725437E0,-2.237384394E-2,-1.831285655E-2,4.341602325E-2,5.216225343E-2
6.319725437E0,4.115894437E-3,1.595990360E-2,9.371089935E-2,9.514931302E-2
6.329725170E0,-2.809144557E-3,1.608163118E-3,1.008920670E-1,1.009439778E-1
6.339725170E0,-7.287986577E-3,8.740186691E-3,9.906768799E-3,1.508806415E-2
6.349725170E0,5.052007735E-3,2.744382620E-2,4.580879211E-2,5.363890205E-2
6.359725170E0,1.700965315E-2,-1.818448305E-3,1.706600189E-2,2.416368091E-2
6.369725170E0,7.400132716E-3,1.739852130E-2,-4.480361938E-3,1.943049538E-2
6.379724670E0,9.663000703E-3,-2.861230075E-2,4.578876495E-2,5.485114705E-2
6.389724670E0,1.213658601E-2,-7.052138448E-3,-6.884574890E-3,1.563415326E-2
6.399724670E0,1.456367970E-2,-1.908610761E-2,1.080379486E-1,1.106732967E-1
6.409724670E0,2.028442919E-3,-2.120763063E-2,9.128761292E-2,9.374063393E-2
6.419725170E0,-5.074173212E-3,1.711262763E-2,7.931709290E-2,8.130061798E-2
6.429725170E0,2.128355205E-3,-2.043426037E-3,1.032590866E-1,1.033012316E-1
6.439724670E0,-1.252480596E-2,2.438096702E-2,-4.479408264E-3,2.777350204E-2
6.449724670E0,6.776027381E-3,2.187368274E-2,8.889389038E-2,9.179594921E-2
6.459724670E0,1.163827628E-2,2.784579992E-4,-2.089500427E-3,1.182763821E-2
6.469724170E0,-2.580739558E-3,1.213678718E-2,1.227188110E-2,1.745167286E-2
6.479724170E0,-2.863854170E-4,-1.181593537E-2,4.339885712E-2,4.497954140E-2
6.489724170E0,-7.496409118E-3,-1.408913732E-2,3.042221069E-4,1.596222074E-2
6.499724170E0,9.276092052E-3,-1.634725928E-2,1.200208664E-1,1.214836908E-1
6.509724170E0,4.506476223E-3,-1.983806491E-3,3.382682800E-2,3.418330161E-2
6.519724170E0,6.591849029E-3,1.504309475E-2,6.017112732E-2,6.237236356E-2
6.529724436E0,-1.247701794E-2,7.930606604E-3,7.214355469E-2,7.364280671E-2
6.539724436E0,1.384422183E-2,-1.157701015E-2,1.227951050E-2,2.182833068E-2
6.549724436E0,1.956328750E-3,1.241637766E-2,8.171367645E-2,8.267477593E-2
6.559724436E0,-1.693240181E-2,3.397911787E-4,3.042221069E-4,1.693854303E-2
6.569724436E0,2.362616360E-3,7.351070642E-3,2.694129944E-3,8.177929555E-3
6.579724169E0,-4.741951823E-3,-1.420508325E-2,6.015682220E-2,6.199285245E-2
6.589724169E0,-5.137920380E-5,-1.898410916E-2,-4.488945007E-3,1.950768228E-2
6.599724169E0,-1.043081284E-7,-6.486043334E-3,1.176300049E-1,1.178086873E-1
6.609724169E0,2.648003399E-2,-1.321060956E-2,2.186870575E-2,3.679609621E-2
6.619724169E0,9.866729379E-3,1.540768147E-2,1.080579758E-1,1.095959631E-1
6.629724169E0,2.578057349E-3,-1.798363030E-2,1.104555130E-1,1.119396163E-1
6.639724169E0,-6.974115968E-3,-8.350074291E-3,-9.256362915E-3,1.428433718E-2
6.649724169E0,-2.434186637E-3,1.108470559E-2,8.412837982E-2,8.489040142E-2
6.659724169E0,2.625852823E-3,-1.769317687E-2,-1.164531708E-2,2.134378178E-2
6.669724669E0,2.543851733E-3,1.858396828E-2,7.516860962E-3,2.020738126E-2
6.679724669E0,-6.894491613E-3,-2.211265266E-2,3.385353088E-2,4.101908063E-2
6.689724669E0,-9.454049170E-3,1.193547249E-2,-6.836891174E-3,1.669064499E-2
6.699724669E0,4.805043340E-3,2.486884594E-3,9.851455688E-2,9.866301716E-2
6.709724669E0,9.675674140E-3,-1.182873547E-2,4.105186462E-2,4.380403226E-2
6.719724169E0,1.454953849E-2,2.415572107E-2,8.414936066E-2,8.874853706E-2
6.729724169E0,-9.130813181E-3,2.679198980E-3,9.133243561E-2,9.182681335E-2
6.739724169E0,-1.684851944E-3,1.691997051E-2,7.527351379E-3,1.859529906E-2
6.749724169E0,2.220889926E-2,1.862914860E-2,5.061149597E-2,5.832498528E-2
6.759724169E0,5.095742643E-3,-2.025535703E-2,-1.553058624E-1,1.567040427E-1
6.769724169E0,7.002912462E-3,-3.624886274E-3,-2.072334290E-3,8.153229597E-3
6.779724435E0,1.199023426E-2,-2.774524689E-2,-1.644325256E-2,3.440850182E-2
6.789724435E0,-6.506101042E-2,-3.233334422E-2,-1.163293839E0,1.165560352E0
6.799724435E0,5.982062966E-2,-1.172842383E-1,9.101715088E-1,9.196446464E-1
6.809724435E0,4.547698051E-2,-2.659827471E-2,-6.179046631E-2,8.120151292E-2
6.819724435E0,7.372976094E-2,4.697155952E-2,4.171056747E-1,4.261684514E-1
6.829724168E0,-2.887869626E-2,1.665969193E-2,1.968955994E-2,3.871954550E-2
6.839724168E0,1.154770702E-2,4.041236639E-2,3.644657135E-2,5.563147902E-2
6.849724168E0,-3.676585853E-3,-1.296478510E-2,6.756401062E-2,6.889483629E-2
6.859724168E0,2.723251283E-2,-2.032403648E-2,2.016401291E-1,2.044832949E-1
6.869724168E0,-4.736311734E-3,3.278826177E-2,8.673191071E-2,9.284356248E-2
6.879724168E0,-2.394365892E-2,5.529835820E-3,4.600811005E-2,5.215960196E-2
6.889724168E0,-6.949162483E-2,1.673805714E-2,-2.700510025E-1,2.793506621E-1
6.899724168E0,-1.587112248E-2,-5.787393451E-2,3.213195801E-1,3.268754463E-1
6.909724168E0,1.264370978E-3,-1.798763871E-3,3.641891479E-2,3.648522359E-2
6.919724668E0,1.868276298E-2,3.679874539E-2,1.321907043E-1,1.384831239E-1
6.929724668E0,-1.222305745E-2,2.446995676E-2,1.130285263E-1,1.162911419E-1
6.939724668E0,1.459585130E-2,3.115163743E-2,8.667564392E-2,9.325304627E-2
6.949724668E0,7.674060762E-3,6.078869104E-3,1.560840607E-1,1.563907857E-1
6.959724668E0,1.043327898E-2,5.392238498E-3,6.508350372E-2,6.613465055E-2
6.969724168E0,-8.781343699E-3,4.392951727E-3,4.177093506E-4,9.827741507E-3
6.979724168E0,1.549268514E-2,-3.473699093E-2,8.659076691E-2,9.457612143E-2
6.989724168E0,1.789878309E-2,1.087141037E-2,-1.994132996E-3,2.103641048E-2
6.999724168E0,-1.363898069E-2,-8.261844516E-3,1.249065399E-1,1.259203065E-1
7.009724168E0,-6.489977241E-3,-1.298822463E-2,3.392505646E-2,3.690153437E-2
7.019724168E0,-8.924297988E-3,8.563667536E-3,4.110813141E-2,4.292852157E-2
7.029724434E0,-1.616096497E-2,1.341633499E-2,1.440639496E-1,1.455870750E-1
7.039724434E0,2.960205078E-3,1.347883046E-2,2.802848816E-3,1.408181970E-2
7.049724434E0,1.051777601E-2,4.162088037E-2,1.081361771E-1,1.163458383E-1
7.059724434E0,-1.074868441E-2,2.181157470E-3,9.944915771E-3,1.480516849E-2
7.069724434E0,3.925286233E-3,2.047687769E-2,-2.120208740E-2,2.973615480E-2
7.079724167E0,-8.045427501E-3,-1.602847874E-2,2.906513214E-2,3.415293459E-2
7.089724167E0,8.563779294E-3,-2.074314654E-2,7.519721985E-3,2.366775576E-2
7.099724167E0,1.085939258E-2,5.603298545E-3,9.610939026E-2,9.688311647E-2
7.109724167E0,2.044318616E-2,-8.703649044E-3,4.582977295E-2,5.093177256E-2
7.119724167E0,5.741484463E-3,2.720417082E-2,1.080837250E-1,1.116025231E-1
7.129724167E0,1.465868205E-2,2.774938941E-3,8.652973175E-2,8.780644465E-2
7.139724167E0,-9.198658168E-3,2.439352870E-2,1.230812073E-2,2.882966164E-2
7.149724167E0,4.982501268E-3,1.976594329E-3,6.735992432E-2,6.757286177E-2
7.159724167E0,2.584666014E-3,-1.042801142E-2,-1.405429840E-2,1.769031441E-2
7.169724667E0,2.775475383E-3,-9.092837572E-4,2.185726166E-2,2.205152937E-2
7.179724667E0,3.496780992E-4,-8.207440376E-3,1.946067810E-2,2.112350218E-2
7.189724667E0,-6.885468960E-3,1.255884767E-3,2.903556824E-2,2.986722539E-2
7.199724667E0,-7.029615343E-3,-1.796272397E-2,8.649730682E-2,8.862200084E-2
7.209724667E0,-1.193045080E-2,-3.944149613E-2,4.100894928E-2,5.813519755E-2
7.219724167E0,-2.065338194E-3,1.784220338E-3,3.862380981E-2,3.872012072E-2
7.229724167E0,1.483833790E-2,-7.728666067E-3,1.008758545E-1,1.022538340E-1
7.239724167E0,-2.105714753E-2,9.620457888E-3,2.721786499E-3,2.331018648E-2
7.249724167E0,3.081612289E-3,2.638028562E-2,5.778789520E-2,6.359918738E-2
7.259724167E0,2.237396687E-2,-9.528070688E-3,1.708412170E-2,2.971945052E-2
7.269724167E0,-2.530051395E-2,-2.405449748E-3,-1.643753052E-2,3.026705477E-2
7.279724433E0,-1.319118589E-2,-2.634251118E-2,5.299568176E-2,6.063396380E-2
7.289724433E0,-1.271837205E-2,-2.573928237E-2,5.300521851E-2,6.028118142E-2
7.299724899E0,1.364492625E-2,-8.903682232E-3,8.892059326E-2,9.040094842E-2
7.309724899E0,1.361621916E-2,-8.783057332E-3,5.540370941E-2,5.772447087E-2
7.319724899E0,-8.986219764E-4,1.584418118E-2,6.739044189E-2,6.923378696E-2
7.329724632E0,-1.027972251E-2,3.872707486E-3,1.104860306E-1,1.110307773E-1
7.339724632E0,6.729647517E-3,1.099117100E-2,-9.230613708E-3,1.585238863E-2
7.349724632E0,-3.065168858E-4,3.721523285E-2,8.653640747E-2,9.419987965E-2
7.359724632E0,1.642613113E-2,-9.140595794E-3,-1.643562317E-2,2.496994162E-2
7.369724632E0,-5.051076412E-3,2.191823721E-2,1.468849182E-2,2.686399612E-2
7.379724632E0,-1.225902140E-2,-1.723515987E-2,5.058574677E-2,5.482929981E-2
7.389724632E0,-2.024322748E-4,-3.392502666E-2,-2.088546753E-3,3.398985790E-2
7.399724632E0,2.288527787E-3,-7.006570697E-3,7.693481445E-2,7.728709509E-2
7.409724632E0,-2.413268015E-2,-1.604306698E-2,3.384971619E-2,4.455972997E-2
7.419725132E0,9.436160326E-5,1.077806950E-2,9.610939026E-2,9.671189473E-2
7.429725132E0,-2.280995250E-3,8.381590247E-3,9.850215912E-2,9.888442418E-2
7.439725132E0,5.098529160E-3,2.993005514E-2,-3.557777405E-2,4.677158546E-2
7.449725132E0,1.501070708E-2,3.007635474E-3,8.651447296E-2,8.785852964E-2
7.459725132E0,1.037333161E-2,-1.380704343E-2,1.707839966E-2,2.428810803E-2
7.469724632E0,-8.701860905E-3,-9.007140994E-3,1.707839966E-2,2.117835468E-2
7.479724632E0,-3.894388676E-3,-3.295210004E-2,9.896278381E-3,3.462576333E-2
7.489724632E0,8.014060557E-3,-1.543693244E-2,-1.403141022E-2,2.234736053E-2
7.499724632E0,-1.675672829E-3,6.575450301E-3,8.893394470E-2,8.919243772E-2
7.509724632E0,7.802143693E-3,-7.781058550E-3,7.696342468E-2,7.774822864E-2
7.519724632E0,7.515780628E-3,2.384535968E-2,7.218837738E-2,7.639535304E-2
7.529724898E0,3.520697355E-4,-9.949505329E-5,8.655261993E-2,8.655339317E-2
7.539724898E0,5.225330591E-3,9.547665715E-3,2.669715881E-2,2.883054438E-2
7.549724898E0,-6.548948586E-3,4.759326577E-3,7.697486877E-2,7.739942080E-2
7.559724898E0,7.134824991E-4,-7.200449705E-3,5.146980286E-3,8.879579905E-3
7.569724898E0,3.248617053E-3,6.993696094E-3,1.232433319E-2,1.453803585E-2
7.579724631E0,-1.341352612E-2,-2.174720168E-2,1.471805573E-2,2.948702474E-2
7.589724631E0,1.053982228E-2,4.706487060E-3,2.190399170E-2,2.475931595E-2
7.599724164E0,3.258928657E-3,-7.237493992E-5,6.500053406E-2,6.508221940E-2
7.609724164E0,1.537944376E-2,-2.344012260E-3,5.063724518E-2,5.297312794E-2
7.619724164E0,2.963319421E-2,1.201778650E-4,8.176517487E-2,8.696944557E-2
7.629724164E0,-9.184964001E-3,1.451638341E-2,1.200780869E-1,1.213006014E-1
7.639724164E0,7.206462324E-3,1.437561214E-2,7.545471191E-3,1.776303631E-2
7.649724164E0,-4.903785884E-3,-3.902763128E-4,8.415603638E-2,8.429969093E-2
7.659690830E0,8.147209883E-5,-1.236166060E-2,7.537841797E-3,1.447882417E-2
7.669657496E0,-1.162094623E-2,6.726279855E-3,9.928703308E-3,1.669935272E-2
7.679624162E0,-1.964338124E-3,-5.233287811E-3,5.063056946E-2,5.093820265E-2
7.689590828E0,2.726919949E-3,-1.240655780E-2,-9.224891663E-3,1.569896159E-2
7.699557494E0,-7.002934813E-3,-5.169227719E-3,1.033077240E-1,1.036737568E-1
7.709524160E0,1.676955819E-2,-4.340185225E-2,7.218551636E-2,8.588182364E-2
7.719490793E0,-2.291053534E-5,1.732486486E-2,6.980991364E-2,7.192757127E-2
7.729457459E0,-9.468361735E-3,-9.064972401E-3,1.009330750E-1,1.017806918E-1
7.739424125E0,7.496178150E-3,2.787411213E-3,-1.160144806E-2,1.409098808E-2
7.749390791E0,5.112916231E-3,2.225561440E-2,4.586696625E-2,5.123702643E-2
7.759357457E0,1.232124865E-2,-8.813261986E-3,-9.200096130E-3,1.772367129E-2
7.769324123E0,1.005902886E-2,-6.471619010E-3,-1.877880096E-2,2.226452964E-2
7.779290856E0,-1.134549826E-2,-2.077288926E-2,4.586601257E-2,5.161321893E-2
7.789257522E0,-2.025634050E-3,-3.216673434E-2,7.573127747E-3,3.310822036E-2
7.799224188E0,7.415615022E-3,-2.198964357E-4,8.181381226E-2,8.214949529E-2
7.809190854E0,7.215611637E-3,-3.077405691E-2,7.703876495E-2,8.327111706E-2
7.819157520E0,-1.218970120E-2,1.337216794E-2,7.227516174E-2,7.450572257E-2
7.829123920E0,-2.463057637E-3,1.828351617E-2,7.946014404E-2,8.157369740E-2
7.839090586E0,1.210130751E-2,-8.230865002E-3,4.425048828E-4,1.464187805E-2
7.849057252E0,2.715110779E-3,1.804761589E-2,6.029701233E-2,6.299855523E-2
7.859023918E0,-6.768077612E-3,-2.749219537E-2,1.959228516E-2,3.443087740E-2
7.868990584E0,-1.877828315E-2,8.425861597E-3,-9.139060974E-3,2.251980233E-2
7.878957250E0,1.003646851E-2,-2.504335344E-2,6.747913361E-2,7.267278530E-2
7.888924383E0,1.496295631E-2,-8.277699351E-3,5.227088928E-3,1.788107454E-2
7.898891049E0,2.957858145E-3,1.812176406E-2,6.748008728E-2,6.993360735E-2
7.908857715E0,5.155950785E-4,3.878578544E-3,7.466506958E-2,7.476751852E-2
7.918824381E0,3.406808525E-2,1.359017193E-2,6.030273438E-2,7.058149176E-2
7.928791047E0,2.223221213E-2,2.315349877E-2,7.466697693E-2,8.127430839E-2
7.938757713E0,1.185165346E-2,2.022701502E-2,-6.744384766E-3,2.439427294E-2
7.948724379E0,1.835949719E-2,9.809866548E-3,1.718425751E-2,2.699265316E-2
7.958691545E0,3.200697154E-2,-2.678221464E-2,2.709684372E-1,2.741635045E-1
7.968658211E0,6.867922097E-2,-5.091831088E-2,3.404111862E-1,3.509833123E-1
7.978624877E0,-1.316964626E-4,2.612955868E-2,-1.527872086E-1,1.550054911E-1
7.988591543E0,-9.164288640E-4,2.577331662E-2,-1.527891159E-1,1.549503715E-1
7.998558709E0,-1.640357077E-3,-4.492878914E-3,1.848278046E-1,1.848896808E-1
8.008525375E0,-1.216959208E-2,-1.293157041E-2,2.894401550E-3,1.799172157E-2
8.018491575E0,2.140911669E-2,-3.556609154E-4,1.992378235E-1,2.003850969E-1
8.028458241E0,-1.251325011E-4,1.895411313E-2,1.345958710E-1,1.359239587E-1
8.038424907E0,-7.216766477E-3,2.322867513E-3,2.912521362E-3,8.121589287E-3
8.048391573E0,4.837952554E-3,9.556531906E-3,2.685642242E-2,2.891367345E-2
8.058358239E0,-2.588935196E-3,-2.922862768E-4,2.924633026E-2,2.936214996E-2
8.068324905E0,-9.567342699E-3,4.377156496E-3,-4.976940155E-2,5.086931173E-2
8.078291505E0,-2.548165619E-3,-2.868205309E-3,1.465616226E-1,1.466118310E-1
8.088258171E0,-2.019777894E-4,-2.668832242E-2,2.206230164E-2,3.462733750E-2
8.098224837E0,-1.448803395E-2,1.881447434E-2,1.226215363E-1,1.248996746E-1
8.108191937E0,-1.452168822E-2,2.116784453E-3,7.713222504E-2,7.851586046E-2
8.118158603E0,1.248510927E-2,1.869143546E-2,4.839134216E-2,5.335700244E-2
8.128125269E0,-1.675307751E-3,2.096697688E-2,9.387874603E-2,9.620623541E-2
8.138091935E0,5.835346878E-3,-5.836069584E-3,-2.584838867E-2,2.713393039E-2
8.148058601E0,-8.491866291E-3,1.091970503E-2,-1.905441284E-3,1.396361191E-2
8.158025267E0,1.342393458E-3,-8.220762014E-3,1.964092255E-2,2.133421634E-2
8.167991933E0,3.986723721E-3,6.080850959E-3,-1.867008209E-2,2.003603453E-2
8.177958599E0,1.595547050E-2,8.783191442E-4,9.145641327E-2,9.284193024E-2
8.187924799E0,1.201629639E-3,-6.443470716E-3,-9.102821350E-3,1.121711127E-2
8.197891465E0,5.897983909E-3,2.235583961E-2,8.427715302E-2,8.739112254E-2
8.207858131E0,3.314353526E-3,5.279392004E-3,8.187675476E-2,8.211370098E-2
8.217824797E0,-1.330971718E-3,2.449785173E-2,4.835700989E-2,5.422468654E-2
8.227791463E0,-1.274324954E-3,7.121041417E-3,7.228660583E-2,7.264768763E-2
8.237758129E0,-1.072586328E-2,-5.374848843E-3,-2.110290527E-2,2.427479669E-2
8.247725295E0,-5.983218551E-3,-3.645986319E-3,-6.750106812E-3,9.729134721E-3
8.257724795E0,-1.086976379E-2,-4.194492102E-2,3.634738922E-2,5.655670488E-2
8.267724795E0,-3.798045218E-3,1.222252846E-3,1.001262665E-2,1.077829958E-2
8.277724795E0,3.356918693E-3,3.737330437E-3,8.902645111E-2,8.916807466E-2
8.287724795E0,-8.588932455E-3,1.097685099E-2,4.114151001E-2,4.343828800E-2
8.297724295E0,-8.642092347E-3,1.582954824E-2,5.072116852E-2,5.383212139E-2
8.307724295E0,-1.063190401E-2,-8.409306407E-3,7.944297791E-2,8.059119403E-2
8.317724295E0,-1.773817092E-2,6.145372987E-3,3.156089783E-2,3.672190883E-2
8.327724295E0,1.568496227E-3,2.045661211E-2,6.507873535E-2,6.823617043E-2
8.337724295E0,-9.935781360E-3,5.631044507E-3,-6.763458252E-3,1.327300949E-2
8.347724295E0,-4.432193935E-3,1.227025688E-2,4.014968872E-4,1.305238471E-2
8.357724728E0,-3.860272467E-3,-2.902111411E-2,-2.116298676E-2,3.612476680E-2
8.367724728E0,5.677387118E-3,6.896689534E-3,7.568359375E-3,1.170799362E-2
8.377691861E0,-8.774660528E-3,2.234682441E-3,1.153135300E-1,1.156684861E-1
8.387658527E0,-1.049658656E-2,-1.229636371E-2,7.220935822E-2,7.399709659E-2
8.397625193E0,-1.029989123E-2,3.558917344E-2,6.023597717E-2,7.071810215E-2
8.407591426E0,-1.208592951E-2,-7.923051715E-3,1.176853180E-1,1.185692984E-1
8.417558092E0,-4.341848195E-3,1.333305240E-2,9.932518005E-3,1.718362144E-2
8.427524758E0,3.274016082E-3,2.031518519E-2,3.865718842E-2,4.379274080E-2
8.437491424E0,3.824733198E-3,-9.219512343E-3,2.721786499E-3,1.034582590E-2
8.447458090E0,-7.736742496E-3,2.316996455E-3,2.425765991E-2,2.556676987E-2
8.457424756E0,1.418378204E-2,-1.008491218E-2,3.861236572E-2,4.235327512E-2
8.467391922E0,-5.010142922E-3,-3.402386606E-2,3.142929077E-2,4.658889687E-2
8.477358588E0,2.139054239E-3,-1.720170677E-2,8.410549164E-2,8.587320882E-2
8.487325254E0,-1.097917557E-4,-1.432932913E-2,3.383445740E-2,3.674387344E-2
8.497291920E0,2.375908196E-3,3.647342324E-2,3.863334656E-2,5.318355957E-2
8.507258586E0,2.519845963E-3,-1.134769619E-2,1.008853912E-1,1.015528532E-1
8.517225252E0,-9.314067662E-3,6.294548512E-4,1.468944550E-2,1.740482343E-2
8.527191918E0,-4.393152893E-3,2.691373229E-2,1.947593689E-2,3.351060871E-2
8.537158584E0,-6.693698466E-3,-2.341468632E-2,-1.165008545E-2,2.699588164E-2
8.547124750E0,1.487448812E-2,2.920493484E-3,-6.861686707E-3,1.663918337E-2
8.557091416E0,5.488298833E-3,-1.868651807E-2,6.256866455E-2,6.552972734E-2
8.567058082E0,-6.508864462E-3,2.805382013E-3,-6.865501404E-3,9.867653944E-3
8.577024748E0,5.417294800E-3,7.539048791E-3,9.369277954E-2,9.415158670E-2
8.586991414E0,1.729067415E-2,-2.028569579E-3,7.932853699E-2,8.121637327E-2
8.596958080E0,9.941451252E-3,2.202896774E-2,6.257152557E-2,6.707684910E-2
8.606924746E0,5.238294601E-3,5.339205265E-3,9.609222412E-2,9.638289464E-2
8.616891412E0,7.553674281E-3,-4.624754190E-3,2.708435059E-3,9.261855480E-3
8.626858078E0,2.526894212E-3,2.149912715E-2,5.537986755E-2,5.946030098E-2
8.636824744E0,-1.678211987E-2,-1.736594737E-2,-4.487991333E-3,2.456334141E-2
8.646791410E0,6.998904049E-3,-7.831886411E-3,3.004074097E-4,1.050777556E-2
8.656757643E0,-2.604566514E-3,-3.100186586E-3,6.015682220E-2,6.029293641E-2
8.666724309E0,-3.766939044E-4,-1.974533498E-2,7.485389709E-3,2.111992450E-2
8.676723842E0,6.819456816E-3,-1.022891700E-2,1.104383469E-1,1.111204940E-1
8.686723842E0,4.326522350E-3,-3.176797926E-2,5.537128448E-2,6.398361077E-2
8.696723842E0,-7.938832045E-3,1.932872832E-2,6.736183167E-2,7.052830040E-2
8.706723842E0,-7.310956717E-4,1.459662616E-2,7.454490662E-2,7.596406452E-2
8.716724342E0,6.653927267E-3,-6.893143058E-3,-2.122592926E-2,2.328798493E-2
8.726724342E0,2.003528178E-3,1.705545187E-2,5.299568176E-2,5.570857070E-2
8.736724342E0,-2.633817494E-3,-6.942018867E-3,-2.075195312E-3,7.709413474E-3
8.746724342E0,-2.768114209E-4,-1.429876685E-2,-2.123260498E-2,2.559989985E-2
8.756724342E0,1.637957245E-2,-2.172778547E-2,5.059146881E-2,5.744461482E-2
8.766723842E0,-3.234483302E-3,-2.338705957E-2,2.187919617E-2,3.218875056E-2
8.776723842E0,8.468188345E-3,-1.054210961E-2,1.296415329E-1,1.303448248E-1
8.786723842E0,-2.032102272E-2,-2.429141104E-2,6.501007080E-2,7.231407830E-2
8.796723842E0,1.086858660E-2,2.902688086E-2,6.023502350E-2,6.774174520E-2
8.806723842E0,1.126192510E-3,5.218029022E-3,1.057300568E-1,1.058647299E-1
8.816723842E0,-1.081967354E-2,-1.908108592E-3,3.390312195E-2,3.563885368E-2
8.826723842E0,2.056045830E-2,2.681738138E-2,4.826641083E-2,5.891986765E-2
8.836723842E0,-1.024144143E-2,-1.639056206E-2,-9.201049805E-3,2.140553584E-2
8.846723842E0,4.270307720E-3,-6.926685572E-3,-1.399326324E-2,1.618721462E-2
8.856723842E0,-2.012217417E-2,-1.865686476E-2,-1.001787186E-1,1.038689374E-1
8.866723842E0,-6.332099438E-4,-2.065086365E-2,1.272830963E-1,1.289490044E-1
8.876723842E0,-1.502936333E-2,2.553291619E-2,-1.875209808E-2,3.506355307E-2
8.886723842E0,4.257105291E-3,1.537680626E-3,1.153259277E-1,1.154147175E-1
8.896723842E0,1.879781485E-3,2.565586567E-2,4.110622406E-2,4.849204758E-2
8.906723842E0,3.118848801E-2,8.168488741E-3,7.460594177E-2,8.127418126E-2
8.916723842E0,-4.756517708E-3,3.264889121E-3,-1.360921860E-1,1.362144157E-1
8.926723842E0,-4.981487989E-3,1.296250522E-2,1.033391953E-1,1.042680730E-1
8.936723842E0,-2.447463572E-3,-5.026809871E-2,-6.667518616E-2,8.353713112E-2
8.946723842E0,-2.197869122E-3,-4.993790388E-2,-6.667137146E-2,8.332884642E-2
8.956723842E0,-7.017910480E-3,-9.350582957E-3,3.867626190E-2,4.040467428E-2
8.966724342E0,1.915139705E-2,-4.447638988E-3,4.825592041E-2,5.210749808E-2
8.976724342E0,-7.704466581E-2,3.674975038E-2,2.193355560E-2,8.813345304E-2
8.986724342E0,-4.514292628E-2,3.204198182E-2,-6.426429749E-2,8.482023534E-2
8.996724342E0,-5.416130275E-2,-2.792975307E-2,1.272706985E-1,1.411075779E-1
9.006724342E0,-2.599962056E-3,2.255855501E-2,1.248731613E-1,1.269210567E-1
9.016723842E0,-1.422386914E-1,3.156363964E-2,-6.669330597E-2,1.602376540E-1
9.026723842E0,-2.036212236E-1,1.194177344E-1,7.932186127E-2,2.490264156E-1
9.036723842E0,-6.050465107E-1,1.170597300E-1,-6.681346893E-2,6.198776493E-1
9.046723842E0,-7.749661207E-1,2.065078020E-1,-2.323150635E-3,8.020120682E-1
9.056723842E0,-5.532904863E-1,2.483557463E-1,1.914186478E-1,6.359654375E-1
9.066723842E0,-5.842865705E-1,1.528216749E-1,7.063865662E-3,6.039827473E-1
9.076723842E0,-7.089580297E-1,2.918241918E-1,2.369174957E-1,8.024417403E-1
9.086723842E0,-1.121145010E0,3.660892844E-1,3.819465637E-2,1.180019631E0
9.096723842E0,-1.077567816E0,4.810767174E-1,-1.605300903E-1,1.190947990E0
9.106723842E0,-1.097331524E0,2.682568431E-1,-3.377037048E-1,1.179042832E0
9.116723842E0,-9.200446606E-1,4.543237388E-2,6.511278152E-1,1.128057494E0
9.126723842E0,-6.904110909E-1,-3.019124866E-1,5.912637711E-1,9.578159901E-1
9.136723842E0,-4.363606274E-1,-3.861242235E-1,-5.676269531E-1,8.134512100E-1
9.146723842E0,-2.618631721E-1,-4.983853698E-1,-6.298732758E-1,8.448080499E-1
9.156723842E0,-1.154440716E-1,-4.828343987E-1,2.416687012E-1,5.521414234E-1
9.166723842E0,2.942780554E-1,-6.482167840E-1,2.383708954E-2,7.122870066E-1
9.176723842E0,2.664549947E-1,-5.835677385E-1,-1.389741898E-1,6.564018549E-1
9.186723842E0,-1.856018603E-2,-4.520830512E-1,-1.139737129E0,1.226264364E0
9.196723842E0,4.145509377E-2,-2.294669002E-1,-1.030206680E-1,2.549251677E-1
9.206723842E0,-2.105768956E-2,6.728163362E-2,-1.580944061E-1,1.731013742E-1
9.216724342E0,-7.282832265E-2,1.616002917E-1,-2.801837921E-1,3.315442297E-1
9.226724342E0,-2.502811551E-1,-1.284991354E-1,-1.101980209E-1,3.021527564E-1
9.236724342E0,-4.295762628E-2,3.174865246E-2,4.069623947E-1,4.104530732E-1
9.246724342E0,-4.065557420E-1,1.244422942E-1,-2.993154526E-1,5.199646104E-1
9.256724342E0,-2.894209623E-1,2.210555673E-1,-4.550743103E-2,3.670163260E-1
9.266723842E0,-2.923120558E-1,1.223958880E-1,1.293144226E-1,3.422708157E-1
9.276723842E0,-3.214078844E-1,1.389832497E-1,5.748176575E-2,3.548570490E-1
9.286723842E0,-5.489219725E-2,1.519590616E-1,1.898700714E0,1.905562676E0
9.296723842E0,-3.301373720E-1,1.443791091E-1,-7.086734772E-1,7.950183072E-1
9.306723842E0,-4.002822638E-1,-1.226255149E-1,1.269531250E-1,4.374700030E-1
9.316723842E0,-5.389800072E-1,9.516933560E-2,9.290342331E-1,1.078267711E0
9.326723842E0,-2.600716949E-1,-6.504352391E-2,2.825851440E-1,3.895154812E-1
9.336723842E0,-4.789731503E-1,-7.240997255E-2,-1.067738533E0,1.172486272E0
9.346723842E0,-5.914632678E-1,5.598320067E-2,2.945899963E-1,6.631336078E-1
9.356723842E0,-5.254082084E-1,7.963125408E-2,5.771093369E-1,7.845062834E-1
9.366723842E0,-1.050163388E0,4.762089252E-2,-3.105258942E-2,1.051701077E0
9.376723842E0,-8.886949420E-1,1.548524201E-2,-6.128768921E-1,1.079646506E0
9.386723842E0,-7.488033175E-1,-1.691611409E-1,4.525184631E-1,8.911200028E-1
9.396723842E0,-6.607684493E-1,-2.979394197E-1,3.927240372E-1,8.243876581E-1
9.406723842E0,-6.249238253E-1,-2.749992013E-1,-1.962823868E-1,7.104091240E-1
9.416723842E0,-6.051636934E-1,-2.518709600E-1,-9.812736511E-2,6.627903561E-1
9.426723842E0,-4.611610770E-1,-1.687693447E-1,-1.180401802E0,1.278476064E0
9.436723842E0,-7.192193717E-2,-9.002351761E-2,-6.775836945E-1,6.873111826E-1
9.446723842E0,2.169677764E-1,-4.405803978E-2,5.387411118E-1,5.824586787E-1
9.456723842E0,-2.748437971E-2,-1.014441252E-1,-1.460457802E0,1.464234712E0
9.466724342E0,6.141051650E-2,-1.700094342E-1,1.053314209E-1,2.092108207E-1
9.476724342E0,4.826499522E-2,-2.667869925E-1,4.884138107E-1,5.586169167E-1
9.486724342E0,2.156952396E-2,-7.538297772E-2,-3.591251373E-1,3.675849588E-1
9.496724342E0,-3.196767271E-1,-1.283497810E-1,8.614921570E-2,3.550895147E-1
9.506724342E0,1.958996505E-1,-1.745537966E-1,1.999118805E0,2.016264292E0
9.516723842E0,-5.679300055E-2,1.465284824E-1,-1.314513206E0,1.323873488E0
9.526723842E0,-1.091155559E-1,9.966383129E-2,-2.006543159E0,2.011977767E0
9.536690508E0,-1.315093040E-2,-2.037172616E-1,1.220995903E0,1.237943724E0
9.546657174E0,-9.860485047E-2,-3.405997753E-1,1.818771362E-1,3.985102460E-1
9.556623840E0,2.109856755E-1,-2.329931259E-1,1.747283936E-1,3.596258660E-1
9.566590506E0,2.076230347E-1,-2.809497714E-1,3.471593857E-1,4.925035408E-1
9.576557239E0,1.805352122E-1,-2.548169494E-1,-6.153306961E-1,6.900409452E-1
9.586523905E0,4.836579859E-1,-3.150854707E-1,-3.113365173E-1,6.558462687E-1
9.596490571E0,3.351562917E-1,-2.686275840E-1,-4.693040848E-1,6.361893136E-1
9.606457237E0,8.192101121E-1,4.776476324E-2,-7.661437988E-2,8.241701545E-1
9.616423903E0,2.745217979E-1,-2.456672341E-1,1.654539108E0,1.695055830E0
9.626390569E0,5.718764663E-1,-2.777044773E-1,-4.622097015E-1,7.860027211E-1
9.636357235E0,5.688216686E-1,4.025061429E-2,-5.912303925E-1,8.214204646E-1
9.646323901E0,5.383043885E-1,6.673935056E-2,-1.060612679E0,1.191270334E0
9.656290567E0,1.216495156E0,1.886141151E-1,9.576530457E-1,1.559658650E0
9.666257233E0,1.048670292E1,2.901090622E0,2.451803207E0,1.115341221E1
9.676223899E0,1.295421982E1,1.363678455E0,1.256808281E0,1.308629042E1
9.686191065E0,3.672378659E-1,-2.964546978E-1,-6.203700066E0,6.221627082E0
9.696157731E0,6.727794409E-1,-8.501093090E-2,1.932049751E0,2.047602324E0
9.706124397E0,2.942886651E-1,9.502588511E-1,-3.854808807E-1,1.066861384E0
9.716091063E0,-7.882258892E-1,-2.122276127E-1,-1.690535545E0,1.877298869E0
9.726057729E0,5.604133010E-2,1.049732119E-1,6.461420059E-1,6.570079891E-1
9.736024395E0,-4.742473364E-2,-4.638779163E-2,7.442207336E-1,7.471716222E-1
9.745991061E0,-6.721765548E-2,-3.913909197E-2,-2.015876770E-1,2.160733053E-1
9.755957727E0,5.432881415E-3,-5.636498332E-2,3.322734833E-1,3.370640818E-1
9.765923893E0,-6.634168327E-3,6.023333967E-2,-1.298408508E-1,1.432854282E-1
9.775890559E0,4.815937579E-2,-4.414252937E-2,3.154239655E-1,3.221182490E-1
9.785857225E0,1.066294983E-1,-1.077985764E-2,-1.012296677E-1,1.474228641E-1
9.795823891E0,6.827407330E-2,2.746790648E-3,1.596975327E-1,1.737014562E-1
9.805790557E0,3.091516346E-2,-7.283210754E-3,-2.210178375E-1,2.232883270E-1
9.815757223E0,5.328147113E-2,-1.084610969E-1,5.668926239E-2,1.334780775E-1
9.825724356E0,-9.531348944E-3,-1.082162261E-1,-1.229076385E-1,1.640362332E-1
9.835724356E0,3.935504705E-2,-1.119448841E-1,-2.238750458E-2,1.207546155E-1
9.845724356E0,1.795351505E-2,-1.517744362E-2,-2.451057434E-1,2.462306012E-1
9.855724356E0,7.018630207E-2,5.805639923E-2,1.977519989E-1,2.177211877E-1
9.865724356E0,4.737194628E-2,-8.048787713E-3,-1.159830093E-1,1.255425933E-1
9.875724289E0,1.810492575E-2,-3.572316468E-2,1.568937302E-1,1.619245979E-1
9.885724289E0,8.683387935E-2,-4.319240153E-2,-5.145645142E-2,1.097883079E-1
9.895724289E0,1.889918149E-1,-5.150133371E-2,5.621814728E-2,2.037910046E-1
9.905724289E0,-2.155462503E-1,-6.848216057E-3,2.117652893E-1,3.022443082E-1
9.915724289E0,-1.817020476E-1,8.479836583E-2,6.562137604E-2,2.109800036E-1
9.925724289E0,4.084074497E-2,-5.759447813E-3,2.963447571E-2,5.078720153E-2
9.935724789E0,3.547340631E-3,-2.664276958E-2,2.002716064E-2,3.351877026E-2
9.945724789E0,5.798672140E-2,-9.046614170E-3,-1.590347290E-2,6.080478218E-2
9.955724789E0,5.475894362E-2,-3.222896159E-2,3.231048584E-3,6.362143936E-2
9.965724789E0,4.886282980E-2,-6.701628864E-2,-8.752822876E-3,8.339886682E-2
9.975724789E0,5.976154655E-2,-1.017390192E-2,9.899234772E-2,1.160794367E-1
9.985724289E0,3.901350498E-2,5.440562963E-4,2.954387665E-2,4.894068058E-2
9.995724289E0,1.578439027E-2,1.063990593E-2,5.585384369E-2,5.900852844E-2
1.000572429E1,5.530512333E-2,-1.461341977E-3,1.396169662E-1,1.501788582E-1
1.001572429E1,9.905112535E-2,-6.630495191E-3,7.886886597E-3,9.958560076E-2
1.002572429E1,1.699708253E-1,3.800708055E-2,1.260852814E-2,1.746241524E-1
1.003572429E1,3.481613100E-2,1.219919324E-2,3.405380249E-2,5.020602312E-2
1.004572429E1,1.082487851E-1,5.065050721E-2,-2.830219269E-2,1.228181073E-1
1.005572429E1,1.354847550E-1,1.025423110E-1,6.255912781E-2,1.810654270E-1
1.006572429E1,1.175192744E-2,3.628163040E-2,4.327678680E-2,5.768314120E-2
1.007572436E1,-3.794402629E-2,8.986294270E-3,8.866882324E-2,9.686414626E-2
1.008572436E1,5.327001959E-2,1.568789780E-2,7.662200928E-2,9.462947443E-2
1.009572436E1,2.400023192E-1,8.241119981E-2,2.866554260E-2,2.553711660E-1
1.010572436E1,6.603554487E-1,2.414333820E-1,9.082031250E-2,7.089483238E-1
1.011572436E1,8.817033172E-1,2.626272142E-1,-2.666759491E-2,9.203721822E-1
1.012572389E1,1.067404985E0,2.754213214E-1,-4.599094391E-2,1.103324736E0
1.013572389E1,1.174506426E0,2.434657961E-1,-1.969528198E-2,1.199636963E0
1.014572389E1,1.542005897E0,4.605136514E-1,-8.241901398E-1,1.808077541E0
1.015572389E1,1.033930659E0,1.748159230E-1,1.647443771E-1,1.061467816E0
1.016572389E1,5.957931876E-1,7.381872088E-2,5.702304840E-2,6.030508718E-1
1.017572389E1,5.600467324E-1,6.458283961E-2,4.975728989E-1,7.519322279E-1
1.018572439E1,4.972743988E-1,1.838756055E-1,-1.919202805E-1,5.638487918E-1
1.019572439E1,5.054755807E-1,9.862920642E-2,-1.823177338E-1,5.463268610E-1
1.020572439E1,3.877040744E-1,-2.213120461E-4,7.386684418E-2,3.946781080E-1
1.021572439E1,2.200596631E-1,-1.092670262E-1,-1.918516159E-1,3.117251688E-1
1.022572439E1,2.187901139E-1,-1.092080027E-1,-1.918344498E-1,3.107989027E-1
1.023572389E1,2.799077034E-1,-3.737157583E-1,-2.085924149E-1,5.113927903E-1
1.024572389E1,3.228451312E-2,-4.543284178E-1,1.067549706E0,1.160654546E0
1.025572389E1,2.478347272E-1,-3.328875899E-1,-2.181520462E-1,4.688566036E-1
1.026572389E1,9.358906746E-2,-2.596441507E-1,5.695972443E-1,6.329415607E-1
1.027572389E1,4.361649156E-1,-2.862310410E-2,1.650753021E-1,4.672354557E-1
1.028572389E1,6.822825670E-1,-6.893917918E-2,1.387500763E-1,6.996525533E-1
1.029572389E1,8.956239223E-1,-1.290729791E-1,3.733892441E-1,9.788879261E-1
1.030572389E1,1.454578161E0,-2.044404596E-1,-7.039384842E-1,1.628840974E0
1.031572435E1,1.568730116E0,-5.601288378E-2,6.703882217E-1,1.706889565E0
1.032572485E1,1.786764503E0,7.732845843E-2,-4.165534973E-1,1.836307135E0
1.033572485E1,1.374637246E0,1.372419894E-1,-1.171941757E-1,1.386433337E0
1.034572485E1,1.246193528E0,5.351039022E-2,-8.115091324E-1,1.488088957E0
1.035572485E1,8.869552612E-1,-2.902941704E-1,1.336279869E0,1.629909270E0
1.036572485E1,7.236835361E-1,3.606700897E-2,-2.408233643E0,2.514877326E0
1.037572479E1,2.417339236E-1,-2.422422022E-1,-9.476480484E-1,1.007548211E0
1.038572479E1,-5.864920616E-1,-4.405316710E-2,5.500793457E-3,5.881699402E-1
1.039572479E1,-3.713880777E-1,-2.304268330E-1,1.827707291E-1,4.737412470E-1
1.040572479E1,-5.977725983E-1,-2.233720571E-1,2.464534760E0,2.545811999E0
1.041572479E1,-3.452382684E-1,-2.917849422E-1,-2.303314209E-2,4.526129031E-1
1.042572479E1,-8.918746114E-1,-5.028297901E-1,6.761865616E-1,1.226990785E0
1.043572485E1,-1.075749636E0,-2.571049333E-1,1.339548111E0,1.737161296E0
1.044572485E1,-9.297375083E-1,-3.556663692E-1,6.108951569E-2,9.973175670E-1
1.045572485E1,-3.730041981E-1,-4.843250811E-1,1.569404602E-1,6.311364544E-1
1.046572485E1,-5.068551302E-1,-6.424469352E-1,1.447490692E0,1.662789671E0
1.047572485E1,-8.314104676E-1,-3.182570040E-1,8.513164520E-1,1.231775380E0
1.048572435E1,-5.400741100E-1,-2.441162020E-1,1.794721603E0,1.890052486E0
1.049572435E1,-3.546831906E-1,-7.861664891E-2,1.658286095E0,1.697614065E0
1.050572435E1,-1.737452596E-1,-1.183642447E-2,-6.904802322E-1,7.121028488E-1
1.051572435E1,-2.813895345E-1,-2.440921217E-1,1.775566101E0,1.814220497E0
1.052572435E1,9.862402081E-2,9.494504333E-2,9.211635590E-2,1.650050962E-1
1.053569102E1,1.696429551E-1,9.644873440E-2,9.921360016E-2,2.189164887E-1
1.054565818E1,5.314595699E-1,3.088195920E-1,3.557205200E-3,6.146799725E-1
1.055562485E1,3.194211125E-1,2.909170985E-1,8.391656876E-1,9.438546798E-1
1.056559152E1,6.423950195E-3,8.962067962E-2,6.907510757E-1,6.965702994E-1
1.057555818E1,1.407292336E-1,3.380677104E-1,-1.021208763E0,1.084878718E0
1.058552485E1,1.026152223E-1,1.782533228E-1,-3.197593689E-1,3.801975604E-1
1.059549152E1,5.328942835E-2,1.215155572E-1,8.722114563E-2,1.587870336E-1
1.060545818E1,-1.629911512E-1,-2.608104050E-2,8.201599121E-3,1.652682737E-1
1.061542438E1,-5.961479545E-1,-2.909871936E-1,-8.759784698E-2,6.691332552E-1
1.062539055E1,-6.013048291E-1,-2.907775640E-1,-8.749294281E-2,6.736275709E-1
1.063535721E1,-6.917901039E-1,-9.671323001E-2,-1.570987701E-2,6.986943516E-1
1.064532388E1,-6.917282343E-1,-9.738303721E-2,-1.572132111E-2,6.987263885E-1
1.065529055E1,-1.077048421E0,-1.479667425E-2,1.473496437E0,1.825224368E0
1.066525721E1,-7.308527231E-1,6.817488372E-2,3.624181747E-1,8.186210668E-1
1.067522388E1,-4.450702667E-1,-8.150105178E-2,-5.450839996E-1,7.084112721E-1
1.068519054E1,-7.273822427E-1,-1.728947014E-1,-7.582654953E-1,1.064868098E0
1.069515721E1,-7.676841617E-1,-3.950549364E-1,1.023120880E0,1.338724658E0
1.070512388E1,-9.207756519E-1,-2.801793218E-1,1.589126587E-1,9.754903826E-1
1.071509054E1,-7.497420311E-1,-7.851126790E-2,7.514667511E-2,7.575778212E-1
1.072505721E1,-6.111599207E-1,6.392300129E-4,-8.203506470E-1,1.022981936E0
1.073502381E1,-4.875253439E-1,1.187708974E-2,2.354831696E-1,5.415481044E-1
1.074499047E1,-5.066622496E-1,1.632162929E-2,5.116558075E-2,5.095006844E-1
1.075492381E1,-8.672506809E-1,2.272348106E-2,8.053321838E-1,1.183722952E0
1.076485761E1,-7.226414084E-1,1.474018097E-1,2.961730957E-2,7.381159013E-1
1.077479094E1,-9.005091786E-1,6.873579323E-2,1.180963516E-1,9.108172914E-1
1.078472427E1,-7.255672812E-1,6.180086732E-2,4.054088593E-1,8.334408017E-1
1.079465761E1,-6.246923208E-1,1.171337068E-2,-7.318744659E-1,9.622982556E-1
1.080459094E1,-1.357636213E0,-9.739041328E-2,3.693876266E-1,1.410357472E0
1.081452427E1,-1.039169431E0,-2.187390924E-1,7.255268097E-2,1.064417112E0
1.082445760E1,-7.331243753E-1,-1.724907011E-1,1.142767906E0,1.368628101E0
1.083442427E1,-7.958924770E-1,-2.393540889E-1,-8.013725281E-1,1.154527238E0
1.084439044E1,-1.082706928E0,-1.572584808E-1,9.396362305E-2,1.098095481E0
1.085435710E1,-1.179893136E0,-1.888448000E-2,3.190441132E-1,1.222413016E0
1.086432377E1,-8.380858898E-1,-6.384383142E-2,9.846706390E-1,1.294619736E0
1.087429043E1,-7.182688713E-1,-6.234025955E-2,-6.003627777E-1,9.382067706E-1
1.088425710E1,-6.039447784E-1,9.361542761E-2,-6.051788330E-1,8.600898579E-1
1.089422377E1,-8.270100951E-1,-1.050687879E-1,7.714939117E-1,1.135864430E0
1.090419090E1,-9.555174112E-1,-3.960157931E-2,6.038923264E-1,1.131047192E0
1.091415756E1,-8.849731684E-1,-5.446264148E-2,-4.376449585E-1,9.887754031E-1
1.092412423E1,-1.360857010E0,-2.011053860E-1,-2.533044815E-1,1.398763146E0
1.093409090E1,-1.289532542E0,-1.767465472E-1,2.686624527E-1,1.329027100E0
1.094405756E1,-1.281115413E-1,-9.977202117E-2,1.178255081E-1,2.006237114E-1
1.095402423E1,-8.890028298E-2,-4.448616505E-2,3.161811829E-2,1.043167513E-1
1.096399090E1,-7.617943734E-2,-6.343062222E-2,6.991767883E-2,1.213063573E-1
1.097395756E1,-6.380078197E-2,-2.258691192E-2,6.033420563E-2,9.066931531E-2
1.098392423E1,-6.838884205E-2,-3.908982873E-2,1.106147766E-1,1.357964552E-1
1.099389089E1,-1.088523492E-1,-6.517396867E-2,-1.388740540E-2,1.276296993E-1
1.100385756E1,-1.086041555E-1,-5.306798220E-2,7.948684692E-2,1.446693891E-1
1.101382473E1,-1.014108807E-1,-7.928818464E-2,5.266189575E-3,1.288352269E-1
1.102379139E1,-7.515037805E-2,-6.467962265E-2,-2.585506439E-2,1.024671521E-1
1.103375852E1,-4.647426307E-2,-6.441897154E-2,7.231521606E-2,1.074204426E-1
1.104372519E1,-6.567128003E-2,-7.142102718E-2,1.725006104E-2,9.854564805E-2
1.105372519E1,-7.986847311E-2,-4.017336667E-2,9.386634827E-2,1.296293320E-1
1.106372472E1,-8.682245016E-2,-5.919128656E-2,8.907604218E-2,1.377544466E-1
1.107372472E1,-9.603108466E-2,-1.854281127E-2,4.357719421E-2,1.070736986E-1
1.108372472E1,-6.453822553E-2,-2.579894662E-2,9.145545959E-2,1.148689222E-1
1.109372472E1,-6.884337962E-2,-6.632305682E-2,-2.092361450E-3,9.561661341E-2
1.110372472E1,-5.154506117E-2,-1.604431868E-2,4.807281494E-2,7.228629904E-2
1.111369139E1,-2.434019744E-2,-3.864628077E-2,2.643871307E-2,5.277296446E-2
1.112365856E1,-2.579003572E-2,-6.160834432E-2,-3.107452393E-2,7.366369573E-2
1.113362522E1,-1.692207158E-2,-4.124461114E-2,8.622550964E-2,9.706859929E-2
1.114359189E1,-1.398801804E-2,-3.310218453E-2,7.903862000E-2,8.682466654E-2
1.115355855E1,-2.658320963E-2,-1.245990396E-3,6.707572937E-2,7.216212994E-2
1.116352522E1,-2.060351521E-2,-1.561594009E-2,8.383941650E-2,8.773488578E-2
1.117349188E1,-3.187461197E-2,-6.451532245E-3,1.201343536E-2,3.466894556E-2
1.118345855E1,-1.177585945E-1,2.315372229E-3,1.053924561E-1,1.580506796E-1
1.119342522E1,-2.098164558E-1,-1.564154029E-2,4.817962646E-3,2.104538327E-1
1.120339142E1,-1.419036090E-1,-1.430383325E-2,2.394294739E-2,1.446184588E-1
1.121335808E1,-1.140560806E-1,-2.740222216E-2,-7.213592529E-3,1.175232199E-1
1.122332475E1,-7.392265201E-1,-9.302808344E-2,1.388072968E-1,7.578769939E-1
1.123329185E1,-1.244571924E0,-1.646768302E-1,-2.084283829E-1,1.272603679E0
1.124325852E1,-1.055637240E0,-1.507280916E-1,2.368469238E-1,1.092330264E0
1.125322518E1,-1.293509960E0,-1.815851778E-1,-3.353843689E-1,1.348563632E0
1.126319185E1,-9.717947245E-1,8.348360658E-2,-6.964015961E-2,9.778569685E-1
1.127315851E1,-8.256945014E-1,2.180894017E-1,5.385103226E-1,1.009617633E0
1.128312518E1,-9.460080862E-1,4.085749686E-1,-3.784704208E-1,1.097772592E0
1.129309185E1,-6.789091229E-1,6.837320328E-1,6.247253418E-1,1.148341779E0
1.130305851E1,-6.930751801E-1,8.445564508E-1,5.169906616E-1,1.208680333E0
1.131302468E1,-6.461586952E-1,8.700485826E-1,3.996477127E-1,1.155086096E0
1.132299134E1,-4.442464411E-1,1.097939014E0,-7.950878143E-1,1.426530621E0
1.133295754E1,-3.092457652E-1,1.022815228E0,3.325967789E-1,1.119108820E0
1.134292421E1,-6.050733328E-1,8.071957231E-1,-6.179342270E-1,1.183013686E0
1.135289088E1,-1.311126053E-1,1.193576694E0,-3.330440521E-1,1.246087549E0
1.136285754E1,-1.402366161E-1,5.595959425E-1,-1.384071350E0,1.499489056E0
1.137282471E1,1.797333062E-1,1.043729067E0,1.055603981E0,1.495317422E0
1.138279137E1,2.737663686E-1,6.802519560E-1,1.299839973E0,1.492405677E0
1.139275851E1,8.683834225E-2,1.307661057E0,-2.348423004E-1,1.331416254E0
1.140272517E1,-4.805898368E-1,1.199276209E0,-5.987749100E-1,1.423994877E0
1.141272517E1,-3.892056942E-1,8.878241777E-1,1.273488045E0,1.600463884E0
1.142272467E1,-2.844558656E-1,8.550158739E-1,2.082822800E0,2.269387164E0
1.143272467E1,-4.101185799E-1,1.367866397E0,-1.827118397E0,2.318969031E0
1.144272467E1,-1.033408523E0,5.108672976E-1,-1.214322090E0,1.674364569E0
1.145272467E1,-1.394713044E0,9.152956009E-1,-3.132039070E0,3.548613708E0
1.146272467E1,-6.804593205E-1,6.921430826E-1,2.164036751E0,2.371738180E0
1.147272467E1,-5.001329184E-1,1.673949361E-1,1.203933716E0,1.314385938E0
1.148272510E1,-2.135836184E-1,8.605738878E-1,9.236822128E-1,1.280388304E0
1.149272510E1,-3.758359849E-1,2.172050774E-1,-1.346607208E-1,4.544933916E-1
1.150272511E1,6.808316708E-2,1.264338493E0,1.349720001E0,1.850656971E0
1.151272511E1,7.468858361E-2,1.113131642E0,-4.365367889E-1,1.198000336E0
1.152272511E1,3.165143430E-1,3.780432940E-1,-1.384788513E0,1.469944655E0
1.153272467E1,5.021904111E-1,2.615316808E-1,1.270442009E0,1.390905075E0
1.154272467E1,1.683439016E-1,-4.367823005E-1,2.821876526E0,2.860438004E0
1.155272467E1,3.218959272E-1,9.450436831E-1,2.025327682E-1,1.018697243E0
1.156272467E1,-3.221749365E-1,3.644981980E-1,-5.349559784E-1,7.230722819E-1
1.157272467E1,-2.143771648E-1,-3.603208065E-1,7.124156952E-1,8.266346080E-1
1.158272467E1,2.329821438E-1,1.957572699E-1,4.562244415E-1,5.483997894E-1
1.159272467E1,-1.685383618E-1,6.894195080E-2,1.232058525E0,1.245442243E0
1.160272467E1,2.287846953E-1,-6.929741800E-2,3.135491371E0,3.144590706E0
1.161272467E1,4.241076708E-1,6.424978375E-1,2.694828033E0,2.802636066E0
1.162272517E1,3.061850965E-1,-3.021913767E-2,1.413894653E0,1.446983276E0
1.163272517E1,8.212637305E-1,1.669033617E-1,-3.149539948E0,3.259130671E0
1.164272517E1,1.546216965E0,-8.430401236E-2,2.093938828E0,2.604318314E0
1.165272517E1,1.431237102E0,1.491100639E-1,3.082764626E0,3.402074542E0
1.166272517E1,1.599147797E0,-6.700018644E-1,3.688467979E0,4.075656046E0
1.167272467E1,3.354811430E0,-1.608476341E-1,4.411524773E0,5.544563329E0
1.168272467E1,7.354708314E-1,4.825329483E-1,4.199028015E-2,8.806353238E-1
1.169272420E1,1.546367526E0,-1.396229029E0,-2.383164406E0,3.165466887E0
1.170272420E1,1.114238381E0,-7.796652317E-1,7.303687096E0,7.429215991E0
1.171272420E1,7.614699602E-1,5.632551908E-1,3.204737663E0,3.341771447E0
1.172272420E1,5.395709872E-1,-3.100011051E-1,2.720913887E0,2.791166408E0
1.173272464E1,2.326619923E-1,4.603584409E-1,9.371480942E-1,1.069723351E0
1.174272464E1,4.178916514E-1,5.868012831E-2,-2.532202244E0,2.567123876E0
1.175272464E1,1.953710318E-1,-1.208710909E0,-1.020574570E-1,1.228644630E0
1.176272464E1,3.492442369E-1,-8.242076039E-1,-2.403030872E0,2.564341452E0
1.177272464E1,-1.841317117E-1,-1.324538589E0,9.226379395E-1,1.624674653E0
1.178272420E1,2.398425192E-1,-7.758525014E-1,-1.309347153E-1,8.225663727E-1
1.179272420E1,-2.339349985E-1,-1.467151165E0,1.427681923E0,2.060469315E0
1.180272420E1,-7.369877696E-1,-1.543721914E0,1.921443939E-1,1.721379618E0
1.181272420E1,-5.794936419E-1,-1.337350726E0,2.616319656E-1,1.480800841E0
1.182272420E1,4.400660098E-2,-4.380603433E-1,-4.255237579E-1,6.122939766E-1
1.183272420E1,-3.650733232E-1,-1.230230331E0,2.220916748E-2,1.283447875E0
1.184272420E1,-3.643585443E-1,-1.233328819E0,2.219390869E-2,1.286215260E0
1.185272420E1,3.258086443E-1,-6.818560362E-1,5.729188919E-1,9.483221939E-1
1.186272420E1,3.423971236E-1,-9.409869909E-1,-8.157958984E-1,1.291594075E0
1.187272470E1,7.812504470E-2,-1.616392851E0,-1.980781555E-1,1.630357116E0
1.188272470E1,6.901905537E-1,-1.014322877E0,1.262432098E0,1.760383112E0
1.189272470E1,7.538979053E-1,-2.297502458E-1,-3.896293640E-1,8.791804527E-1
1.190272470E1,8.140948415E-1,-2.007354498E-1,-3.034009933E-1,8.916822834E-1
1.191272470E1,5.599175096E-1,-1.131581426E0,4.819593430E-1,1.351395186E0
1.192272420E1,7.244999409E-1,-1.139270663E0,1.012458801E-1,1.353916001E0
1.193272420E1,7.563334703E-1,-7.360625267E-1,6.925916672E-1,1.262343685E0
1.194272420E1,6.763505936E-1,-6.063995957E-1,2.400856018E-1,9.395805933E-1
1.195272420E1,6.355745196E-1,-6.356683373E-1,1.610879898E-1,9.132242581E-1
1.196272420E1,9.082716107E-1,-7.126843929E-1,-7.116031647E-2,1.156693630E0
1.197272420E1,7.923239470E-1,-6.162943244E-1,-1.730918884E-3,1.003792273E0
1.198272464E1,6.200407147E-1,-4.026661813E-1,7.728481293E-2,7.433461400E-1
1.199272464E1,4.830815196E-1,-2.869946361E-1,1.742839813E-2,5.621720598E-1
1.200272464E1,2.073456198E-1,-8.517739177E-2,3.897762299E-2,2.275228543E-1
1.201272464E1,7.548922300E-2,-3.926935419E-2,5.458831787E-3,8.526724936E-2
1.202272464E1,1.064760759E-1,-7.483009994E-2,1.982593536E-2,1.316425703E-1
1.203272420E1,7.064414769E-2,-2.673584968E-2,6.052970886E-2,9.679487030E-2
1.204272420E1,8.306341618E-2,-4.063953832E-2,3.898620605E-2,1.003545088E-1
1.205272470E1,8.611778170E-2,-6.655906141E-2,5.096530914E-2,1.201825433E-1
1.206272470E1,1.682312936E-1,-1.378964782E-1,7.012653351E-2,2.285496391E-1
1.207272470E1,2.601117492E-1,-3.122486770E-1,5.576992035E-2,4.102043910E-1
1.208272470E1,4.887545109E-1,-1.027758360E0,1.507759094E-2,1.138154450E0
1.209272470E1,3.871915340E-1,-1.379216552E0,2.945709229E-2,1.432837500E0
1.210272470E1,6.636299491E-1,-1.617260337E0,1.300315857E-1,1.752952914E0
1.211272470E1,8.317564726E-1,-1.371368527E0,3.150939941E-3,1.603895382E0
1.212272520E1,2.994854748E-1,-1.334413767E0,1.516332626E0,2.041963830E0
1.213272520E1,4.062563181E-1,-1.707589865E0,-9.023284912E-2,1.757569148E0
1.214272520E1,5.946790054E-2,-2.679085016E0,-1.045524597E0,2.876483033E0
1.215272520E1,-5.580551177E-2,-7.199161649E-1,1.118918419E0,1.331680130E0
1.216272520E1,-7.055398226E-1,-8.087427616E-1,1.336755753E0,1.714283301E0
1.217272470E1,-6.957921982E-1,-1.943915009E0,-6.911621094E-1,2.177300487E0
1.218272470E1,-1.071325660E0,-1.581753850E0,-6.336383820E-1,2.012754707E0
1.219272470E1,-1.038892627E0,-1.832638502E0,-2.872285843E0,3.562006139E0
1.220272470E1,-7.316772938E-1,-1.366226792E0,-8.371829987E-1,1.761477415E0
1.221272470E1,-8.003266454E-1,-8.270722032E-1,-7.031650543E-1,1.348707627E0
1.222272470E1,-7.958818078E-1,-1.140984058E0,8.435850143E-1,1.626932128E0
1.223272470E1,-2.023369372E-1,-1.816776991E0,-5.305986404E-1,1.903458376E0
1.224272470E1,-1.513032615E-1,-1.417272091E0,3.230964661E0,3.531385775E0
1.225272470E1,-1.967175305E-1,-1.845597863E0,1.923762321E0,2.673161186E0
1.226272470E1,3.772863746E-1,-6.869124174E-1,-1.959661007E0,2.110560338E0
1.227272470E1,3.289309740E-1,-1.431674361E0,1.045271873E0,1.802908858E0
1.228272427E1,3.450117111E-1,-2.226584435E0,-4.842187405E0,5.340738730E0
1.229272427E1,1.337011456E-1,5.269855261E-3,-8.123836517E-1,8.233291962E-1
1.230272427E1,1.133274958E-1,-2.902436256E-2,4.493427277E0,4.494949858E0
1.231272427E1,5.378601551E-1,-1.454378843E0,5.357818604E-1,1.640601587E0
1.232272427E1,5.058171749E-1,1.902886927E-1,-1.030145645E0,1.163297404E0
1.233269093E1,2.866099775E-1,-6.753723621E-1,-3.714083672E0,3.785854015E0
1.234265807E1,4.729818404E-1,-6.654080749E-2,8.160114288E-1,9.455232162E-1
1.235262423E1,4.193037152E-1,-8.905929923E-1,-1.628435135E0,1.902832749E0
1.236259090E1,2.677683532E-1,-1.616060019E0,3.004587173E0,3.422118344E0
1.237255757E1,6.805799007E-1,-5.651392937E-1,1.498673439E0,1.740285465E0
1.238252423E1,9.255154133E-1,6.302570701E-1,-3.304125309E0,3.488702741E0
1.239249090E1,8.087164760E-1,-2.352628112E-1,2.563085556E-1,8.803777624E-1
1.240245756E1,5.639087558E-1,-3.838002086E-1,1.580294609E0,1.721228264E0
1.241242423E1,6.989766955E-1,9.294491261E-2,-4.603960991E0,4.657645755E0
1.242239040E1,5.725188255E-1,-6.457442641E-1,3.163064957E0,3.278680128E0
1.243235706E1,5.879485607E-1,-6.611567736E-1,3.762216568E-1,9.614335777E-1
1.244232373E1,7.580848336E-1,-3.003713489E-1,4.313411713E-1,9.224807685E-1
1.245229039E1,2.875268459E-1,-1.171599329E-1,1.832067490E0,1.858189824E0
1.246225706E1,2.174510360E-1,-4.186404943E-1,-3.337033272E0,3.370213031E0
1.247222373E1,9.913636744E-2,1.353499889E-1,-2.683360100E0,2.688599833E0
1.248219039E1,2.628298998E-1,6.616397500E-1,2.282377243E0,2.390835125E0
1.249215706E1,5.418102741E-1,4.417166114E-1,-4.780724525E0,4.831562783E0
1.250212372E1,4.697421193E-1,2.504065037E-1,4.676487923E0,4.706686772E0
1.251209039E1,4.392053187E-1,3.772734106E-2,1.310222626E0,1.382392127E0
1.252205706E1,4.753105342E-1,-1.764304042E-1,-9.020357132E-1,1.034754183E0
1.253202372E1,6.717311144E-1,1.800681800E-1,-7.223310471E-1,1.002701043E0
1.254199039E1,5.259512067E-1,-5.964623094E-1,4.699821472E-1,9.237289521E-1
1.255195705E1,4.767396450E-1,-8.548811674E-1,-3.801411629E0,3.925408625E0
1.256192372E1,-4.255697131E-2,3.669030368E-1,3.659186363E0,3.677781094E0
1.257189039E1,5.928636789E-1,-2.002248168E-2,-3.485300064E0,3.535421443E0
1.258185705E1,2.520065308E-1,6.282187998E-2,7.118759155E-1,7.577738444E-1
1.259182378E1,6.298032403E-2,6.045399606E-2,-7.437438965E-1,7.488499118E-1
1.260179045E1,2.508540452E-1,1.510410011E-2,-7.676486969E-1,8.077378335E-1
1.261175712E1,6.657071412E-2,5.177809298E-2,-6.312236786E-1,6.368327593E-1
1.262172378E1,7.026590407E-2,5.344083905E-2,-6.311521530E-1,6.372960543E-1
1.263172378E1,2.696976662E-1,7.450307608E-1,1.526109695E0,1.719540191E0
1.264172332E1,1.178680956E-1,8.066417575E-1,-5.401401520E-1,9.779136959E-1
1.265172332E1,3.074549884E-2,1.102224350E0,2.895605087E0,3.098446808E0
1.266172332E1,-2.831622362E-1,4.900560379E-1,-6.190862656E-1,8.388108109E-1
1.267172332E1,-3.434404731E-1,4.322607219E-1,1.435149193E0,1.537678086E0
1.268172332E1,-2.336653620E-1,1.020541191E0,1.020899773E0,1.462306456E0
1.269172332E1,-1.850281358E-1,1.231253505E0,-1.715536118E-1,1.256841774E0
1.270172332E1,-3.389840722E-1,1.035217762E0,-2.034408569E0,2.307683740E0
1.271172332E1,-2.601962090E-1,9.666427374E-1,1.286376953E0,1.629989544E0
1.272172332E1,-3.944070339E-1,1.928702831E0,1.501799583E0,2.476056039E0
1.273172332E1,-5.899958014E-1,1.539393663E0,1.243033409E0,2.064693670E0
1.274172332E1,-6.531785727E-1,1.726857185E0,2.701053619E0,3.271753145E0
1.275172332E1,-3.377578855E-1,1.764124990E0,-1.189684868E0,2.154429728E0
1.276172332E1,-7.506247759E-1,2.019250154E0,2.439940453E0,3.254860696E0
1.277172332E1,-1.400307268E-1,1.815035343E0,-6.749734879E-1,1.941533186E0
1.278172332E1,-1.045061573E-1,1.742962241E0,-5.649394989E-1,1.835209947E0
1.279172332E1,-6.178358942E-2,1.966987610E0,-9.673213959E-1,2.192844762E0
1.280172332E1,-1.502203345E-1,1.500409961E0,-3.998899460E-1,1.560034669E0
1.281172332E1,-2.261274457E-1,1.322380304E0,-7.926063538E-1,1.558219536E0
1.282172332E1,-5.332109928E-1,1.260938048E0,8.162937164E-1,1.593930411E0
1.283172332E1,-4.804289937E-1,1.340838432E0,1.793403625E-1,1.435556577E0
1.284172382E1,-3.621863127E-1,1.487370491E0,7.970361710E-1,1.725895872E0
1.285172382E1,-3.367716372E-1,1.323394895E0,3.084087372E-2,1.365921060E0
1.286172382E1,-4.220640659E-2,1.091614127E0,2.601909637E-2,1.092739574E0
1.287172382E1,1.474352777E-1,9.645190239E-1,1.504802704E-1,9.872580313E-1
1.288172382E1,1.311028600E-1,6.733202338E-1,4.407882690E-3,6.859792465E-1
1.289172425E1,1.671570241E-1,6.974577904E-1,-2.914810181E-2,7.178011228E-1
1.290172425E1,-5.288610607E-2,5.814688206E-1,-2.916431427E-2,5.845968583E-1
1.291172425E1,-6.719288975E-2,5.645217896E-1,1.216735840E-1,5.813812831E-1
1.292172425E1,-5.755043030E-2,5.669878125E-1,1.393318176E-2,5.700713685E-1
1.293172425E1,-4.836233705E-2,7.863055468E-1,-5.073165894E-2,7.894232260E-1
1.294172425E1,-3.838533461E-1,1.081976056E0,1.542053223E-1,1.158358692E0
1.295172425E1,-5.137723088E-1,9.237414598E-1,-7.581424713E-2,1.059720751E0
1.296172425E1,-5.772134066E-1,5.781624317E-1,-2.189254761E-1,8.457987221E-1
1.297172425E1,-2.584142983E-1,2.697160840E-1,1.060761452E0,1.124606408E0
1.298172425E1,1.311508715E-1,-6.697449088E-2,5.017719269E-1,5.229351778E-1
1.299172425E1,1.092057899E-1,-6.319883466E-2,3.317823410E-1,3.549641095E-1
1.300172425E1,6.048914194E-1,2.379690409E-1,-4.965744019E-1,8.179908497E-1
1.301172425E1,5.260567069E-1,1.648626924E-1,-1.277856827E-1,5.659015346E-1
1.302172425E1,5.659312010E-1,-4.560312331E-1,7.412881851E-1,1.038147766E0
1.303172425E1,3.299239278E-1,3.048204184E-1,-6.090431213E-1,7.567686629E-1
1.304172425E1,3.618955314E-1,1.571120471E-1,9.663887024E-1,1.043819762E0
1.305172425E1,4.413752258E-1,4.652143121E-1,5.330486298E-1,8.338928515E-1
1.306172425E1,1.224294752E-1,9.146167040E-1,-1.370444298E0,1.652159273E0
1.307172425E1,9.501716495E-2,5.976949930E-1,-3.457450867E-1,6.969987312E-1
1.308172425E1,6.059039235E-1,7.991056442E-1,-2.164850235E-1,1.025941110E0
1.309172475E1,4.715861678E-1,7.715937495E-1,-3.792858124E-1,9.806162121E-1
1.310172475E1,5.913610458E-1,6.450310349E-1,1.344625473E0,1.604303770E0
1.311172475E1,4.100030363E-1,9.170670509E-1,2.312278748E-1,1.030815597E0
1.312172475E1,5.204474330E-1,9.457488060E-1,2.503881454E-1,1.108151866E0
1.313172475E1,5.293822885E-1,2.878910303E-1,5.397701263E-2,6.050127028E-1
1.314172425E1,4.498972595E-1,-1.349510849E-1,-1.274823189E0,1.358599831E0
1.315172425E1,6.230625510E-2,-9.016729593E-1,-2.644796371E-1,9.417248396E-1
1.316172425E1,1.694358885E-1,-6.275017262E-1,4.274311066E-1,7.779230601E-1
1.317172425E1,2.305602133E-1,-7.479667664E-1,9.217548370E-2,7.881044444E-1
1.318172425E1,3.147307634E-1,-3.031641245E-1,3.700323105E0,3.726037442E0
1.319172375E1,4.461701512E-1,1.799383610E-1,1.188822746E0,1.282476175E0
1.320172375E1,-2.417091578E-1,4.565182328E-1,2.582343102E0,2.633501112E0
1.321172375E1,1.792601645E-1,2.145234644E-1,3.769940376E0,3.780291651E0
1.322172375E1,-7.409103513E-1,4.022912979E-1,-2.834129333E-1,8.894432685E-1
1.323172375E1,-8.689198494E-1,-2.128921449E-1,1.555180550E0,1.794138042E0
1.324172375E1,-6.515621543E-1,-4.630257487E-1,6.261224747E-1,1.015359758E0
1.325172375E1,-2.863062024E-1,-2.644510269E-1,4.433917999E-2,3.922646429E-1
1.326172375E1,2.790838480E-1,-3.462914228E-1,-1.265183449E0,1.341079678E0
1.327169088E1,7.110770047E-2,-1.923468858E-1,-4.392910004E-2,2.097221862E-1
1.328165755E1,-1.061800241E0,-8.685771227E-1,5.976543427E-1,1.496341099E0
1.329162421E1,-7.433527112E-1,-2.157377958E0,2.783545494E0,3.599302492E0
1.330159088E1,-1.241372824E0,-2.011140108E0,-1.014680862E-1,2.365583817E0
1.331155801E1,-1.388589263E0,-2.191750050E0,-1.547657967E0,3.021124559E0
1.332152468E1,-1.447668195E0,-1.607817888E0,5.352907181E-1,2.228756989E0
1.333149134E1,-9.992172718E-1,-1.798263550E0,1.121835709E0,2.343224767E0
1.334145801E1,-1.068293929E0,-1.449297667E0,4.491558075E-1,1.855655298E0
1.335142468E1,-7.509078979E-1,-6.036773920E-1,-2.816660881E0,2.976888910E0
1.336139134E1,-1.136902809E0,-7.377379537E-1,1.227357864E0,1.828445409E0
1.337135801E1,-5.612857938E-1,-1.812812328E0,6.933174133E-1,2.020400781E0
1.338132467E1,-6.969689131E-1,-1.624718785E0,1.658340454E0,2.423957479E0
1.339129084E1,-1.148120999E0,-1.730924845E0,-1.190744400E0,2.394191904E0
1.340125751E1,-5.695652366E-1,-1.570081949E0,2.531127930E-1,1.689268472E0
1.341122417E1,-7.463251352E-1,-1.872268319E0,9.306774139E-1,2.220033854E0
1.342119084E1,-5.078625679E-1,-1.296772242E0,2.173210144E0,2.581159616E0
1.343115750E1,-8.389860392E-1,-1.188386440E0,5.020809174E-1,1.538910378E0
1.344112417E1,-2.310563624E-2,-1.086403966E0,1.423916817E0,1.791185794E0
1.345109090E1,-8.285829425E-2,-2.064793408E-1,2.899005890E0,2.907530630E0
1.346105757E1,3.129876852E-1,-4.197275043E-1,2.240608215E0,2.300968849E0
1.347102424E1,1.636792570E-1,-3.312339783E-1,4.258670807E-1,5.637992710E-1
1.348099090E1,5.850386620E-2,-1.077638507E0,-4.310312271E-1,1.162116764E0
1.349095757E1,2.535632849E-1,-3.595556617E-1,-9.241752625E-1,1.023559734E0
1.350092423E1,8.376570940E-1,-1.392460465E0,-3.566589355E-1,1.663676997E0
1.351089090E1,9.872537255E-1,-1.449153781E0,1.678581238E-1,1.761503037E0
1.352085756E1,1.673615098E0,-1.306824327E0,1.575699806E0,2.644164744E0
1.353082423E1,1.241375208E0,-9.506422281E-1,-4.544229507E-1,1.628260812E0
1.354079090E1,1.742597818E0,-1.223177195E0,1.288600922E0,2.488634554E0
1.355075756E1,1.318400860E0,-1.090172887E0,1.153602600E-1,1.714632830E0
1.356072470E1,9.624063969E-1,-1.001980186E0,1.873807907E-1,1.401892266E0
1.357072423E1,1.048099756E0,-6.434632540E-1,-4.351882935E-1,1.304586873E0
1.358072423E1,1.807199359E0,-5.295663476E-1,1.188089371E0,2.226649140E0
1.359072423E1,1.615968943E0,-3.010187447E-1,-3.465480804E-1,1.679899842E0
1.360072423E1,1.123181915E1,1.494048238E0,1.413321495E0,1.141855592E1
1.361072376E1,9.189259529E0,-1.709279299E0,-9.618167877E-1,9.396234243E0
1.362072376E1,-4.215092063E-1,-6.367002726E-1,7.452071190E0,7.491089525E0
1.363072376E1,-1.158506393E0,-9.643273354E-1,-2.828809261E0,3.205343369E0
1.364072376E1,4.269807339E-1,1.207316816E-1,3.004150391E-1,5.358524813E-1
1.365072376E1,3.463852406E-1,-6.390652061E-1,3.720474243E-1,8.165821198E-1
1.366072376E1,3.402100205E-1,-6.430404186E-1,3.719463348E-1,8.170605327E-1
1.367072376E1,1.789633036E-1,-4.649881721E-1,2.186737061E-1,5.441140082E-1
1.368072376E1,2.389312387E-1,-4.471326470E-1,-3.752994537E-2,5.083544410E-1
1.369072376E1,2.643457651E-1,-4.530655146E-1,2.210693359E-1,5.692264008E-1
1.370072423E1,5.206729770E-1,-4.889225960E-1,-8.776473999E-2,7.196167754E-1
1.371072423E1,6.335722208E-1,-5.362327695E-1,3.434371948E-2,8.307459498E-1
1.372072423E1,9.039571881E-1,-6.836451292E-1,-8.060455322E-2,1.136224606E0
1.373072423E1,1.067850113E0,-8.174450994E-1,8.695507050E-2,1.347620695E0
1.374072423E1,1.329430580E0,-1.075473070E0,-3.281879425E-2,1.710293853E0
1.375072466E1,1.386168480E0,-1.188590646E0,-1.119060516E-1,1.829408031E0
1.376072466E1,1.407696009E0,-1.062971473E0,2.136077881E-1,1.776835584E0
1.377072513E1,1.877458096E0,-5.978005528E-1,3.880987167E-1,2.008191977E0
1.378072513E1,2.621867418E0,3.755816817E-1,5.768470764E-1,2.710719998E0
1.379072513E1,2.428681374E0,2.273441851E-2,-3.117656708E-1,2.448715562E0
1.380072513E1,1.599192500E0,-9.069873691E-1,-6.231231689E-1,1.941217459E0
1.381072559E1,1.105311036E0,-3.546093404E-1,8.851833344E-1,1.459797865E0
1.382072559E1,6.424167156E-1,-7.490587831E-1,9.090051651E-1,1.341670111E0
1.383072559E1,3.932514191E-1,-6.628820896E-1,-4.821634293E-1,9.091429568E-1
1.384072559E1,-1.502916217E-3,-7.707509995E-1,1.102723122E0,1.345383828E0
1.385072559E1,2.681654096E-1,-1.057442904E0,-2.789707184E-1,1.126020800E0
1.386072513E1,-1.813004315E-1,-6.241374016E-1,1.521528244E0,1.654528797E0
1.387072513E1,5.281155109E-1,-9.498071671E-1,-1.090393066E-1,1.092212991E0
1.388072513E1,2.193132639E-1,-8.616328239E-1,4.403305054E-2,8.901956754E-1
1.389072513E1,4.774881005E-1,-5.385120511E-1,8.723640442E-1,1.130932863E0
1.390072513E1,6.130136847E-1,-7.293617129E-1,3.455591202E-1,1.013491683E0
1.391072513E1,1.061802983E0,-4.524619579E-1,-8.789157867E-2,1.157528543E0
1.392072513E1,1.041149497E0,-7.841406465E-1,-2.986555099E-1,1.337185082E0
1.393072513E1,1.185194969E0,-7.238588929E-1,2.566814423E-1,1.412283320E0
1.394072513E1,1.358951569E0,-2.668496072E-1,-7.705707550E-1,1.584846165E0
1.395072559E1,9.560934901E-1,-6.039779782E-1,7.137994766E-1,1.337315914E0
1.396072559E1,1.129584670E0,-4.159443974E-1,-2.612400055E-2,1.204015669E0
1.397072559E1,1.421875238E0,-2.538194656E-1,-3.117209911E0,3.435571444E0
1.398072559E1,5.367069244E-1,-4.941737056E-1,-4.309787750E-1,8.473515673E-1
1.399072559E1,6.138955802E-2,7.670646906E-2,-2.371540070E-1,2.566994025E-1
1.400072512E1,-4.408371449E-1,-2.518117130E-1,-7.543897629E-1,9.093131702E-1
1.401072512E1,-2.652739584E-1,-9.422060102E-2,-2.710541725E0,2.725120959E0
1.402072512E1,4.415601790E-1,-3.052718937E-1,-5.078163147E-1,7.389477182E-1
1.403072512E1,1.072265744E0,-1.125011802E0,-8.640575409E-2,1.556557527E0
1.404072513E1,1.210881233E0,-6.979715228E-1,5.407648087E-1,1.498607416E0
1.405072462E1,2.410036325E-1,6.578136981E-2,4.448147774E0,4.455157523E0
1.406072509E1,9.898775220E-1,4.739016294E-2,1.093735695E0,1.475927202E0
1.407072462E1,1.422580957E0,-2.950968146E-1,-1.609783173E-1,1.461756727E0
1.408072462E1,1.189631701E0,-8.823172003E-2,-1.679037094E0,2.059653850E0
1.409072462E1,8.503906727E-1,-1.815371811E-1,5.235700607E-1,1.015010174E0
1.410072462E1,8.261970878E-1,-6.119619310E-2,2.434082031E-1,8.634779414E-1
1.411072416E1,4.551908374E-1,2.080750465E-2,-4.246530533E-1,6.228658494E-1
1.412072416E1,1.625921279E-1,6.539270282E-2,-4.652633667E-1,4.971744221E-1
1.413072416E1,1.242715865E-2,-3.084132373E-1,1.766245842E0,1.793013534E0
1.414072416E1,-4.164978862E-2,-1.237720028E-1,-9.656810760E-2,1.624180192E-1
1.415072416E1,-5.571271777E-1,-2.193858922E-1,8.179883957E-1,1.013718835E0
1.416072416E1,-1.870691627E-1,-1.833323389E-1,3.774538040E-1,4.594311617E-1
1.417072416E1,-7.096692324E-1,1.969271600E-1,5.929918289E-1,9.455421910E-1
1.418072416E1,-7.050023079E-1,1.548944563E-1,1.380481720E-1,7.348998874E-1
1.419072416E1,5.400278792E-2,-5.131573081E-1,-5.346393585E-1,7.430248769E-1
1.420072466E1,-6.276430488E-1,-4.379145801E-1,2.434158325E-1,8.030916782E-1
1.421072466E1,-5.453946590E-1,-2.509835660E-1,1.521962166E0,1.636098077E0
1.422072466E1,-4.842754900E-1,-4.106858969E-1,1.519585609E0,1.646914108E0
1.423072466E1,-2.101028711E-1,-2.622847855E-1,-1.475592613E0,1.513377047E0
1.424072466E1,-4.844025373E-1,-5.215140581E-1,2.531452179E-1,7.554503507E-1
1.425072419E1,-3.647593260E-1,-4.760205448E-1,2.089977264E-2,6.000681007E-1
1.426072419E1,-4.491124153E-1,-4.006526768E-1,-9.918251038E-1,1.160147217E0
1.427072419E1,-7.545133233E-1,-5.414859056E-1,1.895634651E0,2.110906931E0
1.428072419E1,-1.120165944E0,-3.827715516E-1,8.308982849E-2,1.186671700E0
1.429072419E1,-6.186231375E-1,-4.168791175E-1,-7.835645676E-1,1.081876248E0
1.430072419E1,-6.904173493E-1,-2.078797221E-1,-4.076557159E-1,8.282954050E-1
1.431072466E1,-7.994913459E-1,-2.699150741E-1,1.038472176E0,1.338082590E0
1.432072466E1,-4.551628232E-1,-4.375118017E-1,1.115048409E0,1.281375326E0
1.433072466E1,-6.528267860E-1,-1.696912050E-1,-2.221870422E-2,6.748863522E-1
1.434072466E1,-3.857150972E-1,-2.423079610E-1,-5.567932129E-2,4.589002843E-1
1.435072466E1,-1.115582943E0,-1.335853636E-1,8.708925247E-1,1.421556943E0
1.436072419E1,-1.022245765E0,-2.241948992E-1,8.421554565E-1,1.343307697E0
1.437072419E1,-2.473588735E-1,-3.827370107E-1,1.120004654E-1,4.692740520E-1
1.438072419E1,-6.170108318E-1,-2.767493427E-1,1.359243393E-1,6.897593720E-1
1.439072419E1,-7.566182613E-1,-8.052550256E-2,-3.142032623E-1,8.232127550E-1
1.440072419E1,-7.960357070E-1,-8.446247876E-2,9.332704544E-1,1.229552967E0
1.441069086E1,-6.516801715E-1,1.007341146E-1,-8.385210037E-1,1.066748275E0
1.442065799E1,-2.764138460E0,-8.441361785E-1,1.055448532E0,3.076848862E0
1.443062465E1,-1.857642055E0,1.765659153E-1,6.660461426E-3,1.866026229E0
1.444059132E1,9.411764145E-2,8.183428049E-1,-4.505834579E-1,9.389188087E-1
1.445055799E1,-5.195234418E-1,4.971281290E-1,3.634672165E-1,8.056980828E-1
1.446052465E1,-1.261898279E-1,1.118866503E-1,1.390743256E-2,1.692214876E-1
1.447049132E1,2.350120991E-2,-6.114787608E-2,-1.240825653E-2,6.667334135E-2
1.448045798E1,1.509131044E-1,-3.151414394E-1,-9.380531311E-2,3.617849205E-1
1.449042465E1,1.850354970E-1,-3.347711563E-1,2.030982971E-1,4.330805705E-1
1.450039082E1,2.042467892E-1,-3.512028456E-1,1.959104538E-1,4.510444496E-1
1.451035748E1,1.612358391E-1,-3.607298136E-1,1.155090332E-2,3.952928251E-1
1.452032415E1,1.535233557E-1,-3.721835017E-1,5.942440033E-2,4.069658942E-1
1.453029108E1,1.312735528E-1,-3.620478511E-1,2.110004425E-2,3.856897769E-1
1.454025775E1,1.470992267E-1,-3.756502271E-1,4.023361206E-2,4.054257258E-1
1.455022441E1,1.461801082E-1,-3.485912085E-1,-4.892349243E-4,3.780009180E-1
1.456019108E1,1.644588411E-1,-3.238917291E-1,6.174182892E-2,3.684625029E-1
1.457015821E1,1.394704878E-1,-3.518066406E-1,7.129669189E-2,3.851014771E-1
1.458012488E1,6.175007299E-2,-2.529951632E-1,3.296947479E-2,2.625006864E-1
1.459009154E1,-7.344038039E-2,-1.205998808E-1,2.815914154E-2,1.439817974E-1
1.460005821E1,-2.226417065E-1,-1.460565627E-1,1.856231689E-2,2.669202288E-1
1.461002441E1,-2.946891189E-1,-9.251164645E-2,1.167125702E-1,3.301846537E-1
1.461999108E1,-4.093777239E-1,-9.666675329E-2,5.205917358E-2,4.238451835E-1
1.462995774E1,-4.665245712E-1,-3.850464523E-2,2.292289734E-1,5.212232779E-1
1.463992441E1,-8.407214880E-1,-2.046063840E-1,-4.374790192E-2,8.663661303E-1
1.464989107E1,-1.043785095E0,-2.179679722E-1,-3.166494370E-1,1.112323796E0
1.465985774E1,-1.273325682E0,-3.840836287E-1,-1.657714844E-1,1.340283071E0
1.466982487E1,-1.418392897E0,-3.304747343E-1,2.843475342E-1,1.483881895E0
1.467979154E1,-1.455870271E0,-4.060432911E-1,1.741685867E-1,1.521434881E0
1.468975820E1,-1.694243789E0,-5.855082273E-1,2.603950500E-1,1.811377233E0
1.469972487E1,-1.047982931E0,-6.954687834E-1,-1.107568741E-1,1.262621138E0
1.470972487E1,-1.072265387E0,-7.285361886E-1,-5.804443359E-2,1.297646791E0
1.471972440E1,-8.424595594E-1,-5.120344758E-1,1.515003204E0,1.807526521E0
1.472972440E1,-8.415125012E-1,-5.109296441E-1,1.514998436E0,1.806768566E0
1.473972440E1,-9.363541007E-1,-4.263789058E-1,-3.309545517E-1,1.080781610E0
1.474972440E1,-8.225070834E-1,-5.230506659E-1,-3.022966385E-1,1.020530822E0
1.475972440E1,-2.884651423E-1,-3.622822165E-1,-1.730089188E-1,4.943608284E-1
1.476972440E1,-7.715455294E-1,-2.081798017E-2,9.451618195E-1,1.220265036E0
1.477972467E1,4.804695398E-2,1.283515990E-2,2.508597374E0,2.509090281E0
1.478972467E1,-7.891854048E-1,-1.654806584E-1,-1.734179497E0,1.912479014E0
1.479972467E1,-3.499719501E-1,-1.097443327E-1,1.742038727E-1,4.060433150E-1
1.480972467E1,-3.532824814E-1,-1.059964225E-1,1.741170883E-1,4.078731588E-1
1.481972467E1,2.125049680E-1,-3.860815614E-2,1.919574738E0,1.931687377E0
1.482972440E1,-4.162868857E-1,5.597455800E-2,-1.353375435E0,1.417057864E0
1.483972440E1,-3.160700947E-2,3.327887356E-1,-2.160644531E-1,3.980341612E-1
1.484972440E1,6.020227671E-1,4.215327650E-2,-7.007026672E-2,6.075509469E-1
1.485972440E1,3.805488348E-1,8.743540943E-2,2.627811432E-1,4.706551771E-1
1.486972394E1,9.075982571E-1,-7.307574153E-2,7.822561264E-1,1.200416306E0
1.487972394E1,-5.366866291E-2,1.811981201E-5,-1.042181969E0,1.043562927E0
1.488972394E1,-8.879442513E-2,3.714372218E-2,1.064833641E0,1.069174817E0
1.489972394E1,9.963528812E-2,-2.170775682E-1,-2.081390381E0,2.095050305E0
1.490972394E1,9.406060725E-2,8.916296065E-3,1.237139702E0,1.240742334E0
1.491972440E1,4.106560051E-1,-1.842025816E-1,6.120939255E-1,7.597551706E-1
1.492972440E1,3.701121509E-1,-6.309892237E-2,-5.945262909E-1,7.031543137E-1
1.493972440E1,1.702186614E-1,-1.271447092E-1,-3.910331726E-1,4.450248441E-1
1.494972440E1,1.657092571E-2,-1.579386294E-1,2.985076904E-1,3.381213502E-1
1.495972440E1,1.277028620E-1,6.862075627E-2,-7.142763138E-1,7.288398189E-1
1.496972394E1,-7.537897676E-2,-6.590418518E-2,-1.968837261E0,1.971381625E0
1.497972394E1,5.144464374E-1,-3.189551234E-1,-1.042251587E0,1.205270044E0
1.498972394E1,-1.955943853E-1,-3.050723076E-1,1.619749069E-1,3.969409866E-1
1.499972394E1,-5.921427906E-2,-2.513126135E-1,2.309322357E-2,2.592251097E-1
1.500972394E1,2.970410287E-1,-6.187688708E-1,-5.683927536E-1,8.911669937E-1
1.501972394E1,1.418077648E-1,-6.063778996E-1,-1.260312080E0,1.405770301E0
1.502972420E1,1.469622403E-1,-1.435694993E-1,7.294054031E-1,7.577877957E-1
1.503972420E1,5.127522349E-1,-4.349294603E-1,-7.886571884E-1,1.036368009E0
1.504972420E1,4.784247577E-1,-2.343985140E-1,-8.437023163E-1,9.978309028E-1
1.505972420E1,5.191369653E-1,-4.565467238E-1,-7.431221008E-1,1.014972195E0
1.506972420E1,8.089070916E-1,-2.319701910E-1,1.720675468E0,1.915428130E0
1.507972393E1,7.397484034E-2,-2.959058881E-1,-2.261036396E0,2.281516635E0
1.508972393E1,8.812077641E-1,-4.836393595E-1,1.055049896E0,1.457245497E0
1.509972393E1,3.572980762E-1,-3.559331298E-1,-5.345058441E-2,5.071560638E-1
1.510972393E1,3.822170496E-1,-5.714245439E-1,1.129386902E0,1.322168921E0
1.511972393E1,8.201346546E-2,-3.601738214E-1,-2.318327904E0,2.347572291E0
1.512969060E1,5.792758465E-1,-4.051362276E-1,4.399223328E-1,8.326028634E-1
1.513965773E1,2.978356183E-1,-6.729924679E-1,1.742229462E-1,7.562926367E-1
1.514962440E1,1.869878471E-1,-3.541215360E-1,3.824815750E-1,5.537677062E-1
1.515959106E1,5.850120783E-1,-5.345342755E-1,5.596780777E-1,9.701574996E-1
1.516955773E1,1.252158582E-1,-8.198986053E-1,-9.342556000E-1,1.249298307E0
1.517952440E1,6.997481585E-1,-4.344727993E-1,7.393388748E-1,1.106813476E0
1.518949106E1,8.636807203E-1,-8.250331879E-1,1.534256935E0,1.944368404E0
1.519945773E1,8.170115948E-1,-6.252426505E-1,-6.023406982E-2,1.030565117E0
1.520942440E1,3.620679975E-1,-8.996225893E-2,-1.362737656E0,1.412883704E0
1.521939060E1,1.597100735E0,-6.297149658E-1,5.048093796E-1,1.789442428E0
1.522935726E1,8.575145602E-1,-3.867973983E-1,-1.324429512E0,1.624517461E0
1.523932393E1,1.256880879E0,-5.920047164E-1,6.532640457E-1,1.535243643E0
1.524929059E1,7.351009250E-1,-4.001676440E-1,-5.845785141E-1,1.020901343E0
1.525925726E1,1.293041706E0,-7.334402204E-1,3.659906387E-1,1.530960665E0
1.526922392E1,1.270074964E0,-5.573119521E-1,-4.050016403E-1,1.444892160E0
1.527919106E1,1.270923853E0,-5.597671270E-1,-4.049558640E-1,1.446573859E0
1.528915772E1,1.259794235E0,-5.182392001E-1,1.278124809E0,1.867955142E0
1.529912439E1,1.188406587E0,-3.789047301E-1,4.138193130E-1,1.314201443E0
1.530909106E1,1.310615540E0,4.394303560E-1,-3.020610809E-1,1.414939231E0
1.531905772E1,9.586341977E-1,6.646184921E-1,-3.618907928E-1,1.221336240E0
1.532902412E1,1.186943650E0,-2.479407787E-1,1.184796333E0,1.695302985E0
1.533899079E1,4.410556555E-1,4.184281826E-1,4.509544373E-2,6.096276193E-1
1.534895745E1,3.579590321E-1,7.232410908E-1,-4.983482361E-1,9.484531135E-1
1.535892412E1,3.582228422E-1,7.228776217E-1,-4.983396530E-1,9.482710954E-1
1.536889079E1,4.190102816E-1,3.771691918E-1,-1.344146729E-1,5.795632145E-1
1.537885745E1,7.336069345E-1,1.677526534E-1,1.405137062E0,1.593966828E0
1.538882459E1,2.615847588E-1,-8.241961151E-2,-8.263235092E-1,8.706492521E-1
1.539879125E1,2.513225079E-1,-2.461045980E-2,-7.831754684E-1,8.228806062E-1
1.540875792E1,5.956125855E-1,-2.575735748E-2,2.296133041E-1,6.388584060E-1
1.541872458E1,-1.685407609E-1,-1.940491199E-1,-6.945123672E-1,7.405460670E-1
1.542872458E1,-7.506929338E-2,7.526679039E-1,-2.683324814E-1,8.025874986E-1
1.543872412E1,-3.190247715E-1,-2.467431128E-2,-5.723867416E-1,6.557531612E-1
1.544872412E1,1.062103286E-1,-2.467209101E-1,-9.841890335E-1,1.020186206E0
1.545872412E1,4.056034684E-1,2.378210425E-1,7.038316727E-1,8.464349032E-1
1.546872412E1,1.808949262E-1,3.754781485E-1,-7.303485870E-1,8.409018212E-1
1.547872412E1,7.235973477E-1,2.817837000E-1,1.886719704E0,2.040271162E0
1.548872412E1,2.745828927E-1,8.868905902E-1,-2.513418198E-1,9.618437473E-1
1.549872412E1,-2.902643383E-2,-1.016833782E-1,-1.445940018E0,1.449801565E0
1.550872412E1,6.397441775E-2,9.834434390E-1,-8.688230515E-1,1.313813997E0
1.551872412E1,-4.498586059E-3,3.789207935E-1,-2.192823410E0,2.225325979E0
1.552872458E1,-2.733793855E-1,-5.159450769E-1,1.429694176E0,1.544331910E0
1.553872458E1,9.875053167E-2,-6.810709238E-1,-1.046036720E0,1.252119040E0
1.554872458E1,7.936202735E-2,6.488808393E-1,-1.721312523E0,1.841266270E0
1.555872458E1,5.413856506E-1,1.104756594E0,2.569358826E0,2.848717313E0
1.556872458E1,5.723373890E-1,-3.543002605E-1,3.429068565E0,3.494511409E0
1.557872412E1,6.846678257E-1,-1.412356198E-1,4.817142487E-1,8.489794751E-1
1.558872412E1,6.930252910E-1,-3.590232134E-2,5.323219299E-2,6.959933168E-1
1.559872412E1,7.590028644E-1,-3.696500659E-1,-1.047947884E0,1.345704754E0
1.560872412E1,8.895038366E-1,9.013658762E-1,-2.642623901E0,2.930381989E0
1.561872412E1,6.338003874E-1,8.680043817E-1,-3.348948956E0,3.517185472E0
1.562872412E1,4.037435949E-1,2.366392016E-1,6.614589691E-1,8.102684555E-1
1.563872458E1,3.527157307E-1,7.565596700E-1,1.026916504E-2,8.348031964E-1
1.564872458E1,6.965508461E-1,-1.395439655E-1,2.380813599E0,2.484537983E0
1.565872458E1,1.802682132E-1,-2.026213408E-1,1.703320503E0,1.724776152E0
1.566872458E1,2.815014124E-1,-9.959390759E-2,2.754462242E0,2.770599977E0
1.567872458E1,7.914786339E-1,-6.545034051E-1,-1.289316177E0,1.648377791E0
1.568872411E1,5.512788296E-1,1.141863912E-1,-2.275714397E0,2.344317150E0
1.569872411E1,4.677622914E-1,-6.146788001E-1,5.303764343E-1,9.369795893E-1
1.570872411E1,5.011182427E-1,-8.500725627E-1,-2.201494694E0,2.412534299E0
1.571872411E1,-5.611955374E-2,-7.656280994E-1,8.633422852E-1,1.155290307E0
1.572872411E1,9.839678556E-2,-1.429640174E0,-8.175020218E-1,1.649806810E0
1.573872411E1,-3.206893206E-1,-7.345082760E-1,2.504215240E-1,8.396755251E-1
1.574872411E1,-1.709613055E-1,-1.052466035E0,-2.009713173E0,2.275051551E0
1.575872411E1,-1.109448910E0,-1.063528299E0,1.299207687E0,2.012438804E0
1.576872411E1,-6.939401627E-1,-1.177613854E0,-1.398410797E-1,1.374002499E0
1.577872458E1,-3.177224398E-1,-9.920477271E-1,6.695165634E-1,1.238288605E0
1.578872458E1,-4.442935586E-1,-5.721494555E-2,-1.325969696E-1,4.671747773E-1
1.579872458E1,-3.803986013E-1,-7.194213867E-1,1.071754456E0,1.345707190E0
1.580872458E1,-4.927626550E-1,-1.066062808E0,2.328865051E0,2.608240283E0
1.581872458E1,4.099728465E-1,-8.231520057E-1,-4.101629257E-1,1.006921340E0
1.582872411E1,3.397935033E-1,-3.710916638E-1,-1.638430595E0,1.713949668E0
1.583872411E1,6.219801307E-1,-4.972201586E-2,1.411943436E0,1.543669598E0
1.584872411E1,-6.779200435E-1,-1.677639842E0,4.524600029E0,4.872992556E0
1.585872411E1,7.731947303E-2,-1.274511099E0,5.358152390E-1,1.384721926E0
1.586872411E1,2.481729388E-1,-1.527545691E0,-3.787279129E-1,1.593242127E0
1.587872411E1,-1.367182583E-1,-1.800100207E0,3.012971878E-1,1.830254800E0
1.588872461E1,-3.511143029E-1,-1.982415915E0,1.235140800E0,2.361954045E0
1.589872461E1,-7.355819345E-1,-1.702228904E0,4.138908386E-1,1.899992013E0
1.590872461E1,-8.188236356E-1,-2.309468508E0,1.134557724E0,2.700247797E0
1.591872461E1,-4.285646975E-1,-1.522430897E0,3.419961929E-1,1.618154792E0
1.592872461E1,-5.790033564E-2,-2.246389866E0,1.247071266E0,2.569981833E0
1.593872415E1,-2.068658918E-1,-2.594189405E0,8.975849152E-1,2.752865934E0
1.594872415E1,1.719031930E-1,-2.306766748E0,-1.343498230E-1,2.317061375E0
1.595872415E1,4.276003838E-1,-1.354641199E0,-2.205133438E-1,1.437539913E0
1.596872415E1,5.919415355E-1,-1.130963206E0,2.894344330E-1,1.308909793E0
1.597872415E1,6.791645661E-3,-4.067820311E-1,-1.990327835E-1,4.529147780E-1
