"Time (s)","Linear Acceleration x (m/s^2)","Linear Acceleration y (m/s^2)","Linear Acceleration z (m/s^2)","Absolute acceleration (m/s^2)"
0.000000000E0,-1.304107428E0,-6.748389244E0,1.633901596E0,7.064777986E0
1.000000000E-2,-1.336521626E0,-6.752864838E0,1.641930580E0,7.076963304E0
2.000000000E-2,-1.060557604E0,-6.272503853E0,5.847812176E0,8.640948690E0
3.000000000E-2,-3.150573075E-1,-6.051609993E0,5.672200203E0,8.300307209E0
4.000000000E-2,-9.947627783E-2,-5.990480423E0,5.089656830E0,7.861320365E0
5.000000000E-2,-1.677511930E-1,-6.111776829E0,4.135119915E0,7.381136307E0
6.000000000E-2,-1.810887456E-1,-6.104295254E0,4.124834061E0,7.369495892E0
7.000000000E-2,-9.000399113E-1,-6.895939350E0,3.254237652E0,7.678158246E0
8.000000000E-2,-9.808331132E-1,-6.896872997E0,3.122941017E0,7.634242027E0
9.000000000E-2,-1.177467227E0,-6.589373589E0,3.257739067E0,7.444403078E0
9.999960000E-2,-1.084825754E0,-6.508707523E0,3.310601711E0,7.382425362E0
1.099996000E-1,-9.625610113E-1,-6.571205616E0,3.368291378E0,7.446653863E0
1.199996000E-1,-8.389657736E-1,-6.611941338E0,3.401299477E0,7.482677993E0
1.300007530E-1,-8.602544665E-1,-6.595044136E0,3.377725601E0,7.459468824E0
1.400007530E-1,-7.396398783E-1,-6.709361076E0,3.741144657E0,7.717431992E0
1.500007530E-1,-6.171156168E-1,-6.798727036E0,4.197639942E0,8.013969183E0
1.600007530E-1,-5.667408109E-1,-6.813778400E0,4.421621323E0,8.142450881E0
1.700007530E-1,-3.915894032E-1,-6.750442982E0,4.728609085E0,8.251155470E0
1.800007530E-1,-3.135412633E-1,-6.675983906E0,4.762770176E0,8.206768486E0
1.900007530E-1,-2.922710180E-1,-6.631135941E0,4.615640640E0,8.084647471E0
2.000007530E-1,-3.628880978E-1,-6.657903671E0,4.420330048E0,7.999917924E0
2.100007530E-1,-3.996593952E-1,-6.660535336E0,4.102550983E0,7.832840044E0
2.200007530E-1,-3.904412985E-1,-6.618176460E0,3.901885509E0,7.692685786E0
2.300007530E-1,-3.125522733E-1,-6.514250755E0,3.674148560E0,7.485487256E0
2.400013780E-1,-3.031003773E-1,-6.425446987E0,3.567059994E0,7.355416767E0
2.500013780E-1,-3.715472817E-1,-6.359158516E0,3.450756550E0,7.244630093E0
2.600013780E-1,-4.660376906E-1,-6.370001793E0,3.421787262E0,7.245877589E0
2.700013780E-1,-7.144560814E-1,-6.425141335E0,3.421328545E0,7.314258518E0
2.800013780E-1,-8.560806513E-1,-6.457429886E0,3.456492901E0,7.374185920E0
2.900013780E-1,-8.561552763E-1,-6.464572430E0,3.592258930E0,7.444999851E0
3.000013780E-1,-7.494465113E-1,-6.422811985E0,3.627949238E0,7.414593687E0
3.100013780E-1,-5.458208919E-1,-6.397488117E0,3.830376148E0,7.476466819E0
3.200013780E-1,-4.386104047E-1,-6.394186974E0,3.901317596E0,7.503218318E0
3.300013780E-1,-3.250258267E-1,-6.416281223E0,4.011852264E0,7.574250136E0
3.400013780E-1,-2.969401181E-1,-6.450729847E0,3.972015381E0,7.581358399E0
3.500013780E-1,-3.070226014E-1,-6.575451851E0,3.860130310E0,7.630952492E0
3.600013780E-1,-3.110670745E-1,-6.638760090E0,3.793134689E0,7.652304818E0
3.700013780E-1,-3.067646921E-1,-6.662301064E0,3.754334927E0,7.653456133E0
3.800019110E-1,-2.654053271E-1,-6.639576912E0,3.746303558E0,7.628185361E0
3.900019110E-1,-1.263345778E-1,-6.557717323E0,3.824940205E0,7.592745517E0
4.000020440E-1,-1.774966717E-2,-6.509569645E0,3.858061790E0,7.566997607E0
4.100020440E-1,1.025702953E-1,-6.510568142E0,3.923731327E0,7.602215843E0
4.200020440E-1,8.019077778E-2,-6.517209530E0,3.880593777E0,7.585476826E0
4.300015440E-1,-3.014016151E-2,-6.511893272E0,3.754288673E0,7.516671196E0
4.400020100E-1,-2.320134044E-1,-6.523858070E0,3.655370712E0,7.481730374E0
4.500020100E-1,-6.776042581E-1,-6.621730328E0,3.556392670E0,7.546813161E0
4.600020100E-1,-8.694056273E-1,-6.643669605E0,3.520335197E0,7.568815751E0
4.700020100E-1,-1.225574017E0,-6.700306892E0,3.492383003E0,7.654598824E0
4.800020100E-1,-1.248251438E0,-6.711022377E0,3.514001369E0,7.677509923E0
4.900025100E-1,-1.148782015E0,-6.636921406E0,3.625491142E0,7.649353691E0
5.000025100E-1,-1.037677526E0,-6.572193623E0,3.631805420E0,7.580271385E0
5.100025100E-1,-9.130620956E-1,-6.543723106E0,3.486419201E0,7.470549734E0
5.200025100E-1,-8.834571838E-1,-6.520706177E0,3.395412922E0,7.404656275E0
5.300025100E-1,-8.839037418E-1,-6.504327297E0,3.199466228E0,7.302338226E0
5.400020100E-1,-8.821139336E-1,-6.476911068E0,3.014416695E0,7.198278265E0
5.500021760E-1,-8.735514879E-1,-6.427698135E0,2.879352570E0,7.097116791E0
5.600021760E-1,-1.036466479E0,-6.464825153E0,2.916302681E0,7.167499449E0
5.700021760E-1,-1.278881311E0,-6.611075401E0,2.982547283E0,7.364607503E0
5.800021760E-1,-1.324067950E0,-6.605373383E0,3.008900642E0,7.378183824E0
5.900021760E-1,-1.261354685E0,-6.663871288E0,3.168541431E0,7.485843372E0
6.000021760E-1,-1.179403067E0,-6.688770771E0,3.311061859E0,7.556042394E0
6.100021760E-1,-1.186193109E0,-6.665418625E0,3.285637379E0,7.525308799E0
6.200021760E-1,-7.437928319E-1,-6.703428268E0,3.820032120E0,7.751246592E0
6.300026760E-1,-5.527361035E-1,-6.690426350E0,3.703383446E0,7.666966211E0
6.400026760E-1,-5.699424148E-1,-6.669944763E0,3.682852745E0,7.640445134E0
6.500026760E-1,-5.186628699E-1,-6.556728363E0,3.196347237E0,7.312751442E0
6.600027090E-1,-6.066585183E-1,-6.496306419E0,3.220127106E0,7.275936382E0
6.700027090E-1,-5.776342750E-1,-6.472368717E0,3.350135326E0,7.310856644E0
6.800021750E-1,-6.618674994E-1,-6.540862083E0,3.297867298E0,7.355057722E0
6.900021750E-1,-8.647888303E-1,-6.749049187E0,3.069492817E0,7.464536878E0
7.000021750E-1,-9.501634836E-1,-6.806133270E0,2.974550247E0,7.488271490E0
7.100021750E-1,-1.163924098E0,-6.979245186E0,2.992658138E0,7.682485627E0
7.200021750E-1,-1.282142639E0,-7.069961071E0,2.975358009E0,7.776952782E0
7.300021750E-1,-1.431760550E0,-7.180249691E0,3.067681313E0,7.938299096E0
7.400022080E-1,-1.424110413E0,-7.163663864E0,3.049345016E0,7.914838941E0
7.500022080E-1,-1.251539230E0,-7.130755901E0,3.215860367E0,7.921855090E0
7.600022080E-1,-1.102895498E0,-7.029120922E0,3.211123466E0,7.806166366E0
7.700022080E-1,-9.448329210E-1,-6.982486248E0,3.182864666E0,7.731652536E0
7.800022080E-1,-8.781329393E-1,-6.970613480E0,3.151265144E0,7.700067646E0
7.900017080E-1,-9.759213328E-1,-6.866677761E0,3.094393730E0,7.594666450E0
8.000017080E-1,-1.122493029E0,-6.871463299E0,3.064181328E0,7.606984007E0
8.100017080E-1,-1.421942592E0,-6.903779030E0,2.950589657E0,7.641339212E0
8.200017080E-1,-1.606484532E0,-6.953751087E0,2.923389912E0,7.712435109E0
8.300017080E-1,-1.980001926E0,-6.912128925E0,2.931099415E0,7.764617034E0
8.400017080E-1,-2.049955368E0,-6.829596043E0,2.998403072E0,7.735381057E0
8.500015410E-1,-2.039831638E0,-6.782824039E0,3.276482582E0,7.804034416E0
8.600015410E-1,-1.984190702E0,-6.776013851E0,3.525623798E0,7.891856538E0
8.700015410E-1,-1.782525063E0,-6.851793289E0,3.700065613E0,7.988426154E0
8.800020410E-1,-1.649232864E0,-6.866244316E0,3.737449646E0,7.989606367E0
8.900020410E-1,-1.315568209E0,-6.842061520E0,3.791650295E0,7.932284508E0
9.000020410E-1,-1.159715414E0,-6.803683758E0,3.805503368E0,7.881428069E0
9.100020410E-1,-9.892942905E-1,-6.688744545E0,3.723574162E0,7.719003259E0
9.200020410E-1,-9.173334837E-1,-6.637997627E0,3.559618473E0,7.587845339E0
9.300015410E-1,-8.720359206E-1,-6.538437366E0,3.198315620E0,7.330813915E0
9.400015410E-1,-8.530946970E-1,-6.597537518E0,3.019773960E0,7.305772145E0
9.500015410E-1,-8.296101689E-1,-6.674566269E0,2.732602596E0,7.259835044E0
9.600015070E-1,-8.047003746E-1,-6.700074196E0,2.695855141E0,7.266785525E0
9.700015070E-1,-8.211239576E-1,-6.674344540E0,2.722856045E0,7.255002731E0
9.800015070E-1,-9.023377895E-1,-6.630339622E0,2.757845879E0,7.237494794E0
9.900015730E-1,-1.082934141E0,-6.688430309E0,2.789394855E0,7.327248461E0
1.000001573E0,-1.131450534E0,-6.663803101E0,2.776188850E0,7.307097687E0
1.010001573E0,-1.087982655E0,-6.456761360E0,2.822192192E0,7.130094129E0
1.020001573E0,-1.167603850E0,-6.335008621E0,2.800128937E0,7.023984271E0
1.030001573E0,-1.371238112E0,-6.229696751E0,2.614883900E0,6.893985304E0
1.040001073E0,-1.390098095E0,-6.268669128E0,2.547377586E0,6.907801236E0
1.050001073E0,-1.501581669E0,-6.390893936E0,2.768826008E0,7.124933001E0
1.059968273E0,-1.500440001E0,-6.390048504E0,2.960368633E0,7.200543210E0
1.069934939E0,-1.451427698E0,-6.441561699E0,3.261521816E0,7.364637401E0
1.079901605E0,-1.463744640E0,-6.521355152E0,3.255636692E0,7.434365586E0
1.089868271E0,-1.440165281E0,-6.536381721E0,3.163500309E0,7.403113956E0
1.099835804E0,-1.293237209E0,-6.410274506E0,3.042875290E0,7.212709044E0
1.109802470E0,-1.059657335E0,-6.465625763E0,2.900312424E0,7.165124028E0
1.119769136E0,-1.036385536E0,-6.487827301E0,2.877906322E0,7.172750021E0
1.129735802E0,-1.280419946E0,-6.410463333E0,2.961966991E0,7.176821291E0
1.139702468E0,-1.475908756E0,-6.247024536E0,3.063169956E0,7.112428024E0
1.149669134E0,-1.801383734E0,-6.130462646E0,3.355591774E0,7.217170621E0
1.159635800E0,-1.930216908E0,-6.128018379E0,3.530763626E0,7.331073479E0
1.169602466E0,-1.860419512E0,-6.123313904E0,3.833890438E0,7.460217813E0
1.179569166E0,-1.874541759E0,-6.128683090E0,3.903490067E0,7.504125394E0
1.189535832E0,-1.890945315E0,-6.351477623E0,3.809875488E0,7.644088789E0
1.199502498E0,-1.909960866E0,-6.479126930E0,3.704248905E0,7.703797521E0
1.209469431E0,-1.713238716E0,-6.511236668E0,3.557148933E0,7.614768439E0
1.219436097E0,-1.531805038E0,-6.345006943E0,3.584390163E0,7.446703474E0
1.229402763E0,-1.274523616E0,-5.983724117E0,3.507156372E0,7.051915384E0
1.239369429E0,-1.207878113E0,-5.896346569E0,3.370915413E0,6.898473970E0
1.249336095E0,-1.190616846E0,-5.977538586E0,2.857578754E0,6.731589140E0
1.259302761E0,-1.059160948E0,-6.097152710E0,2.507655621E0,6.677232196E0
1.269269427E0,-7.648177147E-1,-6.270947933E0,2.021489143E0,6.632959556E0
1.279236093E0,-5.721544623E-1,-6.298660278E0,1.995862961E0,6.632039731E0
1.289202693E0,-4.271562397E-1,-6.392444611E0,2.219058514E0,6.780120297E0
1.299169359E0,-4.539661407E-1,-6.499318600E0,2.338493347E0,6.922122410E0
1.309136025E0,-6.337422132E-1,-6.630594730E0,2.753038883E0,7.207332292E0
1.319102625E0,-7.315596342E-1,-6.614149094E0,2.926545620E0,7.269581625E0
1.329069291E0,-8.001644015E-1,-6.555492401E0,3.172530651E0,7.326642780E0
1.339035957E0,-8.205488920E-1,-6.422873497E0,3.210115433E0,7.227132594E0
1.349003157E0,-9.264138341E-1,-6.321504116E0,3.211513996E0,7.150767723E0
1.359002623E0,-9.551668763E-1,-6.242881775E0,3.220790863E0,7.089387167E0
1.369002623E0,-9.942808151E-1,-6.152155876E0,3.093074322E0,6.957350431E0
1.379002623E0,-1.061105728E0,-6.171102524E0,2.950376034E0,6.921934012E0
1.389002623E0,-9.818955064E-1,-6.170953751E0,2.611683846E0,6.772420652E0
1.399001756E0,-8.042688370E-1,-6.087747574E0,2.411419392E0,6.597155627E0
1.409001756E0,-5.618441701E-1,-6.052918434E0,2.033195972E0,6.409943549E0
1.419002256E0,-5.047622919E-1,-6.162518024E0,1.917827606E0,6.473752861E0
1.429001922E0,-6.387636065E-1,-6.410676479E0,1.824641228E0,6.695827617E0
1.439001922E0,-7.746852636E-1,-6.491025448E0,1.865840912E0,6.798154965E0
1.449001922E0,-8.835538626E-1,-6.437788963E0,2.300292015E0,6.893267550E0
1.459002188E0,-9.757840633E-1,-6.379853249E0,2.500110626E0,6.921360788E0
1.469002188E0,-1.126786113E0,-6.418416500E0,2.740788460E0,7.069486452E0
1.479001654E0,-1.041902184E0,-6.300535679E0,2.774054527E0,6.962592084E0
1.489001654E0,-8.843458295E-1,-6.338634491E0,2.754777431E0,6.967722257E0
1.499001654E0,-7.391109467E-1,-6.315925121E0,2.634060860E0,6.882984218E0
1.509001387E0,-5.982154608E-2,-6.176588058E0,2.820890427E0,6.790525860E0
1.519001387E0,2.929123640E-1,-6.169401646E0,2.969324112E0,6.853043120E0
1.529001387E0,8.922822475E-1,-6.204343796E0,2.976279259E0,6.938896726E0
1.539001387E0,1.146339774E0,-6.173694611E0,2.795051098E0,6.873202359E0
1.549001387E0,1.266144872E0,-6.126531124E0,2.379948139E0,6.693404186E0
1.559001387E0,1.137212515E0,-6.116935730E0,2.188485622E0,6.595424501E0
1.569001387E0,5.905139446E-2,-6.224987507E0,2.046112061E0,6.552902494E0
1.579001387E0,-8.431816101E-1,-6.407661438E0,2.115755558E0,6.800404540E0
1.589001387E0,-2.189022541E0,-6.213883877E0,2.345174313E0,6.993140573E0
1.599001920E0,-2.463161945E0,-5.897513866E0,2.622279167E0,6.908269292E0
1.609001920E0,-2.398072958E0,-5.686762810E0,3.094277859E0,6.903953985E0
1.619001986E0,-2.032015085E0,-5.746344090E0,3.364495754E0,6.961995934E0
1.629001986E0,-9.050846100E-1,-5.948186398E0,3.625607491E0,7.024608832E0
1.639001986E0,-3.100409508E-1,-6.143282890E0,3.582431793E0,7.118277012E0
1.649001452E0,4.984833002E-1,-6.453800678E0,3.331966400E0,7.280249232E0
1.659001452E0,7.581310272E-1,-6.567514896E0,3.113361359E0,7.307532656E0
1.669001452E0,1.002966285E0,-6.581248283E0,2.936228752E0,7.276002310E0
1.679001452E0,9.385161400E-1,-6.458670616E0,2.840706825E0,7.117924834E0
1.689001452E0,5.580322742E-1,-6.319731236E0,2.841875553E0,6.951737881E0
1.699001452E0,3.250497580E-1,-6.228751659E0,2.854498863E0,6.859385420E0
1.709001718E0,2.208415270E-1,-5.953836918E0,2.980917454E0,6.662042772E0
1.719001484E0,2.532091141E-1,-5.841592789E0,2.986737251E0,6.565738387E0
1.729001817E0,2.784407139E-1,-5.856238842E0,2.872198105E0,6.528597442E0
1.739001817E0,2.958137989E-1,-5.907979012E0,2.721962452E0,6.511589775E0
1.749001817E0,3.049765825E-1,-6.031509876E0,2.374035835E0,6.489080694E0
1.759001550E0,3.076863289E-1,-6.078808784E0,2.154215813E0,6.456565099E0
1.769001550E0,4.399790764E-1,-6.180625439E0,1.869883060E0,6.472261974E0
1.779001550E0,5.055743456E-1,-6.190016270E0,1.804995060E0,6.467604967E0
1.789001550E0,6.346135139E-1,-6.171851635E0,1.846744537E0,6.473403456E0
1.799001550E0,6.485878229E-1,-6.182996750E0,1.945821762E0,6.514317869E0
1.809001550E0,7.337257862E-1,-6.162003040E0,2.097557068E0,6.550448889E0
1.819001550E0,7.775645256E-1,-6.148743629E0,2.142773628E0,6.557677457E0
1.829001550E0,7.501579523E-1,-6.087798119E0,2.078687191E0,6.476493135E0
1.839001550E0,6.326650381E-1,-6.089885235E0,1.996670723E0,6.440004752E0
1.849002083E0,2.221525908E-1,-6.164041519E0,1.841001987E0,6.436928456E0
1.859002083E0,3.525543213E-2,-6.173006535E0,1.891217709E0,6.456311412E0
1.869002083E0,-3.439978361E-1,-6.112471581E0,2.074206829E0,6.463975348E0
1.879002083E0,-6.155331135E-1,-6.075345516E0,2.289401531E0,6.521507765E0
1.889002083E0,-9.690438509E-1,-6.046191216E0,2.628850937E0,6.663807579E0
1.899001549E0,-1.029635549E0,-5.979730606E0,2.731810093E0,6.654330460E0
1.909001549E0,-1.104696512E0,-5.895345688E0,2.879132748E0,6.653184241E0
1.919001549E0,-1.084464788E0,-5.933828831E0,2.816408157E0,6.657217390E0
1.929001549E0,-1.145506382E0,-5.997925758E0,2.604148865E0,6.638440298E0
1.939001549E0,-1.184130192E0,-6.058366299E0,2.423677921E0,6.631755513E0
1.949001549E0,-1.372032046E0,-6.199387074E0,2.141442299E0,6.700794516E0
1.959001549E0,-1.484441757E0,-6.325341702E0,1.990143299E0,6.795158962E0
1.969001549E0,-1.707018852E0,-6.570986748E0,2.002054214E0,7.078135438E0
1.979001549E0,-1.739407539E0,-6.622727394E0,2.144213200E0,7.175214768E0
1.989001549E0,-1.774056435E0,-6.641154289E0,2.620747089E0,7.356665130E0
1.999001549E0,-1.831174135E0,-6.656456470E0,2.817845821E0,7.456665912E0
2.009001282E0,-1.860185027E0,-6.788772583E0,2.958209038E0,7.635359993E0
2.019001015E0,-1.813808441E0,-6.951481819E0,2.957160950E0,7.769028345E0
2.029001015E0,-1.533675551E0,-7.245193481E0,2.709368706E0,7.885788994E0
2.039001015E0,-1.277044892E0,-7.370354176E0,2.640483856E0,7.932535492E0
2.049001015E0,-9.053491354E-1,-7.652227402E0,2.649154186E0,8.148267249E0
2.059000581E0,-8.123748302E-1,-7.744767666E0,2.850983620E0,8.292736983E0
2.069000581E0,-9.891576767E-1,-7.703455448E0,3.003831387E0,8.327344219E0
2.079000581E0,-1.106293440E0,-7.648418427E0,3.102709770E0,8.327604549E0
2.089000581E0,-1.429036379E0,-7.506148338E0,3.237637043E0,8.298596355E0
2.099001114E0,-1.728629112E0,-7.592055798E0,3.044795513E0,8.360517302E0
2.109001114E0,-1.954743385E0,-7.516524792E0,2.762115479E0,8.243084894E0
2.119000680E0,-1.994273424E0,-7.326854706E0,2.688285828E0,8.055234761E0
2.129000680E0,-2.187553644E0,-7.300931454E0,2.579945087E0,8.046434471E0
2.139000680E0,-2.218732119E0,-7.391964912E0,2.459604740E0,8.100220550E0
2.149000646E0,-2.029571056E0,-7.389171600E0,2.303431988E0,8.001550758E0
2.159000179E0,-1.893271565E0,-7.419563770E0,2.207879543E0,7.969261938E0
2.169000179E0,-1.656885982E0,-7.454298973E0,2.069857597E0,7.911773177E0
2.179000712E0,-1.539244294E0,-7.423359394E0,2.013141632E0,7.843996234E0
2.189000712E0,-1.441778898E0,-7.261068821E0,1.998172760E0,7.667759855E0
2.199001212E0,-1.524159670E0,-7.292304516E0,1.964375973E0,7.704514314E0
2.209001212E0,-1.505127668E0,-7.274201870E0,2.023253918E0,7.698894632E0
2.219001212E0,-1.367903948E0,-7.187076092E0,2.181540489E0,7.634418306E0
2.229001212E0,-1.038909197E0,-7.094724178E0,2.546103954E0,7.609013657E0
2.239001212E0,-8.151326776E-1,-7.007804871E0,2.700773239E0,7.554332960E0
2.249001212E0,-5.347821712E-1,-6.781833649E0,2.778076649E0,7.348263024E0
2.259001478E0,-5.132379532E-1,-6.702227592E0,2.573582172E0,7.197679702E0
2.269001478E0,-6.693587303E-1,-6.672831535E0,2.111487389E0,7.030867713E0
2.279001478E0,-7.910935283E-1,-6.626248360E0,1.856622219E0,6.926762762E0
2.289001478E0,-1.112948656E0,-6.447915554E0,1.350180149E0,6.681111894E0
2.299001478E0,-1.264880657E0,-6.371439457E0,1.259804726E0,6.616817345E0
2.309001478E0,-1.581180811E0,-6.202434063E0,1.257829189E0,6.523224305E0
2.319001478E0,-1.622498035E0,-6.120628834E0,1.356845856E0,6.475772376E0
2.329001478E0,-1.459357500E0,-5.953104019E0,1.649905682E0,6.347547600E0
2.339001478E0,-1.380609512E0,-5.870044708E0,1.763385296E0,6.282756975E0
2.349002011E0,-1.271883965E0,-5.832655430E0,1.861348629E0,6.253173346E0
2.359002011E0,-1.250407577E0,-5.829993725E0,1.874833584E0,6.250387740E0
2.369001577E0,-1.230414510E0,-5.860933781E0,1.728074074E0,6.233033343E0
2.379001577E0,-1.164176106E0,-5.852253437E0,1.659105301E0,6.193287229E0
2.389001577E0,-1.044046760E0,-5.779908657E0,1.534139633E0,6.070499332E0
2.399001043E0,-1.033635497E0,-5.790190220E0,1.267252445E0,6.016696260E0
2.409001043E0,-1.126327395E0,-5.892869949E0,9.568452835E-1,6.075366864E0
2.419001476E0,-1.264099479E0,-5.926140785E0,8.724284172E-1,6.121946050E0
2.429001976E0,-1.410332084E0,-5.877348900E0,9.826741219E-1,6.123554124E0
2.439001976E0,-1.494633555E0,-5.811414719E0,1.101630688E0,6.100824589E0
2.449001476E0,-1.493926167E0,-5.764137745E0,1.353939533E0,6.106574457E0
2.459002009E0,-1.503386259E0,-5.686930180E0,1.482665062E0,6.066270749E0
2.469002009E0,-1.502551913E0,-5.605014801E0,1.776067734E0,6.068629974E0
2.479001475E0,-1.507375240E0,-5.509231091E0,1.918100834E0,6.025190299E0
2.489001475E0,-1.472091794E0,-5.350204468E0,2.249073982E0,5.987493288E0
2.499000975E0,-1.493114471E0,-5.257602215E0,2.378715992E0,5.960709827E0
2.509000541E0,-1.405579805E0,-5.187475681E0,2.594673634E0,5.968072536E0
2.519000541E0,-1.361257553E0,-5.149920464E0,2.675012112E0,5.960737597E0
2.529000641E0,-1.187379122E0,-5.074902534E0,2.602034569E0,5.825383147E0
2.539000641E0,-1.155154347E0,-5.030922413E0,2.546729088E0,5.755900532E0
2.549000641E0,-1.240569353E0,-4.955822945E0,2.463537216E0,5.671702478E0
2.558999941E0,-1.419406891E0,-4.797304153E0,2.472239494E0,5.580395253E0
2.568999941E0,-1.801004171E0,-4.630562782E0,2.631898880E0,5.622510064E0
2.578999941E0,-2.015736580E0,-4.528694153E0,2.750873566E0,5.669177195E0
2.588999941E0,-2.314078569E0,-4.362702370E0,2.794563293E0,5.674303093E0
2.599000474E0,-2.350996733E0,-4.279853821E0,2.654439926E0,5.557911990E0
2.609000474E0,-2.321242332E0,-4.266476631E0,2.317606926E0,5.381662445E0
2.619000474E0,-2.223703861E0,-4.252302170E0,2.169757843E0,5.266382222E0
2.629000474E0,-1.837236166E0,-4.236463070E0,1.842185974E0,4.971589810E0
2.639000974E0,-1.669387937E0,-4.250723839E0,1.735621452E0,4.885477567E0
2.649000440E0,-1.375349283E0,-4.316680908E0,1.641904831E0,4.818835045E0
2.659000873E0,-1.332280993E0,-4.380463600E0,1.694648743E0,4.882137683E0
2.669001306E0,-1.786242008E0,-4.823853493E0,2.120076180E0,5.563716926E0
2.679001772E0,-1.714092255E0,-4.240795612E0,2.323199272E0,5.130274314E0
2.689001772E0,-1.975008845E0,-4.038066387E0,2.685869217E0,5.236461929E0
2.698968938E0,-2.125865459E0,-4.003132820E0,2.536257744E0,5.193936818E0
2.708935838E0,-2.213732958E0,-4.089861870E0,1.906972885E0,5.026343533E0
2.718902504E0,-2.069366217E0,-4.188317299E0,1.451948166E0,4.892078476E0
2.728868337E0,-1.609439373E0,-4.199338913E0,1.055789948E0,4.619462611E0
2.738834570E0,-1.345262885E0,-4.107388496E0,9.282855988E-1,4.420643239E0
2.748801236E0,-1.030463576E0,-3.963460684E0,1.013767242E0,4.218838679E0
2.758767836E0,-1.018561244E0,-3.995774508E0,1.323218346E0,4.330656730E0
2.768734502E0,-1.308518767E0,-4.251436710E0,2.022123337E0,4.886299035E0
2.778701168E0,-1.429065943E0,-4.203469753E0,2.399879456E0,5.046861286E0
2.788667834E0,-1.782241106E0,-3.947658777E0,2.774461746E0,5.143737081E0
2.798634500E0,-2.076519012E0,-3.816253662E0,2.723518372E0,5.127696904E0
2.808601600E0,-2.556166649E0,-3.737824440E0,2.344169617E0,5.099063706E0
2.818568766E0,-2.813120365E0,-3.791038513E0,1.891813278E0,5.085722827E0
2.828534899E0,-3.046104670E0,-3.915688276E0,1.321090698E0,5.133872707E0
2.838501565E0,-2.995720625E0,-4.056656361E0,1.238980293E0,5.192867710E0
2.848468065E0,-2.819495678E0,-4.314172268E0,1.692949295E0,5.424731841E0
2.858435665E0,-2.669349670E0,-4.417268276E0,1.984458923E0,5.529535596E0
2.868402831E0,-2.381357908E0,-4.411363602E0,2.383658409E0,5.550929807E0
2.878369397E0,-2.225234985E0,-4.391064167E0,2.530513763E0,5.535035245E0
2.888336063E0,-2.229460478E0,-4.500987053E0,2.733606339E0,5.718564688E0
2.898302729E0,-2.363979578E0,-4.574740410E0,2.771099091E0,5.847703774E0
2.908270562E0,-2.702165127E0,-4.728263378E0,2.757583618E0,6.104296713E0
2.918237228E0,-2.806890249E0,-4.785896301E0,2.693430901E0,6.167495950E0
2.928203461E0,-2.795593739E0,-4.741466999E0,2.451821327E0,6.025635359E0
2.938169627E0,-2.748233080E0,-4.685361385E0,2.266385078E0,5.885736801E0
2.948136293E0,-2.717741966E0,-4.648398876E0,1.798446655E0,5.676983696E0
2.958103459E0,-2.718022823E0,-4.645586967E0,1.533694267E0,5.596547547E0
2.968070125E0,-2.725771904E0,-4.805115700E0,1.128026962E0,5.638387552E0
2.978035891E0,-2.706002235E0,-4.893321037E0,1.032078743E0,5.686143280E0
2.988002557E0,-2.685073614E0,-5.014765263E0,1.009337425E0,5.777218448E0
2.998002057E0,-2.579210758E0,-5.009392738E0,1.089035988E0,5.738670850E0
3.008001823E0,-2.430150032E0,-4.979156494E0,1.331733704E0,5.698345657E0
3.018001823E0,-2.365596294E0,-4.968110085E0,1.497414589E0,5.702667279E0
3.028001723E0,-2.464504719E0,-4.899380207E0,1.642806053E0,5.725078310E0
3.038002156E0,-2.501878262E0,-4.881193638E0,1.673534393E0,5.734645894E0
3.048002156E0,-2.647036076E0,-4.920087337E0,1.619880676E0,5.817050180E0
3.058002156E0,-2.677036285E0,-4.933193684E0,1.574619293E0,5.829438147E0
3.068002656E0,-2.686560392E0,-4.769888878E0,1.356894493E0,5.640089478E0
3.078002656E0,-2.624686718E0,-4.683563709E0,1.179995537E0,5.497011811E0
3.088002656E0,-2.558815479E0,-4.526379585E0,8.920974731E-1,5.275555583E0
3.098002656E0,-2.491436720E0,-4.511472225E0,7.288169861E-1,5.204979613E0
3.108002656E0,-2.254118443E0,-4.576336384E0,4.949607849E-1,5.125318608E0
3.118002156E0,-2.124874592E0,-4.644086838E0,5.510129929E-1,5.136754803E0
3.128002589E0,-2.015481949E0,-4.789188385E0,9.340114594E-1,5.279286910E0
3.138002589E0,-1.942202449E0,-4.866892338E0,1.304998398E0,5.400167794E0
3.148002755E0,-1.871993303E0,-4.868491650E0,1.816747665E0,5.523327073E0
3.158002255E0,-1.812696457E0,-4.841287613E0,2.068629265E0,5.568048243E0
3.168001755E0,-1.777377486E0,-4.606833458E0,2.425045013E0,5.501166109E0
3.178001855E0,-1.747317791E0,-4.429684639E0,2.478206635E0,5.368121980E0
3.188002055E0,-1.783326745E0,-4.141511917E0,2.259854317E0,5.043740355E0
3.198001521E0,-1.797907829E0,-4.070735931E0,2.098512650E0,4.920073061E0
3.208000854E0,-1.883927464E0,-3.995714188E0,1.848342896E0,4.788662237E0
3.218000854E0,-1.894537330E0,-3.928034544E0,1.779184341E0,4.710013163E0
3.228001287E0,-1.869066596E0,-3.809485435E0,1.707438469E0,4.573940899E0
3.238001287E0,-1.788593888E0,-3.771299124E0,1.686511993E0,4.501787188E0
3.248001287E0,-1.788344145E0,-3.787530661E0,1.696270943E0,4.518948815E0
3.258000787E0,-1.639465570E0,-3.665575266E0,1.855993271E0,4.423686292E0
3.268000787E0,-1.198387861E0,-3.678789139E0,2.381431580E0,4.543219053E0
3.278001220E0,-1.190943241E0,-3.733416080E0,2.528747559E0,4.663829505E0
3.288001220E0,-1.342004299E0,-3.924683094E0,2.643168449E0,4.918379040E0
3.298001220E0,-1.585298777E0,-4.032491684E0,2.617021561E0,5.061913002E0
3.309458718E0,-1.977208376E0,-4.080528259E0,2.417316437E0,5.138431920E0
3.319459218E0,-2.148753881E0,-4.023961544E0,2.219308853E0,5.072942099E0
3.329459651E0,-2.282852173E0,-3.886099815E0,1.702199936E0,4.817745369E0
3.339459651E0,-2.316830158E0,-3.828384399E0,1.503604889E0,4.720705112E0
3.349459651E0,-2.431844711E0,-3.745396137E0,1.319838524E0,4.656590454E0
3.359459651E0,-2.386057615E0,-3.711161137E0,1.455254555E0,4.645831868E0
3.369459151E0,-2.312244415E0,-3.649408340E0,2.044584274E0,4.779642280E0
3.379459151E0,-2.301460505E0,-3.741368532E0,2.266893387E0,4.943011691E0
3.389459151E0,-2.236039639E0,-3.962682247E0,2.544663429E0,5.213255780E0
3.399459151E0,-2.118106365E0,-4.051374435E0,2.466925621E0,5.194779246E0
3.409459151E0,-1.740093470E0,-4.070724964E0,2.256365776E0,4.968894599E0
3.419459151E0,-1.518608570E0,-4.022597313E0,2.076539993E0,4.774880048E0
3.429459151E0,-1.238664508E0,-3.884554386E0,1.800699234E0,4.457193094E0
3.439459151E0,-1.168097138E0,-3.772314072E0,1.751986504E0,4.320215398E0
3.449459151E0,-1.200025558E0,-3.708740473E0,1.929390907E0,4.349409903E0
3.459459651E0,-1.222456336E0,-3.708222866E0,2.048140526E0,4.409103756E0
3.469459651E0,-1.252989769E0,-3.585530043E0,2.157352448E0,4.368086381E0
3.479459651E0,-1.336279869E0,-3.581987619E0,2.122229576E0,4.372657952E0
3.489459451E0,-1.528594494E0,-3.618678570E0,1.916844368E0,4.371009958E0
3.499459451E0,-1.490280390E0,-3.653281689E0,1.933788776E0,4.393966519E0
3.509458951E0,-1.547805548E0,-3.881273270E0,1.278843403E0,4.369831193E0
3.519458951E0,-1.438850641E0,-4.035798550E0,1.077154160E0,4.417943207E0
3.529458951E0,-1.094019175E0,-4.054761887E0,1.014123440E0,4.320465052E0
3.539458951E0,-9.222635031E-1,-4.016456604E0,1.131246090E0,4.273430863E0
3.549458951E0,-7.932935357E-1,-3.905296803E0,1.693577766E0,4.329995774E0
3.559458951E0,-9.062517881E-1,-3.820444345E0,1.991161346E0,4.402477803E0
3.569459451E0,-1.393697143E0,-3.962264776E0,2.042549610E0,4.670539882E0
3.579459451E0,-1.738845587E0,-4.184280396E0,1.912960529E0,4.918455488E0
3.589459451E0,-2.432592869E0,-4.509066105E0,1.625474930E0,5.375067809E0
3.599459451E0,-2.645151615E0,-4.642283440E0,1.433763027E0,5.532024857E0
3.609459451E0,-2.400151491E0,-4.570897579E0,1.460122585E0,5.365239028E0
3.619458951E0,-1.926768899E0,-4.453424454E0,1.677756786E0,5.134227847E0
3.629458951E0,-6.963755488E-1,-4.239482880E0,2.153125286E0,4.805632371E0
3.639458951E0,-6.194919348E-2,-4.235593796E0,2.397580147E0,4.867492482E0
3.649458951E0,4.856246114E-1,-4.641453743E0,2.589090347E0,5.336882324E0
3.659458951E0,5.931428671E-1,-4.948880196E0,2.487055302E0,5.570339103E0
3.669458951E0,2.845233679E-1,-5.361675739E0,2.512773037E0,5.928115098E0
3.679458951E0,-3.335325122E-1,-5.579021454E0,2.760267258E0,6.233442039E0
3.689458951E0,-1.585756302E0,-5.485666275E0,3.107608318E0,6.501106597E0
3.699458951E0,-2.030901432E0,-5.167944908E0,3.089960575E0,6.354531576E0
3.709459451E0,-2.274357319E0,-4.578017712E0,2.747652531E0,5.803493931E0
3.719459451E0,-2.057182074E0,-4.328289986E0,2.287088394E0,5.310072091E0
3.729459451E0,-1.544064283E0,-4.635349274E0,1.554254532E0,5.127017120E0
3.739459451E0,-1.094952583E0,-5.197140694E0,1.252386570E0,5.456891484E0
3.749459451E0,-1.582522392E-1,-5.985848427E0,1.119867802E0,6.091759110E0
3.759458951E0,3.741153479E-1,-6.157145500E0,1.255762100E0,6.295025135E0
3.769458951E0,1.036768794E0,-6.145480156E0,1.637073517E0,6.443743134E0
3.779458951E0,9.811076522E-1,-6.200362206E0,2.051858425E0,6.604330905E0
3.789458951E0,-8.639407158E-2,-6.433810711E0,2.846915245E0,7.036072101E0
3.799458951E0,-7.874234915E-1,-6.392944813E0,3.005364895E0,7.107882757E0
3.809458951E0,-1.976615667E0,-6.109642029E0,3.059745312E0,7.113141120E0
3.819459484E0,-2.376284599E0,-5.992383957E0,2.950406075E0,7.089449202E0
3.829459484E0,-2.838672161E0,-6.265125275E0,2.438071251E0,7.297536966E0
3.839459484E0,-2.824771881E0,-6.602688313E0,1.952192783E0,7.442169428E0
3.849459484E0,-2.188520670E0,-7.082553864E0,1.038599014E0,7.485377737E0
3.859459484E0,-1.630156279E0,-7.189513206E0,7.318706512E-1,7.408248395E0
3.869458984E0,-5.639769435E-1,-7.246194839E0,3.787832260E-1,7.277972683E0
3.879458984E0,-2.373223901E-1,-7.355300426E0,2.454857826E-1,7.363221411E0
3.889458984E0,5.102686584E-2,-7.611642361E0,1.469354630E-1,7.613231456E0
3.899458984E0,3.655229509E-2,-7.765635490E0,2.488408089E-1,7.769707355E0
3.909458984E0,-1.388536990E-1,-8.077508926E0,7.719697952E-1,8.115501720E0
3.919458984E0,-4.391559362E-1,-8.210062981E0,1.239831448E0,8.314756407E0
3.929458984E0,-9.883357882E-1,-8.180965424E0,2.126782417E0,8.510476270E0
3.939458984E0,-1.271131277E0,-8.054036140E0,2.650514603E0,8.573709847E0
3.949458984E0,-1.365401864E0,-7.473427773E0,3.253922462E0,8.264651010E0
3.959459484E0,-1.272527695E0,-7.192813396E0,3.017514229E0,7.903245119E0
3.969459484E0,-9.417337179E-1,-7.047728539E0,2.357990265E0,7.491158658E0
3.979459484E0,-6.108941436E-1,-7.096525192E0,1.985611916E0,7.394357047E0
3.989459484E0,-3.058198094E-2,-7.130262375E0,1.522960186E0,7.291157968E0
3.999459484E0,2.310881317E-1,-7.108677864E0,1.417553425E0,7.252321036E0
4.009458984E0,4.929355383E-1,-7.022384644E0,1.462335110E0,7.189944054E0
4.019458984E0,4.658108354E-1,-6.915286064E0,1.582303047E0,7.109278727E0
4.029458984E0,2.762163281E-1,-6.657961845E0,1.806784630E0,6.904290122E0
4.039458984E0,1.625138819E-1,-6.506396294E0,1.911891937E0,6.783430863E0
4.049458984E0,-2.027028501E-1,-6.345614433E0,2.085680485E0,6.682662199E0
4.059458984E0,-4.140031934E-1,-6.274126530E0,2.177363396E0,6.654094507E0
4.069459484E0,-7.695783973E-1,-6.073873997E0,2.268432140E0,6.529163853E0
4.079492817E0,-9.652560949E-1,-5.910492420E0,2.383752346E0,6.445767233E0
4.089526150E0,-1.250623226E0,-5.670923710E0,2.427734852E0,6.294229952E0
4.099560016E0,-1.344367981E0,-5.579934120E0,2.429184437E0,6.232489638E0
4.109593349E0,-1.474916935E0,-5.419903278E0,2.462641716E0,6.133134250E0
4.119626149E0,-1.470283866E0,-5.327604294E0,2.442200184E0,6.042304519E0
4.129659482E0,-1.386923313E0,-5.171727657E0,2.341495514E0,5.844050349E0
4.139692815E0,-1.330419779E0,-5.089158535E0,2.270836353E0,5.729419615E0
4.149726148E0,-1.234281540E0,-5.041762352E0,2.120137215E0,5.606942156E0
4.159759481E0,-1.103972912E0,-5.039082527E0,1.939617157E0,5.511190763E0
4.169792814E0,-8.298051357E-1,-5.074274540E0,1.698347092E0,5.414907341E0
4.179826147E0,-6.993336082E-1,-5.082551003E0,1.717696190E0,5.410348638E0
4.189859480E0,-5.345518589E-1,-5.119667530E0,1.826396942E0,5.461910572E0
4.199892813E0,-4.763344228E-1,-5.096583366E0,1.964191437E0,5.482709594E0
4.209926413E0,-4.495792985E-1,-5.125879765E0,2.281912804E0,5.628844548E0
4.219959746E0,-4.370702505E-1,-5.151238441E0,2.440431595E0,5.716816794E0
4.229993079E0,-5.072127581E-1,-5.220535278E0,2.609120369E0,5.858221784E0
4.240026412E0,-4.999832511E-1,-5.187369823E0,2.530264854E0,5.793188170E0
4.250059745E0,-2.421121895E-1,-5.101987839E0,2.108177185E0,5.525695365E0
4.260092578E0,-1.259321868E-1,-5.074300289E0,1.848081589E0,5.401831902E0
4.270125911E0,2.250024378E-1,-5.046802998E0,1.458724022E0,5.258205242E0
4.280159244E0,4.665288627E-1,-4.997416496E0,1.266200066E0,5.176396761E0
4.290192577E0,9.282999039E-1,-4.971922874E0,9.578027725E-1,5.147731921E0
4.300225910E0,1.062000751E0,-4.942961216E0,9.852056503E-1,5.150858312E0
4.310259243E0,1.176385403E0,-4.963840485E0,1.289464951E0,5.261778676E0
4.320292576E0,1.174933195E0,-4.969444275E0,1.546493530E0,5.335493103E0
4.330325909E0,1.096078634E0,-4.934742928E0,1.907514572E0,5.402933275E0
4.340359242E0,1.017557621E0,-4.954169750E0,2.075353622E0,5.466837668E0
4.350393075E0,9.756834507E-1,-4.932708740E0,2.126251221E0,5.459351424E0
4.360426408E0,9.574494362E-1,-4.845842838E0,2.104555130E0,5.369176336E0
4.370459241E0,1.092960596E0,-4.776998043E0,2.011595726E0,5.297243673E0
4.380459241E0,1.205323815E0,-4.717700481E0,1.960560799E0,5.249123925E0
4.390459241E0,1.194819212E0,-4.713570595E0,1.957432747E0,5.241839721E0
4.400458707E0,1.106585026E0,-4.839369774E0,1.965236664E0,5.339118408E0
4.410458707E0,1.075149655E0,-4.942543507E0,2.155314445E0,5.498187288E0
4.420458707E0,1.074302554E0,-4.924328804E0,2.333461761E0,5.554114145E0
4.430458707E0,1.068951011E0,-4.853169441E0,2.567769051E0,5.593688210E0
4.440458707E0,1.005375385E0,-4.788426399E0,2.622241974E0,5.551212482E0
4.450458707E0,7.599518895E-1,-4.691395760E0,2.620114326E0,5.426943903E0
4.460458973E0,5.901714563E-1,-4.645706654E0,2.596309662E0,5.354597699E0
4.470458973E0,5.331159234E-1,-4.613738060E0,2.503318787E0,5.276115657E0
4.480458973E0,6.070845127E-1,-4.550028801E0,2.523170471E0,5.238101080E0
4.490458973E0,8.499168158E-1,-4.486334801E0,2.515063286E0,5.212974378E0
4.500458973E0,9.769890904E-1,-4.457478046E0,2.536504745E0,5.220869137E0
4.510458706E0,1.146392703E0,-4.434450626E0,2.556189537E0,5.245252476E0
4.520458706E0,1.120899677E0,-4.491939068E0,2.512202263E0,5.267361093E0
4.530458706E0,1.031530023E0,-4.465250969E0,2.287619591E0,5.122081979E0
4.540458706E0,8.409494162E-1,-4.525721073E0,2.046364784E0,5.037554564E0
4.550458706E0,4.302133918E-1,-4.803985596E0,1.471105576E0,5.042570057E0
4.560458706E0,2.368054092E-1,-4.888763428E0,1.019684792E0,4.999584156E0
4.570458706E0,2.078367174E-1,-4.961308002E0,2.487611771E-1,4.971886495E0
4.580458706E0,3.361320496E-1,-4.925221920E0,1.959447861E-1,4.940565765E0
4.590458706E0,6.964409351E-1,-4.739040375E0,8.003578186E-1,4.856347011E0
4.600459239E0,9.221321344E-1,-4.631374359E0,1.254775047E0,4.886145367E0
4.610459239E0,1.438956857E0,-4.231765747E0,1.575250626E0,4.739182705E0
4.620459239E0,1.619949341E0,-4.004674435E0,1.503872871E0,4.574197941E0
4.630459239E0,1.569355011E0,-3.777806520E0,9.436893463E-1,4.198243304E0
4.640459239E0,1.313916087E0,-3.847445488E0,5.000648499E-1,4.096251594E0
4.650458739E0,7.016439438E-1,-4.257586479E0,-1.114320755E-2,4.315028508E0
4.660458739E0,4.133768678E-1,-4.462067127E0,5.586099625E-2,4.481522502E0
4.670458739E0,-2.641567588E-2,-4.699618340E0,5.389528275E-1,4.730494739E0
4.680458739E0,-2.409359068E-1,-4.740990639E0,9.004273415E-1,4.831750381E0
4.690458739E0,-6.671258211E-1,-4.741293907E0,1.378832340E0,4.982579994E0
4.700458739E0,-8.339854479E-1,-4.723508358E0,1.520143509E0,5.031689500E0
4.710459005E0,-9.012582898E-1,-4.715829372E0,1.500333786E0,5.030140619E0
4.720459005E0,-7.784601450E-1,-4.756793499E0,1.438804626E0,5.030232931E0
4.730459005E0,-6.395810843E-1,-4.833338261E0,1.141947746E0,5.007421229E0
4.740459005E0,-5.223524570E-1,-4.876001358E0,1.050504684E0,5.015157169E0
4.750459005E0,-1.970561743E-1,-4.907468319E0,1.159335136E0,5.046398161E0
4.760458738E0,2.011983097E-2,-4.898690701E0,1.471098900E0,5.114851646E0
4.770458738E0,2.708264589E-1,-4.872109890E0,2.136944771E0,5.327038080E0
4.780458738E0,2.768689096E-1,-4.799438477E0,2.279891968E0,5.320636566E0
4.790458738E0,1.581478864E-2,-4.530816078E0,2.299930573E0,5.081163753E0
4.800458738E0,-1.951293349E-1,-4.395229340E0,2.173690796E0,4.907244449E0
4.810458738E0,-7.286585569E-1,-4.363294601E0,1.839047432E0,4.790759703E0
4.820458738E0,-9.706015587E-1,-4.443465710E0,1.676746368E0,4.847466687E0
4.830458738E0,-1.179609299E0,-4.603850842E0,1.607393265E0,5.017034361E0
4.840458738E0,-1.150636315E0,-4.661336899E0,1.681922913E0,5.087326439E0
4.850459271E0,-8.778054714E-1,-4.601712704E0,2.048416138E0,5.112955205E0
4.860459271E0,-6.943227053E-1,-4.525188923E0,2.321414948E0,5.133067910E0
4.870459271E0,-3.770763576E-1,-4.345880985E0,2.843814850E0,5.207317065E0
4.880459271E0,-2.777034044E-1,-4.237694740E0,3.048608780E0,5.227732911E0
4.890459271E0,-3.686782718E-1,-4.247266293E0,2.962173462E0,5.191306796E0
4.900458737E0,-5.415750742E-1,-4.353402615E0,2.672683716E0,5.136989014E0
4.910458737E0,-7.164869308E-1,-4.517943382E0,1.775674820E0,4.906952924E0
4.920458737E0,-8.130675554E-1,-4.618145466E0,1.365369797E0,4.883910429E0
4.930458737E0,-8.656581640E-1,-4.891505718E0,9.241886139E-1,5.052753392E0
4.940458737E0,-7.829207778E-1,-4.922004700E0,8.755083084E-1,5.060198613E0
4.950458737E0,-6.094859838E-1,-4.823248863E0,1.077615738E0,4.979604245E0
4.960459003E0,-4.528140724E-1,-4.807751179E0,1.278993607E0,4.995531666E0
4.970459003E0,-5.541765690E-2,-4.846948624E0,1.695844650E0,5.135355017E0
4.980426169E0,5.013430119E-2,-4.919250965E0,1.786534309E0,5.233855973E0
4.990392835E0,-1.782059669E-3,-4.900121689E0,1.771888733E0,5.210641556E0
5.000359501E0,6.686208844E-1,-5.279432774E0,2.146214485E0,5.738092097E0
5.010325901E0,1.087853193E0,-5.377051353E0,2.108325005E0,5.877171101E0
5.020292567E0,1.302489758E0,-5.270664215E0,1.991514206E0,5.782949911E0
5.030259233E0,1.242551208E0,-5.034893513E0,2.018617630E0,5.564971098E0
5.040225899E0,7.540681958E-1,-4.915759563E0,2.043170929E0,5.376602866E0
5.050192565E0,-5.670517683E-3,-4.755793095E0,1.495790482E0,4.985477839E0
5.060159231E0,-5.405905247E-1,-4.708705902E0,9.992408752E-1,4.843824080E0
5.070126397E0,-1.308521271E0,-4.785637856E0,5.380649567E-1,4.990397930E0
5.080093063E0,-1.349008799E0,-4.873649597E0,4.290924072E-1,5.075076889E0
5.090059729E0,-8.943820000E-1,-5.028870106E0,3.617563248E-1,5.120578223E0
5.100026395E0,-5.179581046E-1,-5.136854649E0,4.868679047E-1,5.185807231E0
5.109993061E0,1.612737924E-1,-5.360341549E0,9.038372040E-1,5.438399806E0
5.119959727E0,3.188005686E-1,-5.439259052E0,1.189711571E0,5.576969290E0
5.129926393E0,3.982353806E-1,-5.380529404E0,1.760176659E0,5.675113210E0
5.139893059E0,2.996964753E-1,-5.171352863E0,1.956810951E0,5.537311398E0
5.149859192E0,-5.354739428E-1,-4.956583500E0,2.361659050E0,5.516510292E0
5.159825858E0,-1.059135079E0,-4.911954403E0,2.455961227E0,5.592924881E0
5.169792524E0,-1.886564493E0,-4.888398170E0,2.661687851E0,5.877086393E0
5.179759190E0,-2.194340944E0,-4.875072002E0,2.789193153E0,6.030013073E0
5.189725856E0,-2.546750546E0,-4.985433102E0,3.213945389E0,6.455224745E0
5.199692522E0,-2.641341448E0,-5.052558899E0,3.497264862E0,6.688489933E0
5.209659688E0,-2.476328850E0,-5.125859261E0,3.695288658E0,6.786884116E0
5.219626354E0,-2.487497807E0,-5.106275558E0,3.682280540E0,6.769112600E0
5.229593020E0,-1.901154041E0,-4.806438446E0,3.135844231E0,6.045639442E0
5.239559686E0,-1.605663061E0,-4.722533226E0,2.621541977E0,5.634976156E0
5.249526352E0,-1.561846137E0,-4.744157314E0,2.638103485E0,5.648538039E0
5.259492752E0,-8.752341866E-1,-4.636424541E0,1.533432961E0,4.961238157E0
5.269459418E0,-2.491256595E-1,-4.755145073E0,1.125434875E0,4.892859278E0
5.279458918E0,3.841698170E-2,-4.897680283E0,9.945878983E-1,4.997794824E0
5.289458918E0,2.839293182E-1,-5.013118744E0,8.807592392E-1,5.097814457E0
5.299458918E0,2.626792490E-1,-4.982122898E0,9.437675476E-1,5.077523623E0
5.309458918E0,-1.648476720E-1,-4.791568756E0,1.056775093E0,4.909488721E0
5.319459451E0,-4.873414636E-1,-4.678770065E0,1.132011414E0,4.838371716E0
5.329459451E0,-1.067569256E0,-4.470613480E0,1.302448273E0,4.777285893E0
5.339459451E0,-1.206435919E0,-4.478521347E0,1.394565582E0,4.843289610E0
5.349459451E0,-1.132538319E0,-4.468092442E0,1.471500397E0,4.838574845E0
5.359459451E0,-9.331292510E-1,-4.496880531E0,1.421526909E0,4.807640114E0
5.369458951E0,-4.473329782E-1,-4.733630180E0,1.374136925E0,4.949304372E0
5.379458951E0,-1.894158721E-1,-4.761851311E0,1.319279671E0,4.944856431E0
5.389458951E0,4.147401452E-1,-4.680599213E0,1.161327362E0,4.840320198E0
5.399458951E0,6.755492091E-1,-4.500883579E0,1.177877426E0,4.701246107E0
5.409458951E0,8.349244595E-1,-4.153781891E0,1.217368126E0,4.408286289E0
5.419458951E0,7.603729963E-1,-4.042693615E0,1.231539726E0,4.293975880E0
5.429458951E0,3.886567652E-1,-4.141304493E0,1.452594757E0,4.405847082E0
5.439458951E0,1.776414514E-1,-4.246937275E0,1.629280090E0,4.552206752E0
5.449458951E0,-2.091724277E-1,-4.603971481E0,1.698471069E0,4.911731923E0
5.459459017E0,-4.497725368E-1,-4.747854710E0,1.666567802E0,5.051917252E0
5.469459017E0,-9.720545411E-1,-4.830619812E0,1.620595932E0,5.187109886E0
5.479459017E0,-1.266151667E0,-4.789973736E0,1.572492599E0,5.198049770E0
5.489459017E0,-1.562281251E0,-4.672555923E0,1.432858467E0,5.130943866E0
5.499459017E0,-1.476454258E0,-4.529133797E0,1.420322418E0,4.970944165E0
5.509458517E0,-9.514260292E-1,-4.244348049E0,1.629100800E0,4.644746631E0
5.519458517E0,-6.423459053E-1,-4.190210819E0,1.760209084E0,4.590077449E0
5.529458517E0,-2.024827003E-1,-4.327828884E0,1.870145798E0,4.718956177E0
5.539458517E0,-3.567892313E-2,-4.412881851E0,1.781853676E0,4.759180785E0
5.549458517E0,1.482264996E-1,-4.498417854E0,1.606947899E0,4.779122915E0
5.559458517E0,1.850489378E-1,-4.484200954E0,1.550951004E0,4.748447149E0
5.569459017E0,-7.648432255E-2,-4.484189034E0,1.672041893E0,4.786389582E0
5.579459017E0,-3.222038150E-1,-4.543928146E0,1.817945480E0,4.904694085E0
5.589459017E0,-6.873638034E-1,-4.548336983E0,2.115106583E0,5.062955082E0
5.599459017E0,-9.057365656E-1,-4.583407879E0,2.286435127E0,5.201516327E0
5.609459017E0,-1.469276428E0,-4.887143135E0,2.426716805E0,5.650831416E0
5.619458483E0,-1.678303480E0,-5.030116558E0,2.377670288E0,5.811376012E0
5.629458483E0,-1.981087923E0,-5.194180012E0,2.272739410E0,6.005793851E0
5.639458483E0,-2.144644499E0,-5.307464123E0,2.156544685E0,6.117136619E0
5.649458483E0,-2.289994717E0,-5.338221073E0,1.945344925E0,6.125769087E0
5.659458483E0,-2.269726753E0,-5.274034500E0,1.828236580E0,6.025740489E0
5.669458483E0,-2.214040995E0,-5.086051941E0,1.496295929E0,5.745328831E0
5.679458483E0,-2.115577221E0,-4.951822758E0,1.285736084E0,5.536183964E0
5.689458483E0,-1.922806740E0,-4.637680054E0,9.640045166E-1,5.112197839E0
5.699458483E0,-1.791724682E0,-4.553737164E0,8.631076813E-1,4.969079830E0
5.709458983E0,-1.505666494E0,-4.341756344E0,6.092338562E-1,4.635627857E0
5.719458983E0,-1.371401072E0,-4.295313835E0,6.239137650E-1,4.551893038E0
5.729458983E0,-1.170054436E0,-4.362594604E0,9.083023071E-1,4.607197863E0
5.739458983E0,-1.132455826E0,-4.343114376E0,9.960966110E-1,4.597532723E0
5.749458983E0,-1.160775185E0,-4.236417770E0,1.026474953E0,4.510907379E0
5.759458916E0,-1.318726063E0,-4.207127571E0,1.044815063E0,4.531070441E0
5.769458916E0,-1.526254892E0,-4.321677208E0,9.685964584E-1,4.684498584E0
5.779458916E0,-1.522289515E0,-4.372574329E0,9.946899414E-1,4.735628756E0
5.789458916E0,-1.339432955E0,-4.484865189E0,1.281305313E0,4.852817708E0
5.799458916E0,-1.103349924E0,-4.492214203E0,1.415163994E0,4.837360709E0
5.809458916E0,-8.360721469E-1,-4.422410965E0,1.493329048E0,4.742021407E0
5.819459416E0,-6.962019205E-1,-4.317285538E0,1.387321472E0,4.587843981E0
5.829459416E0,-5.745392442E-1,-4.303820133E0,1.046762466E0,4.466393931E0
5.839459416E0,-5.574882627E-1,-4.340210438E0,8.559570312E-1,4.458798296E0
5.849459416E0,-2.321021557E-1,-4.419491768E0,7.076749802E-1,4.481805749E0
5.859459416E0,7.353502512E-2,-4.426107883E0,8.271369934E-1,4.503331434E0
5.869458916E0,6.342996955E-1,-4.510869980E0,1.090644836E0,4.683992980E0
5.879458916E0,7.646530867E-1,-4.535495281E0,1.169271469E0,4.745798938E0
5.889458916E0,9.678253531E-1,-4.599527359E0,1.169418335E0,4.843539727E0
5.899458916E0,9.174716473E-1,-4.567674637E0,1.147183418E0,4.798065819E0
5.909458916E0,7.903610468E-1,-4.603008747E0,1.272815704E0,4.840704487E0
5.919458916E0,5.944224596E-1,-4.575633049E0,1.340050697E0,4.804736385E0
5.929458916E0,2.571907640E-1,-4.631731987E0,1.540442467E0,4.887949599E0
5.939458916E0,1.042591333E-1,-4.683409691E0,1.618080139E0,4.956145643E0
5.949458916E0,-3.824681044E-3,-4.790485859E0,1.619667053E0,5.056885480E0
5.959459416E0,2.892693877E-2,-4.820397377E0,1.601040840E0,5.079409357E0
5.969459416E0,2.294504791E-1,-4.846651077E0,1.645617485E0,5.123546730E0
5.979459416E0,3.415085971E-1,-4.941249847E0,1.692347527E0,5.234177904E0
5.989459416E0,5.676623583E-1,-5.158806801E0,1.788899422E0,5.489598282E0
5.999459416E0,6.859700084E-1,-5.240409851E0,1.860924721E0,5.603167950E0
6.009458916E0,9.558887482E-1,-5.320940018E0,1.949692726E0,5.746949425E0
6.019458916E0,1.081586361E0,-5.260941505E0,1.991537094E0,5.728311669E0
6.029458916E0,1.128847241E0,-5.080656052E0,2.236006737E0,5.664546596E0
6.039458916E0,1.047048330E0,-4.950904846E0,2.357832909E0,5.582754251E0
6.049458916E0,8.036843538E-1,-4.860703945E0,2.584866524E0,5.563621692E0
6.059458916E0,6.676731110E-1,-4.802569389E0,2.637930870E0,5.519885814E0
6.069459416E0,5.714730024E-1,-4.781476498E0,2.568549156E0,5.457704981E0
6.079459416E0,5.365766287E-1,-4.743618965E0,2.465870857E0,5.373114037E0
6.089459416E0,3.670137525E-1,-4.748006821E0,2.097188950E0,5.203505487E0
6.099459416E0,2.282066345E-1,-4.788778305E0,1.878574371E0,5.149127848E0
6.109459416E0,1.369027495E-1,-4.711264133E0,1.416679382E0,4.921557941E0
6.119458916E0,2.046868503E-1,-4.603587151E0,1.268033028E0,4.779416190E0
6.129458916E0,5.112415552E-1,-4.383302212E0,1.184315681E0,4.569169491E0
6.139458916E0,7.123668790E-1,-4.242477417E0,1.231463432E0,4.474660142E0
6.149458916E0,8.831220269E-1,-4.233330250E0,1.272518158E0,4.507803454E0
6.159458916E0,8.908627629E-1,-4.369015694E0,1.192790985E0,4.615699831E0
6.169458916E0,9.361426234E-1,-4.620952129E0,1.080719948E0,4.837098014E0
6.179458916E0,9.546793103E-1,-4.680520058E0,1.037222862E0,4.888201291E0
6.189458916E0,9.606115222E-1,-4.565213680E0,9.672393799E-1,4.764399486E0
6.199458916E0,8.726113439E-1,-4.421805859E0,8.904542923E-1,4.594205748E0
6.209459416E0,7.312156558E-1,-4.118482113E0,8.642845154E-1,4.271247941E0
6.219459416E0,5.941770673E-1,-3.948766708E0,7.900466919E-1,4.070623869E0
6.229459416E0,2.408100367E-1,-3.814342260E0,6.437549591E-1,3.875773058E0
6.239459416E0,7.732003927E-2,-3.934185982E0,5.289983749E-1,3.970344696E0
6.249459416E0,-7.175296545E-2,-4.139538765E0,3.303194046E-1,4.153316817E0
6.259458916E0,-1.560670137E-2,-4.265347481E0,3.818407059E-1,4.282433307E0
6.269458916E0,2.893164754E-1,-4.534644604E0,7.040376663E-1,4.598083812E0
6.279458916E0,4.851993918E-1,-4.629046917E0,8.177700043E-1,4.725700116E0
6.289458916E0,1.072278023E0,-4.683703423E0,1.116045952E0,4.932789928E0
6.299458916E0,1.332518101E0,-4.650337219E0,1.296004295E0,5.008080258E0
6.309458916E0,1.637314320E0,-4.603396893E0,1.478905678E0,5.104823517E0
6.319459416E0,1.736333847E0,-4.549976349E0,1.457753181E0,5.083520861E0
6.329459416E0,1.688142538E0,-4.511752605E0,1.166922569E0,4.956555768E0
6.339459416E0,1.587694168E0,-4.502497196E0,1.045599937E0,4.887385088E0
6.349459416E0,1.439407110E0,-4.432391167E0,8.032894135E-1,4.728980669E0
6.359459416E0,1.272266388E0,-4.409085751E0,6.919994354E-1,4.640857910E0
6.369458916E0,8.298068047E-1,-4.437135696E0,5.429391861E-1,4.546596032E0
6.379458916E0,5.501534343E-1,-4.365534306E0,5.127601624E-1,4.429839902E0
6.389458916E0,1.736406088E-1,-4.144132614E0,5.285606384E-1,4.181311102E0
6.399458916E0,-4.629915953E-2,-4.000534534E0,4.689073563E-1,4.028187469E0
6.409458916E0,-1.045485139E-1,-3.709899902E0,4.307327271E-1,3.736284031E0
6.419458916E0,-3.836208582E-2,-3.542152882E0,4.481697083E-1,3.570598658E0
6.429458916E0,2.828313112E-1,-3.352090120E0,3.616619110E-1,3.383386035E0
6.439458916E0,5.225340128E-1,-3.295045853E0,2.832698822E-1,3.348225021E0
6.449458916E0,8.264062405E-1,-3.441587925E0,1.349925995E-1,3.541990644E0
6.459459416E0,9.026030302E-1,-3.574598312E0,1.353311539E-1,3.689276331E0
6.469459416E0,1.083573222E0,-3.583235264E0,3.203182220E-1,3.757167769E0
6.479459416E0,1.149194479E0,-3.506983519E0,5.383768082E-1,3.729534949E0
6.489459416E0,1.079513907E0,-3.410519361E0,9.998340607E-1,3.714385648E0
6.499459416E0,1.005369186E0,-3.379929304E0,1.256753922E0,3.743543738E0
6.509458916E0,8.841136694E-1,-3.488431215E0,1.653820038E0,3.960546685E0
6.519458916E0,8.895975351E-1,-3.537965298E0,1.704339981E0,4.026581303E0
6.529458916E0,9.288657904E-1,-3.624530315E0,1.656528473E0,4.091955308E0
6.539458916E0,9.144399166E-1,-3.604088306E0,1.648039818E0,4.067147418E0
6.549458916E0,7.545229197E-1,-3.797597408E0,1.424888611E0,4.125694907E0
6.559458916E0,5.638183355E-1,-3.882222414E0,1.351702690E0,4.149294175E0
6.569459416E0,1.671099663E-1,-4.183734417E0,1.359650612E0,4.402295901E0
6.579459416E0,-7.668220997E-2,-4.380072594E0,1.440940857E0,4.611640342E0
6.589459416E0,-3.254154921E-1,-4.612151146E0,1.622055054E0,4.899887349E0
6.599459416E0,-3.736689687E-1,-4.661984444E0,1.651957512E0,4.960109986E0
6.609459416E0,-3.827409744E-1,-4.772133827E0,1.658382416E0,5.066555453E0
6.619458916E0,-3.725972176E-1,-4.895541191E0,1.588655472E0,5.160327359E0
6.629458916E0,-3.972982168E-1,-5.152284622E0,1.167129517E0,5.297742350E0
6.639458916E0,-4.706966877E-1,-5.321880341E0,9.511508942E-1,5.426661382E0
6.649458916E0,-4.767816663E-1,-5.499028206E0,9.097642899E-1,5.594131124E0
6.659458916E0,-4.693962336E-1,-5.558956146E0,1.049494743E0,5.676598055E0
6.669458916E0,-6.181090474E-1,-5.606895447E0,1.684741974E0,5.887078296E0
6.679458916E0,-8.512468338E-1,-5.589553356E0,2.009281158E0,6.000411541E0
6.689458916E0,-1.369544864E0,-5.654372692E0,2.415009499E0,6.299194754E0
6.699458916E0,-1.604406834E0,-5.706821918E0,2.492254257E0,6.430650743E0
6.709459416E0,-1.854415417E0,-5.647749424E0,2.411473274E0,6.414914921E0
6.719459416E0,-1.940991640E0,-5.607312202E0,2.307926178E0,6.366782698E0
6.729459416E0,-2.064801693E0,-5.573768139E0,1.840071678E0,6.222231198E0
6.739459416E0,-1.998684049E0,-5.578919411E0,1.509575844E0,6.115382159E0
6.749459416E0,-1.691284895E0,-5.552636623E0,1.002211571E0,5.890385904E0
6.759458916E0,-1.479842186E0,-5.573016644E0,9.267559052E-1,5.840147593E0
6.769458916E0,-1.060586214E0,-5.533655643E0,8.476428986E-1,5.697779074E0
6.779458916E0,-9.247183800E-1,-5.525032043E0,8.814802170E-1,5.670810395E0
6.789458916E0,-7.651553154E-1,-5.399399757E0,1.025666237E0,5.548961311E0
6.799458916E0,-8.706191778E-1,-5.401469231E0,1.215188026E0,5.604509750E0
6.809458916E0,-1.076558352E0,-5.355449200E0,1.431139946E0,5.646943913E0
6.819459449E0,-1.215808272E0,-5.315221310E0,1.468038559E0,5.646671988E0
6.829459449E0,-1.312651873E0,-5.266633511E0,1.492955208E0,5.629333773E0
6.839459449E0,-1.246963382E0,-5.225675106E0,1.399650574E0,5.551722230E0
6.849459449E0,-1.036784887E0,-5.235716820E0,1.071283340E0,5.443831511E0
6.859459449E0,-8.763858080E-1,-5.228909492E0,9.472312927E-1,5.385795548E0
6.869458949E0,-7.481868267E-1,-5.194366455E0,8.216133118E-1,5.311899362E0
6.879458949E0,-7.013185024E-1,-5.111050129E0,7.671594620E-1,5.215670111E0
6.889458949E0,-7.227643728E-1,-4.885913849E0,9.812765121E-1,5.035617745E0
6.899458949E0,-8.032877445E-1,-4.757807732E0,1.260227203E0,4.987000924E0
6.909458949E0,-8.889487386E-1,-4.524497509E0,1.429791451E0,4.827588545E0
6.919458949E0,-9.238697290E-1,-4.424373627E0,1.283507347E0,4.698511293E0
6.929458949E0,-1.016243339E0,-4.321897030E0,1.072501183E0,4.567472304E0
6.939458949E0,-1.055224895E0,-4.285372257E0,9.617481232E-1,4.516954108E0
6.949458949E0,-1.059844494E0,-4.146307468E0,8.466625214E-1,4.362565002E0
6.959459482E0,-9.967988133E-1,-4.075799942E0,8.991527557E-1,4.291180341E0
6.969459482E0,-1.098526359E0,-4.146110058E0,6.576089859E-1,4.339290074E0
6.979459482E0,-1.066850543E0,-4.188052177E0,2.959985733E-1,4.331924085E0
6.989459482E0,-9.269593954E-1,-4.133812428E0,-3.067827225E-1,4.247561011E0
6.999459482E0,-8.765292168E-1,-4.103573799E0,-4.922399521E-1,4.224916752E0
7.009458982E0,-8.067513108E-1,-4.100193501E0,-7.319831848E-1,4.242432534E0
7.019458982E0,-7.841762304E-1,-4.160491467E0,-8.150072098E-1,4.311479834E0
7.029458982E0,-5.611947179E-1,-4.227892876E0,-8.015975952E-1,4.339651643E0
7.039458982E0,-4.395327866E-1,-4.274453163E0,-7.961993217E-1,4.370134125E0
7.049458982E0,-2.868264914E-1,-4.292476654E0,-9.197902679E-1,4.399277145E0
7.059458982E0,-2.663874030E-1,-4.205518246E0,-1.017767429E0,4.335112052E0
7.069459482E0,-1.575570703E-1,-3.937221527E0,-1.177439690E0,4.112529855E0
7.079459982E0,-8.588451147E-2,-3.707507372E0,-1.064515591E0,3.858261332E0
7.089459982E0,6.778264046E-2,-3.407370329E0,-4.560050964E-1,3.438416451E0
7.099459982E0,-1.669204235E-2,-3.275341749E0,3.001079559E-1,3.289104283E0
7.109459982E0,-4.710413814E-1,-3.055776119E0,1.827527046E0,3.591587780E0
7.119459448E0,-7.819139361E-1,-2.891819477E0,2.531527519E0,3.922070993E0
7.129459448E0,-1.584885836E0,-2.534492016E0,3.873878479E0,4.893102018E0
7.139459981E0,-1.892830610E0,-2.310664654E0,4.186873436E0,5.143139900E0
7.149459981E0,-2.396403313E0,-2.048170090E0,3.427627563E0,4.656863780E0
7.159459981E0,-2.415163994E0,-1.915853977E0,2.601997375E0,4.034092701E0
7.169459981E0,-2.187340736E0,-1.865781188E0,8.236742020E-1,2.990658478E0
7.179459981E0,-1.933473587E0,-1.838641405E0,5.991077423E-2,2.668803408E0
7.189459981E0,-1.183003187E0,-1.706907034E0,-9.807538986E-1,2.296716433E0
7.199459981E0,-8.072727919E-1,-1.720684290E0,-1.153733253E0,2.223408241E0
7.209460481E0,-2.570128143E-1,-1.838934898E0,-6.970205307E-1,1.983324171E0
7.219460481E0,-2.186777294E-1,-1.991561890E0,-1.161804199E-1,2.006897257E0
7.229460481E0,-5.556260347E-1,-2.548895836E0,9.973421097E-1,2.792898415E0
7.239460481E0,-8.210989237E-1,-2.803743124E0,1.560474396E0,3.312138175E0
7.249460481E0,-1.122140884E0,-3.036462307E0,2.264454842E0,3.950577076E0
7.259459947E0,-1.113184452E0,-2.932190895E0,2.354966164E0,3.922089839E0
7.269459947E0,-1.021867871E0,-2.748236895E0,2.063828468E0,3.585583345E0
7.279426613E0,-9.158136845E-1,-2.636601925E0,1.752539635E0,3.295721406E0
7.289393746E0,-7.278519869E-1,-2.653468370E0,1.287824631E0,3.037952466E0
7.299360412E0,-6.577337980E-1,-2.672618151E0,1.156618118E0,2.985509504E0
7.309327078E0,-5.525685549E-1,-2.723228216E0,9.980649948E-1,2.952530721E0
7.319293744E0,-5.453631282E-1,-2.747283936E0,9.377813339E-1,2.953713560E0
7.329260410E0,-7.366397381E-1,-2.776835680E0,1.031104088E0,3.052315537E0
7.339227076E0,-7.408218384E-1,-2.721956730E0,9.743881226E-1,2.984509616E0
7.349193742E0,-7.334151268E-1,-2.728003502E0,8.447580338E-1,2.948477063E0
7.359160408E0,-7.680993080E-1,-2.704659462E0,8.098659515E-1,2.925925873E0
7.369126574E0,-7.938141823E-1,-2.664488316E0,1.079636574E0,2.982491253E0
7.379092740E0,-7.467674017E-1,-2.530112505E0,1.317708969E0,2.948811246E0
7.389059406E0,-5.965450406E-1,-2.177103281E0,1.748785973E0,2.855502943E0
7.399026072E0,-5.759212375E-1,-1.984221935E0,1.898356438E0,2.805811669E0
7.408992738E0,-6.936087608E-1,-1.921585560E0,1.791544914E0,2.717207640E0
7.418959404E0,-7.847733498E-1,-1.932188034E0,1.568323135E0,2.609378713E0
7.428926570E0,-8.367959261E-1,-1.980908871E0,9.298620224E-1,2.342833916E0
7.438892703E0,-8.337850571E-1,-2.002505302E0,6.416540146E-1,2.262066507E0
7.448859369E0,-9.293836355E-1,-2.121656895E0,3.888750076E-1,2.348702981E0
7.458826035E0,-1.079265714E0,-2.260855675E0,2.806787491E-1,2.520925113E0
7.468792701E0,-1.232954502E0,-2.397766352E0,2.328548431E-1,2.706230156E0
7.478759367E0,-1.189239979E0,-2.369739056E0,2.571716309E-1,2.663849126E0
7.488726033E0,-1.006275654E0,-2.311280727E0,2.792539597E-1,2.536255521E0
7.498692699E0,-9.370129108E-1,-2.322158575E0,2.609663010E-1,2.517641168E0
7.508658865E0,-9.430854321E-1,-2.449927330E0,2.116928101E-1,2.633698521E0
7.518625531E0,-9.305750728E-1,-2.482503891E0,2.599487305E-1,2.663901064E0
7.528592197E0,-9.680376053E-1,-2.636710167E0,4.392404556E-1,2.842933254E0
7.538559330E0,-9.986433387E-1,-2.770028830E0,5.611448288E-1,2.997537615E0
7.548525996E0,-1.126937747E0,-2.970605612E0,5.307378769E-1,3.221206153E0
7.558492662E0,-1.179119587E0,-3.036127567E0,4.394302368E-1,3.286562420E0
7.568459328E0,-1.165148020E0,-2.927433014E0,4.282979965E-1,3.179759917E0
7.578459328E0,-1.160369158E0,-2.893369913E0,4.869527817E-1,3.155181302E0
7.588458861E0,-1.146919489E0,-2.727775574E0,6.983375549E-1,3.040371562E0
7.598458861E0,-1.143036723E0,-2.722687721E0,7.560558319E-1,3.048143992E0
7.608458861E0,-1.135090947E0,-2.748623371E0,6.992969513E-1,3.054894126E0
7.618458861E0,-1.110867739E0,-2.798090935E0,5.741872787E-1,3.064805221E0
7.628458861E0,-1.017162561E0,-2.737119913E0,4.476175308E-1,2.954116881E0
7.638458861E0,-9.251966476E-1,-2.687532902E0,4.785804749E-1,2.882336067E0
7.648458861E0,-9.550161362E-1,-2.506286860E0,6.517620087E-1,2.760131040E0
7.658458861E0,-9.219698906E-1,-2.423074007E0,7.753219604E-1,2.706000788E0
7.668458861E0,-9.312344790E-1,-2.183080912E0,9.935407639E-1,2.572967775E0
7.678458927E0,-9.265835881E-1,-2.033547878E0,1.027765274E0,2.459710466E0
7.688458927E0,-8.655574918E-1,-1.723101854E0,9.175291061E-1,2.135445956E0
7.698458927E0,-8.442964554E-1,-1.524621487E0,7.621593475E-1,1.902155108E0
7.708458927E0,-7.812350392E-1,-1.091729164E0,4.591693878E-1,1.418815450E0
7.718458927E0,-7.275010347E-1,-8.373508453E-1,3.434753418E-1,1.161201750E0
7.728458427E0,-9.521818161E-1,-7.216675282E-1,1.249408722E-2,1.194826487E0
7.738458427E0,-1.270983934E0,-9.403707981E-1,-3.207712173E-1,1.613254962E0
7.748458427E0,-1.604180813E0,-1.502154708E0,-9.246873856E-1,2.384305267E0
7.758458427E0,-1.591010809E0,-1.742176533E0,-1.059144020E0,2.586171015E0
7.768458427E0,-1.166543126E0,-1.792814612E0,-6.731672287E-1,2.242356175E0
7.778458427E0,-8.241391182E-1,-1.741856694E0,-8.551883698E-2,1.928881412E0
7.788458893E0,-2.823590040E-1,-1.744480848E0,1.033225060E0,2.047069628E0
7.798458893E0,-2.986311913E-2,-1.783113837E0,1.669925690E0,2.443161593E0
7.808458893E0,2.050377727E-1,-1.996271253E0,2.370349884E0,3.105752401E0
7.818458893E0,1.484528184E-1,-2.260989189E0,2.317733765E0,3.241296061E0
7.828458893E0,-3.363995552E-1,-2.705587387E0,1.534777641E0,3.128723410E0
7.838458426E0,-7.040040493E-1,-2.878416777E0,9.148721695E-1,3.101273275E0
7.848458426E0,-1.066638350E0,-2.864568949E0,-1.201629639E-2,3.056733064E0
7.858458426E0,-1.049715757E0,-2.923187733E0,9.577751160E-3,3.105965458E0
7.868458426E0,-5.053763390E-1,-2.082276344E0,-3.999357224E-1,2.179731314E0
7.878458426E0,-3.447859287E-1,-2.049678326E0,-3.232946396E-1,2.103468088E0
7.888458426E0,1.467007399E-2,-2.428143501E0,1.618232727E-1,2.433574089E0
7.898458426E0,2.627805471E-1,-2.607239246E0,5.212898254E-1,2.671795873E0
7.908458426E0,3.320102692E-1,-3.017122030E0,9.075326920E-1,3.168102232E0
7.918458426E0,2.146397829E-1,-3.251183987E0,1.135097504E0,3.450320839E0
7.928458926E0,-3.197489977E-1,-3.421521425E0,1.806495667E0,3.882328538E0
7.938458926E0,-6.591149569E-1,-3.183001995E0,2.184765816E0,3.916520892E0
7.948458926E0,-1.056461930E0,-2.535834551E0,2.650091171E0,3.817008239E0
7.958458926E0,-1.242246389E0,-2.306186199E0,2.758747101E0,3.804255045E0
7.968458926E0,-1.595956802E0,-2.659672260E0,2.437042236E0,3.944630465E0
7.978459359E0,-1.597054243E0,-2.989705324E0,2.043414116E0,3.957835448E0
7.988459359E0,-1.434136391E0,-3.346559763E0,1.064221382E0,3.793254089E0
7.998426025E0,-1.304589033E0,-3.446467638E0,7.627077103E-1,3.763218672E0
8.008392691E0,-8.237150908E-1,-3.218855381E0,4.918766022E-1,3.358791316E0
8.018359357E0,-5.086767673E-1,-2.995145798E0,5.025758743E-1,3.079323450E0
8.028326023E0,-2.130823433E-1,-2.726339817E0,3.142242432E-1,2.752647772E0
8.038292689E0,-2.415302992E-1,-2.754407406E0,1.764745712E-1,2.770602880E0
8.048259355E0,-5.853723288E-1,-2.949233770E0,2.902565002E-1,3.020743192E0
8.058226021E0,-8.031523228E-1,-3.136229992E0,5.399389267E-1,3.282152687E0
8.068192687E0,-1.276405811E0,-3.408233643E0,1.182567596E0,3.826713274E0
8.078159353E0,-1.493854046E0,-3.560684681E0,1.373101234E0,4.098229167E0
8.088125553E0,-1.743812799E0,-3.810285568E0,1.233583450E0,4.368167501E0
8.098092219E0,-1.792530060E0,-3.886556149E0,9.048728943E-1,4.374617431E0
8.108058885E0,-1.629064441E0,-3.973151684E0,1.233310699E-1,4.295927817E0
8.118025551E0,-1.376041412E0,-4.030142784E0,-2.110919952E-1,4.263812925E0
8.127992217E0,-7.680291533E-1,-4.128668785E0,-4.608469009E-1,4.224707633E0
8.137958883E0,-3.605142832E-1,-4.266969204E0,-3.797512054E-1,4.298977520E0
8.147926049E0,1.516667008E-1,-4.559182167E0,-1.799554825E-1,4.565252326E0
8.157892715E0,2.169828713E-1,-4.838651180E0,3.632068634E-2,4.843650070E0
8.167859381E0,-2.988218963E-1,-5.574095726E0,7.757186890E-1,5.635741049E0
8.177826047E0,-8.543767929E-1,-5.921727180E0,1.325231552E0,6.128054436E0
8.187792713E0,-1.649509907E0,-6.253566742E0,1.904063225E0,6.741916396E0
8.197759379E0,-1.541810513E0,-6.120738983E0,2.134223938E0,6.662997612E0
8.207726045E0,-8.190021515E-1,-5.692789555E0,2.405783653E0,6.234293258E0
8.217692711E0,-2.811065912E-1,-5.566692829E0,2.460595131E0,6.092751297E0
8.227658877E0,4.029648304E-1,-5.784959793E0,2.166534424E0,6.190477516E0
8.237625543E0,5.947626829E-1,-5.992355347E0,1.865400314E0,6.304108468E0
8.247592209E0,8.283311129E-1,-6.250261307E0,1.334142685E0,6.444519807E0
8.257558875E0,8.235990405E-1,-6.275289536E0,9.890785217E-1,6.405923076E0
8.267525541E0,5.535637140E-1,-6.358052254E0,1.018665314E0,6.462889467E0
8.277491707E0,1.604213417E-1,-6.463828087E0,1.056093216E0,6.551499174E0
8.287458373E0,-6.454673409E-1,-6.406785011E0,1.372274399E0,6.583817988E0
8.297458373E0,-8.148014545E-1,-6.174041748E0,1.533535004E0,6.413612284E0
8.307458373E0,-7.384518385E-1,-5.660968781E0,1.778555870E0,5.979560154E0
8.317458373E0,-6.112983227E-1,-5.503561974E0,1.752565384E0,5.808129257E0
8.327458373E0,-3.122159243E-1,-5.541301250E0,1.401515961E0,5.724311777E0
8.337458373E0,-1.671130210E-1,-5.632088661E0,1.105600357E0,5.742011982E0
8.347458373E0,1.869177222E-1,-5.656960964E0,6.293640137E-1,5.694931487E0
8.357458373E0,3.661976457E-1,-5.557575226E0,5.243034363E-1,5.594250370E0
8.367458373E0,5.471953154E-1,-5.239603996E0,5.469388962E-1,5.296415288E0
8.377458373E0,4.801502824E-1,-5.142110825E0,6.341400146E-1,5.203266434E0
8.387458373E0,1.223146915E-1,-5.040497303E0,7.835693359E-1,5.102504762E0
8.397458439E0,-7.179519534E-2,-4.985132694E0,8.011903763E-1,5.049614693E0
8.407458439E0,-3.688154817E-1,-4.755410671E0,9.746322632E-1,4.868250565E0
8.417458439E0,-6.041150093E-1,-4.629245281E0,9.508790970E-1,4.764350730E0
8.427458439E0,-1.045048237E0,-4.434606552E0,6.964378357E-1,4.609000624E0
8.437458439E0,-1.164362073E0,-4.338225842E0,6.083707809E-1,4.532775915E0
8.447457939E0,-1.237513423E0,-4.125428677E0,4.610719681E-1,4.331649639E0
8.457457939E0,-1.149602890E0,-4.046233654E0,4.431657791E-1,4.229655955E0
8.467457939E0,-8.663423061E-1,-3.946841478E0,3.293209076E-1,4.054202623E0
8.477457939E0,-7.480487823E-1,-3.897101879E0,1.723403931E-1,3.971987065E0
8.487457939E0,-4.681873918E-1,-3.863173485E0,2.706623077E-2,3.891534580E0
8.497457939E0,-3.357117176E-1,-3.878788948E0,-4.526329041E-2,3.893552982E0
8.507457939E0,-9.752659500E-2,-3.902277946E0,3.150463104E-2,3.903623592E0
8.517457939E0,1.381200552E-2,-3.866341114E0,1.614351273E-1,3.869734575E0
8.527457939E0,1.197974384E-1,-3.832784653E0,3.383703232E-1,3.849556351E0
8.537457939E0,1.377087533E-1,-3.837158203E0,4.374122620E-1,3.864463257E0
8.547457939E0,1.201044023E-1,-3.830230236E0,6.219177246E-1,3.882250685E0
8.557457939E0,1.211200655E-1,-3.802861214E0,7.652921677E-1,3.880991572E0
8.567457939E0,1.565783620E-1,-3.786117077E0,1.090231895E0,3.943070490E0
8.577457939E0,1.185494363E-1,-3.845885038E0,1.305195808E0,4.063055721E0
8.587457939E0,2.144803107E-1,-3.817700386E0,1.520601273E0,4.114980713E0
8.597457939E0,3.546648622E-1,-3.739652634E0,1.517058372E0,4.051204153E0
8.607457939E0,6.548464298E-1,-3.627888680E0,1.460580826E0,3.965311648E0
8.617457939E0,8.285617828E-1,-3.588140249E0,1.310699463E0,3.908861491E0
8.627457939E0,1.151797652E0,-3.500494957E0,9.811334610E-1,3.813492578E0
8.637457939E0,1.322818995E0,-3.475323439E0,8.970670700E-1,3.825238871E0
8.647458472E0,1.548409700E0,-3.369641542E0,9.656114578E-1,3.832031082E0
8.657458472E0,1.605713129E0,-3.306115150E0,1.075713158E0,3.829604528E0
8.667458472E0,1.523935914E0,-3.337776661E0,1.509978294E0,3.967766142E0
8.677458472E0,1.379479170E0,-3.426243544E0,1.694746971E0,4.063775941E0
8.687458472E0,1.127434015E0,-3.513536930E0,1.949030876E0,4.173100834E0
8.697458938E0,1.025887966E0,-3.454792738E0,2.038536072E0,4.140491311E0
8.707458938E0,1.100442410E0,-3.299073458E0,2.112395287E0,4.069038341E0
8.717458938E0,1.142783999E0,-3.157181740E0,2.128096581E0,3.975241736E0
8.727458938E0,1.184173822E0,-2.995728016E0,1.983043671E0,3.782739244E0
8.737458938E0,1.175323725E0,-2.954050541E0,1.830914497E0,3.668793855E0
8.747458938E0,1.126921892E0,-2.998337269E0,1.530444145E0,3.549963184E0
8.757458938E0,1.070910692E0,-3.056275845E0,1.320868492E0,3.497479853E0
8.767458938E0,1.196210146E0,-3.123412609E0,8.407316208E-1,3.448688838E0
8.777459438E0,1.318069220E0,-3.117795706E0,6.530952454E-1,3.447388857E0
8.787459438E0,1.699557543E0,-2.897839546E0,2.955665588E-1,3.372436726E0
8.797459438E0,1.839346886E0,-2.788740635E0,2.815208435E-1,3.352540124E0
8.807459438E0,1.911029339E0,-2.707255125E0,4.210271835E-1,3.340438195E0
8.817459438E0,1.880262375E0,-2.706693649E0,5.553016663E-1,3.342145576E0
8.827459438E0,1.701831818E0,-2.572448730E0,7.592630386E-1,3.176508204E0
8.837459438E0,1.353242874E0,-2.606356621E0,7.950305939E-1,3.042438949E0
8.847459438E0,6.560069323E-1,-2.890322924E0,7.000932693E-1,3.045396901E0
8.857459438E0,4.083900452E-1,-3.078778505E0,6.762342453E-1,3.178514160E0
8.867459438E0,3.815535307E-1,-3.256253719E0,5.489673615E-1,3.324174566E0
8.877459438E0,5.550898314E-1,-3.238323689E0,4.758911133E-1,3.319839964E0
8.887459438E0,9.537510872E-1,-3.030069828E0,3.526935577E-1,3.196147219E0
8.897459938E0,1.111763000E0,-2.940267563E0,2.435808182E-1,3.152859325E0
8.907459938E0,1.259576797E0,-2.773064613E0,-1.046419144E-1,3.047518825E0
8.917459938E0,1.270594358E0,-2.721506834E0,-3.331890106E-1,3.021923955E0
8.927459938E0,1.184173584E0,-2.657215595E0,-4.976549149E-1,2.951393266E0
8.937459938E0,1.139006257E0,-2.664819241E0,-3.436927795E-1,2.918342263E0
8.947459404E0,9.308650494E-1,-2.676636457E0,4.254055023E-1,2.865634713E0
8.957459404E0,7.934758067E-1,-2.754705906E0,8.113279343E-1,2.979305540E0
8.967459404E0,5.494683981E-1,-2.872149944E0,1.051032066E0,3.107383019E0
8.977459404E0,5.239440799E-1,-2.875008106E0,1.001846313E0,3.089317893E0
8.987459404E0,4.207928777E-1,-2.817726135E0,7.137680054E-1,2.937024342E0
8.997458870E0,3.794964552E-1,-2.849516153E0,5.055112839E-1,2.918784255E0
9.007458870E0,4.557818770E-1,-2.761926651E0,9.075641632E-2,2.800752162E0
9.017458870E0,5.622758865E-1,-2.708537817E0,-1.101608276E-1,2.768477323E0
9.027458870E0,7.377077341E-1,-2.672901154E0,-1.992187500E-1,2.779982264E0
9.037458870E0,7.306264639E-1,-2.720059395E0,-5.210971832E-2,2.816958211E0
9.047458870E0,4.569007456E-1,-2.941860676E0,5.994424820E-1,3.036878960E0
9.057458870E0,2.034824491E-1,-3.075191736E0,1.027795792E0,3.248780311E0
9.067458870E0,-2.508268952E-1,-3.299610853E0,1.515925407E0,3.639831831E0
9.077458370E0,-3.581619561E-1,-3.330332041E0,1.524524689E0,3.680158558E0
9.087458370E0,-5.330761671E-1,-3.446323156E0,1.061621666E0,3.645319473E0
9.097458370E0,-5.308935642E-1,-3.507740259E0,7.095985413E-1,3.617957959E0
9.107458370E0,-5.433549881E-1,-3.417293549E0,2.100458145E-1,3.466590412E0
9.117458370E0,-5.953652263E-1,-3.390544176E0,9.295463562E-3,3.442431694E0
9.127458370E0,-6.999998689E-1,-3.388534069E0,-1.852474213E-1,3.465036733E0
9.137458903E0,-7.319021821E-1,-3.377164841E0,-1.572217941E-1,3.459138890E0
9.147459403E0,-6.787323952E-1,-3.272174835E0,2.188720703E-1,3.348986533E0
9.157459403E0,-6.591511965E-1,-3.207704067E0,4.896287918E-1,3.311130024E0
9.167459403E0,-4.987074435E-1,-3.118311405E0,1.006788254E0,3.314543366E0
9.177459403E0,-4.452836215E-1,-3.101867437E0,1.217201233E0,3.361761137E0
9.187459403E0,-3.099510074E-1,-3.151334763E0,1.489604950E0,3.499414711E0
9.197458903E0,-2.708531320E-1,-3.181280136E0,1.504661560E0,3.529576622E0
9.207458903E0,-3.430753946E-1,-3.171481133E0,1.392233849E0,3.480561505E0
9.217458903E0,-3.350323439E-1,-3.183046818E0,1.233128548E0,3.429962060E0
9.227458903E0,-5.535933971E-1,-3.380377531E0,7.610502243E-1,3.508933648E0
9.237458903E0,-6.986515522E-1,-3.535439491E0,4.974155426E-1,3.637975895E0
9.247458903E0,-8.952109814E-1,-3.755432367E0,1.963682175E-1,3.865648127E0
9.257458903E0,-9.394100904E-1,-3.876696348E0,5.027866364E-2,3.989209676E0
9.267458903E0,-7.851201296E-1,-3.918405294E0,4.027462006E-2,3.996490425E0
9.277458903E0,-7.379243374E-1,-3.968719721E0,1.641111374E-1,4.040074382E0
9.287458903E0,-8.369977474E-1,-4.028460979E0,5.123538971E-1,4.146271772E0
9.297458903E0,-9.391505718E-1,-4.029759884E0,8.263111115E-1,4.219450032E0
9.307458903E0,-9.758224487E-1,-3.844534874E0,1.465789795E0,4.228618873E0
9.317458903E0,-9.259446859E-1,-3.600922585E0,1.723627090E0,4.098159022E0
9.327458903E0,-7.754030228E-1,-3.364214897E0,2.102306366E0,4.042138515E0
9.337458903E0,-7.959704995E-1,-3.237573385E0,2.172632217E0,3.979419708E0
9.347458903E0,-1.062871218E0,-3.214407682E0,1.885561943E0,3.875236227E0
9.357458903E0,-1.316594601E0,-3.307372570E0,1.488247871E0,3.858369654E0
9.367458903E0,-1.690261602E0,-3.382441521E0,7.954921722E-1,3.864026750E0
9.377458903E0,-1.945770979E0,-3.414937973E0,5.063409805E-1,3.962853423E0
9.387458903E0,-2.274675608E0,-3.591732264E0,3.384513855E-1,4.264884420E0
9.397459436E0,-2.319812775E0,-3.598867655E0,3.790817261E-1,4.298497721E0
9.407459436E0,-1.924222469E0,-3.420685053E0,7.832565308E-1,4.002150564E0
9.417459436E0,-1.606070280E0,-3.278694868E0,1.111005783E0,3.816233173E0
9.427459436E0,-1.252919674E0,-3.181844711E0,1.701985359E0,3.819777171E0
9.437458902E0,-1.237853289E0,-3.159353971E0,1.804653168E0,3.843250101E0
9.447458402E0,-1.320109606E0,-3.208431244E0,1.983852386E0,3.996547349E0
9.457458402E0,-1.389098883E0,-3.225511312E0,1.976042747E0,4.029672924E0
9.467458402E0,-1.451460123E0,-3.420765162E0,1.966157913E0,4.204063239E0
9.477458402E0,-1.376076460E0,-3.404727697E0,1.892039299E0,4.131049482E0
9.487458402E0,-9.979232550E-1,-3.338597059E0,1.720298767E0,3.886066005E0
9.497458402E0,-1.010822058E0,-3.336901665E0,1.718942642E0,3.887343278E0
9.507458402E0,-7.403306961E-1,-3.362517595E0,1.248293877E0,3.662356034E0
9.517458402E0,-7.135244608E-1,-3.416024923E0,1.113286018E0,3.663024596E0
9.527458402E0,-6.760755777E-1,-3.415924072E0,8.355197906E-1,3.581020633E0
9.537458402E0,-7.339770794E-1,-3.395463467E0,7.419004440E-1,3.552226172E0
9.547458402E0,-8.345200419E-1,-3.329052210E0,7.765693665E-1,3.518816889E0
9.557458402E0,-8.589912653E-1,-3.225478888E0,8.743810654E-1,3.450524930E0
9.567458402E0,-7.845641375E-1,-3.023620605E0,8.633451462E-1,3.240862122E0
9.577458402E0,-7.482824326E-1,-2.969681978E0,8.400077820E-1,3.175618164E0
9.587458402E0,-7.053246498E-1,-2.956880569E0,7.759943008E-1,3.137322540E0
9.597458402E0,-7.366724610E-1,-2.975514889E0,7.981729507E-1,3.167562979E0
9.607458402E0,-8.446881175E-1,-3.025029182E0,7.843351364E-1,3.237202678E0
9.617458402E0,-9.113811851E-1,-3.061617613E0,7.702627182E-1,3.285943202E0
9.627458402E0,-9.818141460E-1,-3.114493370E0,7.561769485E-1,3.351989193E0
9.637458402E0,-9.919369221E-1,-3.093442678E0,7.375774384E-1,3.331268068E0
9.647458935E0,-9.679909348E-1,-3.039329529E0,7.886304855E-1,3.285797997E0
9.657458935E0,-8.941645026E-1,-3.030494690E0,7.964859009E-1,3.258499350E0
9.667458935E0,-7.371967435E-1,-3.021255970E0,8.663959503E-1,3.228325978E0
9.677458935E0,-7.148681879E-1,-3.069159269E0,9.361448288E-1,3.287421830E0
9.687458935E0,-8.403514624E-1,-3.176671982E0,9.675254822E-1,3.425425670E0
9.697458401E0,-8.903608918E-1,-3.203155518E0,9.320964813E-1,3.452788965E0
9.707458401E0,-9.096132517E-1,-3.127228260E0,8.920850754E-1,3.376798578E0
9.717458401E0,-9.701161385E-1,-3.095802307E0,8.572721481E-1,3.355597232E0
9.727458401E0,-1.064530611E0,-3.123404503E0,7.678709030E-1,3.387994515E0
9.737458401E0,-1.150467634E0,-3.178152084E0,6.883163452E-1,3.449348611E0
9.747458401E0,-1.266835451E0,-3.258962393E0,6.685485840E-1,3.559868698E0
9.757458401E0,-1.207845449E0,-3.217978239E0,7.269735336E-1,3.513227163E0
9.767458401E0,-1.037885427E0,-3.103259087E0,8.864850998E-1,3.390173882E0
9.777458401E0,-9.736562967E-1,-3.016334772E0,9.257364273E-1,3.302009990E0
9.787458401E0,-8.759962916E-1,-2.973812103E0,9.151020050E-1,3.232389149E0
9.797458401E0,-8.702829480E-1,-3.079820633E0,8.599424362E-1,3.313938523E0
9.807458401E0,-9.192730784E-1,-3.446894646E0,7.268180847E-1,3.640660684E0
9.817458401E0,-9.507666826E-1,-3.652243853E0,6.540470123E-1,3.830224528E0
9.827458401E0,-6.892203689E-1,-3.615468025E0,7.057085037E-1,3.747620345E0
9.837458401E0,-4.558271170E-1,-3.317108154E0,7.260313034E-1,3.426091990E0
9.847458401E0,-1.778392792E-1,-2.877918005E0,7.298574448E-1,2.974345431E0
9.857458401E0,-1.635574698E-1,-2.687029362E0,6.746416092E-1,2.775251185E0
9.867458401E0,-1.961079240E-1,-2.608910561E0,4.912910461E-1,2.661999159E0
9.877458401E0,-2.189459205E-1,-2.680281639E0,3.619279861E-1,2.713455149E0
9.887458401E0,-2.738882601E-1,-2.881836414E0,2.160139084E-1,2.902870632E0
9.897458901E0,-3.574094474E-1,-3.046722889E0,1.055974960E-1,3.069431984E0
9.907458901E0,-5.654510260E-1,-3.435539961E0,8.082389832E-3,3.481771821E0
9.917458901E0,-6.971720457E-1,-3.703306437E0,6.121730804E-2,3.768855925E0
9.927458901E0,-8.318691254E-1,-4.044982433E0,4.390659332E-1,4.152910789E0
9.937458901E0,-7.366294861E-1,-4.055224895E0,7.424316406E-1,4.187920330E0
9.947458367E0,-2.350015044E-1,-3.768344641E0,1.171494484E0,3.953232394E0
9.957458367E0,1.251950562E-1,-3.421718836E0,1.319237709E0,3.669362578E0
9.967458367E0,1.593890190E-1,-3.051431656E0,1.326872826E0,3.331250742E0
9.977458367E0,-1.114050746E-1,-2.956141472E0,1.197802544E0,3.191537941E0
9.987458367E0,-8.450077772E-1,-2.970817804E0,8.259477615E-1,3.197184117E0
9.997458367E0,-1.220129967E0,-3.067855597E0,7.867431641E-1,3.394027092E0
1.000745837E1,-1.738740444E0,-3.217073441E0,7.308053970E-1,3.729189776E0
1.001745837E1,-1.897796154E0,-3.321547508E0,7.145242691E-1,3.891638861E0
1.002745837E1,-2.011305094E0,-3.510769129E0,6.419277191E-1,4.096696139E0
1.003745837E1,-1.926234961E0,-3.547628403E0,5.990715027E-1,4.081045831E0
1.004745837E1,-1.478656769E0,-3.330703735E0,5.999860764E-1,3.693236589E0
1.005745837E1,-1.068412304E0,-3.091560841E0,6.804456711E-1,3.340996796E0
1.006745837E1,-3.656654954E-1,-2.617022991E0,7.353563309E-1,2.742857912E0
1.007742503E1,-2.148085237E-1,-2.486011028E0,6.939134598E-1,2.589963209E0
1.008739170E1,-2.103942633E-2,-2.446654797E0,5.019407272E-1,2.497700311E0
1.009735836E1,-2.361297607E-3,-2.506097555E0,3.629293442E-1,2.532241742E0
1.010732503E1,1.761589646E-1,-2.611869335E0,1.131143570E-1,2.620245840E0
1.011729220E1,3.163613081E-1,-2.650955677E0,6.242752075E-2,2.670495773E0
1.012725886E1,5.844074488E-1,-2.700766325E0,2.387533188E-1,2.773567009E0
1.013722553E1,7.580550909E-1,-2.717325926E0,3.519964218E-1,2.842957824E0
1.014719220E1,1.159672737E0,-2.685428619E0,5.658302307E-1,2.979350865E0
1.015715936E1,1.284084320E0,-2.588697910E0,6.493988037E-1,2.961747494E0
1.016712603E1,1.452953219E0,-2.412477493E0,9.678363800E-1,2.977889852E0
1.017709269E1,1.542307615E0,-2.362309456E0,1.224202156E0,3.075368216E0
1.018705936E1,1.650200963E0,-2.278167725E0,1.498607635E0,3.187324308E0
1.019702552E1,1.727579951E0,-2.164833546E0,1.519971848E0,3.159327648E0
1.020699219E1,1.777576327E0,-2.057970524E0,1.243608475E0,2.990247868E0
1.021695886E1,1.740834713E0,-2.050705671E0,9.949769974E-1,2.868079231E0
1.022692552E1,1.519955754E0,-2.260621548E0,3.612699509E-1,2.747943095E0
1.023689219E1,1.406636357E0,-2.466732979E0,-5.081272125E-2,2.840066789E0
1.024685886E1,1.469629049E0,-2.755391359E0,-4.493293762E-1,3.154978284E0
1.025682602E1,1.699859142E0,-2.832586050E0,-4.350137711E-1,3.332011677E0
1.026679269E1,2.314854145E0,-2.832280159E0,-1.607275009E-1,3.661446974E0
1.027675935E1,2.603821516E0,-2.835143805E0,-4.747390747E-3,3.849408970E0
1.028672602E1,3.111325979E0,-2.797706127E0,4.249019623E-1,4.205716419E0
1.029669268E1,3.332025290E0,-2.779535294E0,6.129741669E-1,4.382230746E0
1.030665935E1,3.575534344E0,-2.877637148E0,9.657211304E-1,4.690187491E0
1.031662602E1,3.557138443E0,-3.009047747E0,1.213820457E0,4.814661187E0
1.032659268E1,3.350950956E0,-3.301159382E0,1.652667999E0,4.985763441E0
1.033655935E1,3.297965050E0,-3.361475945E0,1.789704323E0,5.037770892E0
1.034652602E1,3.187727213E0,-3.376848459E0,1.948808670E0,5.036126044E0
1.035649268E1,3.100339413E0,-3.273944378E0,1.889200211E0,4.888751753E0
1.036645985E1,2.933760166E0,-3.134074211E0,1.400939941E0,4.515750502E0
1.037645985E1,2.750033379E0,-3.108610630E0,1.061212540E0,4.283960281E0
1.038645985E1,2.289566278E0,-3.118366480E0,4.094600677E-1,3.890241740E0
1.039645985E1,2.003498793E0,-3.171187878E0,2.096128464E-1,3.756910634E0
1.040645985E1,1.496542573E0,-3.234818697E0,1.522998810E-1,3.567476269E0
1.041645935E1,1.269015312E0,-3.243899822E0,2.147550583E-1,3.489900522E0
1.042645935E1,8.596308827E-1,-3.144982100E0,4.636678696E-1,3.293154347E0
1.043645935E1,7.204067707E-1,-3.018352985E0,6.648225784E-1,3.173551594E0
1.044645935E1,4.590066373E-1,-2.902679443E0,9.604816437E-1,3.091724443E0
1.045645885E1,3.313601911E-1,-2.887983322E0,1.040776253E0,3.087630557E0
1.046645885E1,1.433057338E-1,-2.900920391E0,9.811067581E-1,3.065688523E0
1.047645885E1,7.448826730E-2,-2.842285156E0,8.322286606E-1,2.962555983E0
1.048645885E1,-4.719868302E-3,-2.742631912E0,6.202754974E-1,2.811902163E0
1.049645885E1,-6.985019147E-2,-2.703069210E0,4.978666306E-1,2.749424192E0
1.050645935E1,-2.041137218E-1,-2.630160332E0,3.971147537E-1,2.667790455E0
1.051645985E1,-2.693974376E-1,-2.651583195E0,3.605546951E-1,2.689510756E0
1.052645985E1,-3.612743616E-1,-2.648421288E0,3.564748764E-1,2.696614325E0
1.053645985E1,-3.354038894E-1,-2.633470058E0,3.683500290E-1,2.680175752E0
1.054645985E1,-2.157987952E-1,-2.613776207E0,4.272041321E-1,2.657235133E0
1.055645935E1,-2.038282007E-1,-2.627044916E0,4.346036911E-1,2.670541386E0
1.056645935E1,-1.820438504E-1,-2.702079535E0,5.486068726E-1,2.763212492E0
1.057645935E1,-1.559254825E-1,-2.728214979E0,6.781253815E-1,2.815550348E0
1.058645935E1,-1.988489330E-1,-2.779374361E0,1.009904861E0,2.963843884E0
1.059645935E1,-2.522751987E-1,-2.744267702E0,1.168523788E0,2.993341918E0
1.060645935E1,-3.829409480E-1,-2.644365072E0,1.264937401E0,2.956243737E0
1.061645985E1,-4.712324739E-1,-2.589975595E0,1.254554749E0,2.916151787E0
1.062645985E1,-5.966920257E-1,-2.539134502E0,1.267059326E0,2.899773221E0
1.063645985E1,-6.579021215E-1,-2.554239273E0,1.223460197E0,2.907546787E0
1.064645985E1,-6.072652340E-1,-2.584903955E0,1.102125168E0,2.874922505E0
1.065645985E1,-5.659503937E-1,-2.616381884E0,9.659194946E-1,2.845831070E0
1.066645935E1,-3.990944028E-1,-2.625285625E0,7.782688141E-1,2.767147142E0
1.067645935E1,-2.952910662E-1,-2.640834332E0,7.324371338E-1,2.756386572E0
1.068645935E1,-2.054896802E-1,-2.642112494E0,6.865262985E-1,2.737572427E0
1.069645935E1,-1.746837497E-1,-2.642558575E0,6.761274338E-1,2.733272496E0
1.070645935E1,-2.095429897E-1,-2.644104719E0,6.149425507E-1,2.722747210E0
1.071645935E1,-2.113094181E-1,-2.597825050E0,6.439580917E-1,2.684777214E0
1.072645935E1,-2.650713921E-1,-2.551715136E0,6.555662155E-1,2.647882180E0
1.073645935E1,-2.828139663E-1,-2.559517145E0,6.669340134E-1,2.660058784E0
1.074645935E1,-3.177719712E-1,-2.683827162E0,6.231269836E-1,2.773480575E0
1.075645985E1,-2.708206773E-1,-2.719175339E0,6.224308014E-1,2.802619929E0
1.076645985E1,-6.599617004E-2,-2.792816401E0,6.050596237E-1,2.858369481E0
1.077645985E1,2.407804132E-3,-2.832204342E0,5.810709000E-1,2.891198821E0
1.078645985E1,1.658960134E-1,-2.859430313E0,5.074357986E-1,2.908840713E0
1.079645985E1,2.627224028E-1,-2.828732014E0,4.677495956E-1,2.879155701E0
1.080645935E1,2.056027353E-1,-2.777451277E0,4.592456818E-1,2.822660921E0
1.081645885E1,2.252871096E-1,-2.780904293E0,4.599943161E-1,2.827680629E0
1.082645885E1,-1.753852814E-1,-2.746913910E0,6.684360504E-1,2.832508213E0
1.083645885E1,-2.673166692E-1,-2.668540239E0,7.543926239E-1,2.785978005E0
1.084645885E1,-4.472113848E-1,-2.589852810E0,7.541761398E-1,2.734248937E0
1.085645885E1,-4.969718456E-1,-2.623762369E0,7.253770828E-1,2.767179412E0
1.086645935E1,-4.948804677E-1,-2.685702562E0,8.640518188E-1,2.864348177E0
1.087645935E1,-4.602929354E-1,-2.674788237E0,9.306392670E-1,2.869224833E0
1.088645935E1,-3.167720735E-1,-2.591644049E0,9.851617813E-1,2.790610535E0
1.089645935E1,-2.874657214E-1,-2.564948797E0,9.610872269E-1,2.754140071E0
1.090645935E1,-3.544221520E-1,-2.542522430E0,8.896989822E-1,2.716909945E0
1.091645885E1,-4.251988828E-1,-2.519357443E0,8.619308472E-1,2.696457083E0
1.092645885E1,-5.649229884E-1,-2.478287220E0,7.172737122E-1,2.641122319E0
1.093642551E1,-5.748733878E-1,-2.428165197E0,6.422796249E-1,2.576623518E0
1.094639218E1,-5.247530937E-1,-2.368389368E0,6.247863770E-1,2.504993418E0
1.095635884E1,-5.265545249E-1,-2.372490406E0,6.262407303E-1,2.509611095E0
1.096632551E1,-2.745800614E-1,-2.463993073E0,7.111320496E-1,2.579217878E0
1.097629271E1,-1.962711215E-1,-2.449941874E0,7.097988129E-1,2.558232181E0
1.098625938E1,-1.056795567E-1,-2.417696714E0,7.207908630E-1,2.525067334E0
1.099622604E1,-8.028079569E-2,-2.360914946E0,6.868982315E-1,2.460120641E0
1.100619271E1,-1.019788310E-1,-2.314206600E0,5.653591156E-1,2.384446015E0
1.101615938E1,-1.232373416E-1,-2.349893808E0,4.257726669E-1,2.391332415E0
1.102612604E1,-1.758413613E-1,-2.414936543E0,1.244010925E-1,2.424523524E0
1.103609271E1,-1.819615960E-1,-2.417040348E0,7.986450195E-2,2.425195333E0
1.104605937E1,-2.300469875E-1,-2.409928799E0,1.553535461E-2,2.420933658E0
1.105602554E1,-2.621322572E-1,-2.447227478E0,2.905368805E-2,2.461397929E0
1.106599220E1,-3.511595726E-1,-2.492712975E0,1.250734329E-1,2.520431388E0
1.107595887E1,-3.713346720E-1,-2.467490196E0,1.623449326E-1,2.500550576E0
1.108592580E1,-3.935147822E-1,-2.532975912E0,2.800798416E-1,2.578616988E0
1.109589247E1,-4.916964173E-1,-2.778192520E0,7.585582733E-1,2.921562887E0
1.110585914E1,-3.951996565E-1,-2.948324203E0,1.411493301E0,3.292584352E0
1.111582580E1,4.983274341E-1,-1.724799156E0,7.332506180E-1,1.939308854E0
1.112579247E1,3.234741390E-1,-1.986260176E0,4.600419998E-1,2.064340971E0
1.113575913E1,8.899010718E-3,-2.832504272E0,7.384986877E-1,2.927206853E0
1.114572580E1,-1.612489372E-1,-3.249581337E0,1.265740395E0,3.491114268E0
1.115569247E1,-8.972678334E-2,-2.825267315E0,1.147850037E0,3.050859879E0
1.116565863E1,1.120423228E-1,-2.397803068E0,6.659955978E-1,2.491096781E0
1.117562530E1,3.016891778E-1,-2.322035789E0,4.516954422E-1,2.384721229E0
1.118559196E1,4.965382516E-1,-2.199442387E0,2.920513153E-1,2.273629481E0
1.119555863E1,4.996170402E-1,-2.226590157E0,3.299188614E-1,2.305681541E0
1.120552530E1,3.240777552E-1,-2.383875370E0,1.820144653E-1,2.412678478E0
1.121549196E1,1.873258948E-1,-2.480096102E0,-2.947425842E-2,2.487335200E0
1.122545916E1,8.594460040E-2,-2.535315514E0,-2.501583099E-2,2.536895153E0
1.123545916E1,6.678041071E-2,-2.557698488E0,2.020034790E-1,2.566532015E0
1.124545916E1,8.584246039E-3,-2.459174156E0,7.882242203E-1,2.582423017E0
1.125545916E1,-9.117166698E-2,-2.450291157E0,1.095237732E0,2.685476627E0
1.126545916E1,-2.784529924E-1,-2.496014118E0,1.344563484E0,2.848767016E0
1.127545863E1,-3.248010278E-1,-2.513441563E0,1.369823456E0,2.880850655E0
1.128545863E1,-2.468684018E-1,-2.519102335E0,1.150282860E0,2.780282583E0
1.129545863E1,-1.340226233E-1,-2.547685623E0,9.291477203E-1,2.715138962E0
1.130545863E1,1.659405380E-1,-2.551246643E0,8.004627228E-1,2.679017780E0
1.131545863E1,2.042806745E-1,-2.584736824E0,8.662738800E-1,2.733683500E0
1.132545863E1,2.409218848E-1,-2.603031635E0,8.968534470E-1,2.763722698E0
1.133545889E1,2.698475420E-1,-2.593159437E0,7.514305115E-1,2.713289770E0
1.134545889E1,1.403975934E-1,-2.551986456E0,4.632596970E-1,2.597490308E0
1.135545889E1,3.297280520E-2,-2.546411991E0,4.575700760E-1,2.587406348E0
1.136545889E1,-5.487502813E-1,-2.338333845E0,-1.253348351E0,2.709209134E0
1.137545889E1,-7.426543832E-1,-2.276977539E0,-8.148889542E-1,2.529862892E0
1.138545863E1,-7.193439007E-1,-2.273055792E0,1.902999878E-1,2.391746719E0
1.139545863E1,-6.600143909E-1,-2.493893147E0,7.174568176E-1,2.677660604E0
1.140545863E1,-2.411946803E-1,-2.512724876E0,1.081310272E0,2.746123283E0
1.141545863E1,-3.544534743E-2,-2.379447699E0,1.095396996E0,2.619717981E0
1.142545863E1,9.811203182E-2,-2.231742382E0,1.005976677E0,2.449956960E0
1.143545863E1,1.818918437E-2,-2.147562265E0,9.347801208E-1,2.342257118E0
1.144545863E1,2.804085016E-1,-2.230903625E0,4.287614822E-1,2.288972766E0
1.145545863E1,2.420379519E-1,-2.401290894E0,1.385812759E-1,2.417433576E0
1.146545863E1,2.477838099E-1,-2.534184217E0,1.294565201E-1,2.549557894E0
