"Time (s)","Linear Acceleration x (m/s^2)","Linear Acceleration y (m/s^2)","Linear Acceleration z (m/s^2)","Absolute acceleration (m/s^2)"
0.000000000E0,-4.440627992E-3,1.773594320E-2,8.130455017E-2,8.333494307E-2
1.000000000E-2,1.216073148E-2,1.453995705E-2,8.119869232E-2,8.338178084E-2
2.000000000E-2,-5.358068272E-2,-1.454213262E-2,8.100414276E-2,9.820404435E-2
3.000000000E-2,-1.738873124E-2,-7.782191038E-3,9.340286255E-3,2.121724343E-2
4.000000000E-2,-9.295336902E-3,4.789844155E-3,9.517669678E-3,1.413972883E-2
5.000000000E-2,-9.187586606E-3,5.035206676E-3,9.521484375E-3,1.415710841E-2
6.000216600E-2,-3.560492769E-2,9.635239840E-3,6.458663940E-2,7.437729971E-2
7.000216600E-2,-5.244202539E-2,-7.115960121E-3,4.782772064E-2,7.133227725E-2
8.000216600E-2,-2.359437943E-2,-2.340316772E-3,5.740356445E-2,6.210749580E-2
9.000216600E-2,-4.989062995E-2,-1.190237701E-2,4.064369202E-2,6.544196846E-2
1.000033660E-1,-3.542091325E-2,-1.185449958E-2,5.740356445E-2,6.848605309E-2
1.100033660E-1,-3.303793445E-2,-1.895737648E-2,2.149200439E-2,4.373549461E-2
1.200033660E-1,-3.291865066E-2,-1.895064116E-2,2.149105072E-2,4.364206254E-2
1.300033660E-1,-1.603942737E-2,9.787410498E-3,2.388381958E-2,3.038903540E-2
1.400033660E-1,-1.370963082E-2,7.163539529E-3,5.021858215E-2,5.254689590E-2
1.500033660E-1,-2.337149531E-2,-4.857912660E-3,4.303455353E-2,4.921177609E-2
1.600033660E-1,-3.542256728E-2,6.924986839E-3,5.021476746E-2,6.184041224E-2
1.700033660E-1,-2.585010231E-2,-5.085527897E-3,9.091567993E-2,9.465596252E-2
1.800033660E-1,-2.585750073E-2,1.161567867E-2,5.978965759E-2,6.616900702E-2
1.900033660E-1,-1.389956847E-2,-2.952367067E-4,4.781913757E-2,4.979914745E-2
2.000033660E-1,-2.589026093E-2,-1.465867460E-2,4.781913757E-2,5.631919984E-2
2.100033660E-1,-1.375545934E-2,9.344458580E-3,1.669311523E-2,2.356250547E-2
2.200033660E-1,-2.806092054E-2,-2.195686102E-4,-4.855155945E-3,2.847869398E-2
2.300033660E-1,-3.523356467E-2,-6.489177048E-2,7.892990112E-2,1.080845745E-1
2.400034490E-1,-4.494459182E-2,-5.431954563E-2,4.302024841E-2,8.259159246E-2
2.500034490E-1,-4.497805610E-2,-1.223838329E-2,6.458187103E-2,7.964685570E-2
2.600034490E-1,-4.230135679E-2,-1.103293896E-2,6.458950043E-2,7.799316697E-2
2.700034490E-1,-8.394598961E-3,1.836761832E-3,1.431369781E-2,1.669505708E-2
2.800034490E-1,-1.102059335E-2,1.924721897E-2,5.262279510E-2,5.710575698E-2
2.900034490E-1,-9.111937135E-3,1.939252019E-2,5.261611938E-2,5.681155918E-2
3.000034490E-1,-6.521493196E-4,3.132206202E-2,3.106117249E-2,4.411681430E-2
3.100034490E-1,-1.833200455E-3,1.650774479E-2,3.104591370E-2,3.520958703E-2
3.200034490E-1,6.359234452E-3,6.425157189E-3,5.018615723E-2,5.099385144E-2
3.300034490E-1,-7.381327450E-4,-1.728962362E-2,5.258464813E-2,5.535902044E-2
3.400034490E-1,6.925843656E-3,-2.937287092E-2,5.018615723E-2,5.856093607E-2
3.500038490E-1,-3.128878027E-2,-4.121626914E-2,1.906204224E-2,5.514644201E-2
3.600034150E-1,-3.286103159E-2,-2.361911535E-2,1.907539368E-2,4.473902828E-2
3.700034150E-1,-7.910039276E-3,-3.549650311E-3,3.345489502E-2,3.456007436E-2
3.800034150E-1,-7.038455456E-3,1.991569996E-3,3.825473785E-2,3.894780064E-2
3.900033150E-1,-6.397798657E-3,9.617194533E-3,5.023288727E-2,5.154381846E-2
4.000029150E-1,-5.837023258E-3,9.871438146E-3,5.023574829E-2,5.152811405E-2
4.100029150E-1,7.172059268E-3,5.738094449E-3,4.545497894E-2,4.637369160E-2
4.200029150E-1,-1.619706675E-2,1.320779324E-3,5.025005341E-2,5.281247293E-2
4.300029150E-1,-3.242088854E-2,-1.779396832E-2,2.363204956E-3,3.705838718E-2
4.400029150E-1,-1.007404923E-2,-1.734891534E-2,1.434040070E-2,2.466005725E-2
4.500029150E-1,-2.836706489E-2,-4.578022659E-2,2.152633667E-2,5.799916109E-2
4.600029150E-1,6.313554943E-3,-1.838706434E-2,2.393722534E-2,3.083724806E-2
4.700029150E-1,2.314202487E-3,2.818176150E-2,4.311084747E-2,5.155688494E-2
4.800029150E-1,1.270623133E-2,6.212480366E-2,1.005802155E-1,1.189004596E-1
4.900033810E-1,2.972170338E-2,7.816597819E-2,5.028438568E-2,9.757980960E-2
5.000033810E-1,3.412062675E-2,4.785983264E-2,3.588771820E-2,6.886732947E-2
5.100033810E-1,4.694744945E-3,-1.880058646E-2,1.908969879E-2,2.720145734E-2
5.200033810E-1,-6.587766111E-4,-6.549227238E-2,-8.678436279E-5,6.549564306E-2
5.300033810E-1,-2.259773016E-2,-4.150691628E-2,1.667499542E-2,5.011523701E-2
5.400033140E-1,-1.780911908E-2,-1.224277914E-2,5.259990692E-2,5.686651538E-2
5.500033140E-1,8.871585131E-3,2.667908370E-2,3.824520111E-2,4.746760936E-2
5.600033140E-1,1.116159186E-2,3.620825708E-2,4.542732239E-2,5.915454871E-2
5.700037800E-1,1.096456870E-2,-9.636193514E-3,6.457614899E-2,6.620541526E-2
5.800037800E-1,6.195127964E-3,-4.849880934E-3,4.542160034E-2,4.609796886E-2
5.900037800E-1,-2.012007125E-2,-3.595805168E-2,1.668930054E-2,4.445595011E-2
6.000042130E-1,-2.477756515E-2,-4.505640268E-2,2.388286591E-2,5.669566510E-2
6.100042130E-1,-5.161024630E-3,6.198480725E-3,9.534835815E-3,1.248881230E-2
6.200042130E-1,-1.909741573E-2,2.346356213E-2,4.066848755E-2,5.068703892E-2
6.300042130E-1,5.325082690E-3,2.352894843E-2,5.503463745E-2,6.008975985E-2
6.400042130E-1,2.500728518E-2,1.595263183E-2,4.305362701E-2,5.228255515E-2
6.500038130E-1,-1.295413822E-3,2.309207618E-2,4.305171967E-2,4.887097958E-2
6.600038130E-1,2.024937049E-2,3.188595176E-3,4.543113708E-2,4.984167294E-2
6.700038130E-1,-1.512788236E-3,9.862139821E-3,4.542160034E-2,4.650453857E-2
6.800038130E-1,1.748666167E-2,1.395744085E-2,4.061985016E-2,4.637419238E-2
6.900039130E-1,-2.119414508E-2,3.020577133E-2,3.821659088E-2,5.312333033E-2
7.000039130E-1,-1.169356331E-2,2.989351749E-3,4.777717590E-2,4.927813089E-2
7.100039130E-1,9.982161224E-3,-1.477092505E-2,3.339099884E-2,3.785211451E-2
7.200039130E-1,-2.013824880E-3,-1.773491502E-2,2.380275726E-2,2.975153701E-2
7.300039130E-1,5.256608129E-4,1.482367516E-3,3.338050842E-2,3.341754143E-2
7.400043790E-1,-4.368674010E-3,-8.162155747E-3,4.056262970E-2,4.160568503E-2
7.500043790E-1,1.242553070E-2,1.094883680E-2,4.534912109E-2,4.827850065E-2
7.600043790E-1,-9.163884446E-3,1.093365252E-2,3.098392487E-2,3.411048425E-2
7.700043790E-1,-6.760250777E-3,-1.771962643E-2,5.014038086E-2,5.360731241E-2
7.800043790E-1,5.243889987E-3,-2.257090807E-2,4.774379730E-2,5.306990158E-2
7.900039120E-1,5.939528346E-4,-2.735489607E-2,4.056072235E-2,4.892663198E-2
8.000039120E-1,-2.093002200E-2,-2.179972827E-2,-1.268386841E-4,3.022102020E-2
8.100039120E-1,-2.052807808E-2,5.332529545E-4,3.340816498E-2,3.921468903E-2
8.200039120E-1,8.726246655E-3,3.560632467E-3,3.581237793E-2,3.703176876E-2
8.300039120E-1,6.528448313E-3,5.953043699E-3,4.538822174E-2,4.624013451E-2
8.400039120E-1,6.482657045E-3,-1.284092665E-3,5.735874176E-2,5.773819353E-2
8.500043120E-1,-5.521416664E-3,3.389507532E-3,2.623176575E-2,2.701999884E-2
8.600043120E-1,1.120637357E-2,-3.908097744E-3,5.735397339E-2,5.856905582E-2
8.700038450E-1,-3.198646009E-3,-1.826958358E-2,4.298973083E-2,4.682014500E-2
8.800038450E-1,-3.131929785E-3,-1.065991819E-2,2.623844147E-2,2.849383531E-2
8.900038450E-1,1.842340082E-2,5.980938673E-3,2.144718170E-2,2.889939321E-2
9.000034110E-1,-5.486577749E-3,1.129671931E-3,4.059982300E-2,4.098443999E-2
9.100034110E-1,-7.368288934E-4,8.316829801E-3,4.778289795E-2,4.850688519E-2
9.200034110E-1,1.612231135E-3,-1.314431429E-3,3.820514679E-2,3.826173363E-2
9.300034110E-1,-5.490280688E-3,8.273661137E-3,4.778194427E-2,4.880277502E-2
9.400034110E-1,-6.749443710E-4,8.152395487E-3,5.256748199E-2,5.320016227E-2
9.500034110E-1,1.610409468E-2,-1.579260826E-2,5.256748199E-2,5.720217220E-2
9.600034110E-1,1.199748367E-3,-1.806832850E-2,4.059982300E-2,4.445502804E-2
9.700034110E-1,9.243525565E-4,6.240114570E-3,3.582000732E-2,3.637123014E-2
9.800034110E-1,5.813501775E-4,1.371689141E-2,4.061508179E-2,4.287278795E-2
9.900038770E-1,6.544813514E-4,-5.485013127E-3,1.427745819E-2,1.530880555E-2
1.000003877E0,-4.062879831E-3,-1.034070551E-2,4.779624939E-2,4.907054757E-2
1.010003877E0,7.875531912E-3,-3.095224500E-3,5.976867676E-2,6.036471767E-2
1.020003877E0,5.201581866E-3,-2.768546343E-3,4.062080383E-2,4.104596213E-2
1.030003877E0,2.701476216E-3,1.631839573E-2,3.583240509E-2,3.946579871E-2
1.040003410E0,-6.730418652E-3,9.198650718E-3,3.343868256E-2,3.532788136E-2
1.050003410E0,2.788964659E-3,-1.287619770E-2,2.385139465E-2,2.724818926E-2
1.059970076E0,-6.768450141E-3,1.106446981E-2,5.497646332E-2,5.648580289E-2
1.069936742E0,1.725460961E-2,-3.290161490E-3,2.863883972E-2,3.359657507E-2
1.079903408E0,5.944967270E-4,-1.046413183E-2,2.863883972E-2,3.049646901E-2
1.089870074E0,6.133541465E-4,-7.116943598E-4,4.779720306E-2,4.780643610E-2
1.099836740E0,-1.607991382E-2,-1.021733880E-2,4.779815674E-2,5.145504279E-2
1.109803406E0,7.798150182E-4,-7.814183831E-3,3.103828430E-2,3.201631885E-2
1.119770072E0,8.085701615E-3,1.652945578E-2,3.344058990E-2,3.816902582E-2
1.129736738E0,-1.100184023E-2,-1.589953899E-4,5.499076843E-2,5.608074875E-2
1.139703404E0,9.430497885E-4,-1.458115876E-2,6.935405731E-2,7.087654619E-2
1.149669670E0,-6.162803620E-3,4.564404488E-3,1.667976379E-2,1.835833481E-2
1.159636336E0,-1.346334815E-3,-1.229737699E-2,5.977439880E-2,6.104110788E-2
1.169603002E0,2.273495495E-2,4.644736648E-3,1.668071747E-2,2.857793013E-2
1.179569668E0,3.664396703E-3,-2.715438604E-4,4.780387878E-2,4.794488884E-2
1.189536334E0,-8.232710883E-3,9.435623884E-3,2.625751495E-2,2.909064486E-2
1.199502834E0,3.825388849E-3,-2.466261387E-3,1.907634735E-2,1.961180954E-2
1.209469967E0,6.357695907E-3,-4.856154323E-3,4.062366486E-2,4.140392105E-2
1.219436633E0,3.931608051E-3,1.196675003E-2,1.907730103E-2,2.286053504E-2
1.229403299E0,-5.626954138E-3,1.675288379E-2,5.020332336E-2,5.322307211E-2
1.239369965E0,1.335796341E-2,4.326358438E-3,4.301166534E-2,4.524550718E-2
1.249336631E0,2.022342011E-2,2.052925527E-2,3.102970123E-2,4.234712979E-2
1.259303297E0,5.498200655E-3,5.768939853E-3,5.735969543E-2,5.791066860E-2
1.269269963E0,-6.942540407E-3,3.017038107E-4,3.579998016E-2,3.646818438E-2
1.279236629E0,2.405863255E-3,4.622146487E-3,3.579044342E-2,3.616777926E-2
1.289202829E0,-2.654538676E-2,-5.522474647E-3,2.859783173E-2,3.940801015E-2
1.299169495E0,-4.692822695E-3,-2.753825486E-2,3.577041626E-2,4.538612943E-2
1.309136161E0,1.448904350E-2,-8.308321238E-3,2.140617371E-2,2.715114834E-2
1.319102827E0,-1.428822055E-2,1.079149544E-2,4.055976868E-2,4.433626569E-2
1.329069493E0,-7.072068751E-3,-1.081952453E-2,4.295253754E-2,4.485528674E-2
1.339036159E0,7.299877703E-3,-1.572729647E-2,4.055500031E-2,4.410605535E-2
1.349002825E0,-4.449088126E-3,-5.562871695E-3,5.253791809E-2,5.301860771E-2
1.359002825E0,-2.042107284E-3,-1.759497821E-2,3.577613831E-2,3.992099113E-2
1.369002825E0,3.200396895E-4,6.232976913E-3,4.056262970E-2,4.103997265E-2
1.379002825E0,1.230625808E-2,1.403197646E-3,4.295635223E-2,4.470638823E-2
1.389002825E0,5.029849708E-3,1.452758908E-3,2.859115601E-2,2.906654603E-2
1.399002825E0,-1.200788096E-2,-2.812013030E-3,4.296970367E-2,4.470449705E-2
1.409002825E0,2.435185015E-3,-2.436919510E-2,5.972862244E-2,6.455459809E-2
1.419002825E0,-1.186432689E-2,2.394467592E-3,3.818893433E-2,4.006108377E-2
1.429002825E0,1.934021711E-4,-7.290706038E-3,4.776382446E-2,4.831743708E-2
1.439002825E0,2.853661776E-3,-9.240716696E-3,4.298305511E-2,4.405765833E-2
1.449002825E0,6.759501994E-4,2.001956105E-2,5.017471313E-2,5.402537896E-2
1.459003291E0,-1.796066761E-3,-6.309032440E-3,4.299259186E-2,4.349014487E-2
1.469003291E0,-1.136015356E-2,-1.098057628E-2,3.820610046E-2,4.134407160E-2
1.479003291E0,-1.702748239E-3,-8.575275540E-3,2.862834930E-2,2.993354450E-2
1.489003291E0,-1.742117107E-3,-1.814822853E-2,3.102397919E-2,3.598444741E-2
1.499003457E0,3.251172602E-3,-3.351390362E-3,2.863693237E-2,2.901509670E-2
1.509002990E0,3.224831074E-3,-3.407657146E-3,4.060745239E-2,4.087758374E-2
1.519002990E0,5.633946508E-3,-5.843147635E-3,4.300117493E-2,4.376053899E-2
1.529002990E0,3.309879452E-3,1.805260777E-3,4.779815674E-2,4.794661673E-2
1.539002990E0,8.126087487E-3,-7.696092129E-3,4.301166534E-2,4.444397020E-2
1.549002990E0,2.730638534E-2,6.725966930E-3,5.019569397E-2,5.753681434E-2
1.559002990E0,-2.106928825E-2,1.172590256E-2,2.865219116E-2,3.744809417E-2
1.569002990E0,1.486451924E-2,-5.036100745E-3,2.386379242E-2,2.856215733E-2
1.579002990E0,-6.656020880E-3,-9.926497936E-3,4.062175751E-2,4.234341930E-2
1.589002990E0,1.497621089E-2,-9.876519442E-3,4.062271118E-2,4.440762539E-2
1.599002990E0,-1.696936786E-3,-2.301186323E-4,1.667976379E-2,1.676744075E-2
1.609002990E0,1.227143034E-2,-7.073432207E-3,1.908302307E-2,2.376516811E-2
1.619002990E0,9.889852256E-3,-7.134169340E-3,4.063034058E-2,4.242086898E-2
1.629002990E0,-2.468004823E-3,-4.480719566E-3,3.345394135E-2,3.384278486E-2
1.639002990E0,-2.435799688E-3,2.639219165E-3,6.218338013E-2,6.228700797E-2
1.649002990E0,-7.276814431E-3,3.097355366E-4,3.584766388E-2,3.658008980E-2
1.659002990E0,-9.578315541E-3,-9.316951036E-3,5.021286011E-2,5.196037938E-2
1.669002990E0,3.115070984E-2,-4.649594426E-3,5.978775024E-2,6.757633114E-2
1.679002990E0,2.493370324E-3,-7.091522217E-3,4.063224792E-2,4.132173949E-2
1.689002990E0,-2.406351268E-4,-4.383519292E-3,3.585052490E-2,3.611832336E-2
1.699002990E0,7.019590586E-3,-6.786495447E-3,2.387905121E-2,2.579806696E-2
1.709003490E0,2.252291888E-3,4.135817289E-4,4.782199860E-2,4.787679415E-2
1.719003490E0,-2.956688404E-3,3.110483289E-3,4.064655304E-2,4.087247713E-2
1.729003490E0,1.621933281E-2,3.127902746E-3,3.346443176E-2,3.731914691E-2
1.739003490E0,-9.332112968E-4,3.150954843E-3,4.304313660E-2,4.316840289E-2
1.749003490E0,8.670248091E-3,6.355047226E-4,1.191425323E-2,1.474877955E-2
1.759003023E0,2.072193846E-2,6.465017796E-4,2.628135681E-2,3.347426495E-2
1.769003023E0,1.079410687E-2,-6.497800350E-3,2.628326416E-2,2.914694028E-2
1.779003023E0,-4.013530910E-3,-3.995895386E-3,3.825855255E-2,3.867547613E-2
1.789003023E0,-3.855232149E-3,5.583658814E-3,4.543972015E-2,4.594353304E-2
1.799003023E0,-1.097141020E-2,-6.316229701E-3,4.738807678E-3,1.351750338E-2
1.809003023E0,1.773417369E-2,7.993102074E-3,3.586292267E-2,4.079877228E-2
1.819003023E0,5.169175565E-4,1.993551850E-2,3.825950623E-2,4.314489446E-2
1.829003023E0,7.494371384E-3,-4.260942340E-3,3.586006165E-2,3.688177400E-2
1.839003023E0,2.279780805E-3,-4.549577832E-3,4.064369202E-2,4.096102733E-2
1.849003023E0,4.818692803E-3,-1.406377554E-2,4.303932190E-2,4.553452330E-2
1.859003023E0,-7.189612836E-3,5.291849375E-3,3.586006165E-2,3.695454267E-2
1.869003023E0,-2.317052335E-3,1.013024151E-2,2.628421783E-2,2.826394579E-2
1.879003023E0,-9.419567883E-3,1.492980123E-2,1.670646667E-2,2.430500468E-2
1.889003023E0,-2.365365252E-2,2.904489636E-3,1.191711426E-2,2.664486723E-2
1.899003023E0,-1.124347560E-2,4.974588752E-3,5.021762848E-2,5.170079774E-2
1.909003023E0,1.206569374E-3,4.665672779E-3,4.063224792E-2,4.091703659E-2
1.919036823E0,-1.174997538E-3,9.393483400E-3,2.865886688E-2,3.018192838E-2
1.929070156E0,-5.824752152E-3,-1.790225506E-4,3.584194183E-2,3.631259535E-2
1.939103489E0,-1.733818650E-2,-1.504856348E-2,4.301357269E-2,4.875694217E-2
1.949136822E0,9.614523500E-3,1.114220917E-2,2.864265442E-2,3.220232196E-2
1.959170155E0,-1.164689660E-2,3.691494465E-3,3.581905365E-2,3.784550087E-2
1.969203488E0,5.681257695E-3,-1.494690776E-3,1.426029205E-2,1.542292835E-2
1.979236821E0,2.732255682E-2,-1.351583004E-2,4.059600830E-2,5.076648169E-2
1.989270587E0,3.460120410E-3,8.608400822E-4,4.778003693E-2,4.791289396E-2
1.999303920E0,2.497481182E-2,1.050055027E-2,3.102111816E-2,4.118631513E-2
2.009336753E0,1.057005674E-2,-1.600992680E-2,3.580570221E-2,4.062132649E-2
2.019370086E0,5.322352052E-3,-8.697777987E-3,3.820419312E-2,3.954161283E-2
2.029403419E0,-4.631649703E-3,8.221894503E-3,4.060268402E-2,4.168488548E-2
2.039436752E0,-7.348477840E-3,1.773551106E-2,5.496883392E-2,5.822474716E-2
2.049470085E0,-1.399181783E-4,-1.539826393E-3,2.291679382E-3,2.764495760E-3
2.059503418E0,-1.787208021E-4,1.283013821E-2,3.102302551E-2,3.357190044E-2
2.069536751E0,9.529355913E-3,1.055923104E-2,3.581428528E-2,3.853529570E-2
2.079570084E0,7.042329758E-3,8.037105203E-3,4.059982300E-2,4.198255704E-2
2.089603417E0,-7.544074208E-3,-1.150718331E-2,1.665019989E-2,2.159994166E-2
2.099637217E0,-7.537398487E-3,-1.402057707E-2,4.777431488E-2,5.035647049E-2
2.109670550E0,-9.905306622E-3,5.012437701E-3,5.016613007E-2,5.137976486E-2
2.119703883E0,-2.701230347E-3,-6.941691041E-3,3.819465637E-2,3.891420686E-2
2.129737216E0,2.119518816E-3,7.361084223E-3,3.340435028E-2,3.427139534E-2
2.139770549E0,4.578880966E-3,1.459603012E-2,3.101158142E-2,3.457930636E-2
2.149803882E0,-7.306341082E-3,2.997070551E-4,2.622413635E-2,2.722458029E-2
2.159837215E0,2.298988402E-3,-6.807193160E-3,5.256175995E-2,5.305055924E-2
2.169870548E0,-1.768022776E-5,-9.210124612E-3,4.058933258E-2,4.162115601E-2
2.179903881E0,2.469226718E-3,-1.644279063E-2,3.101158142E-2,3.518779087E-2
2.189937214E0,-7.095217705E-3,9.833678603E-3,3.101062775E-2,3.329718280E-2
2.199937214E0,7.408656180E-3,-4.527524114E-3,3.579902649E-2,3.683689670E-2
2.209937680E0,-4.469323903E-3,4.999965429E-3,2.861499786E-2,2.939034898E-2
2.219903880E0,-1.158038527E-2,-2.249851823E-3,3.340244293E-2,3.542443154E-2
2.229870546E0,5.200792104E-3,1.616925001E-4,2.382469177E-2,2.438627321E-2
2.239837212E0,7.568780333E-3,2.499490976E-3,4.776668549E-2,4.842716317E-2
2.249803878E0,1.242848486E-2,3.825128078E-5,4.297637939E-2,4.473743270E-2
2.259770544E0,1.239532605E-2,1.008510590E-4,4.297828674E-2,4.473016220E-2
2.269737210E0,5.036965013E-4,-1.185965538E-2,3.340148926E-2,3.544805524E-2
2.279703876E0,-4.211794585E-3,5.030184984E-3,3.819179535E-2,3.875119620E-2
2.289670109E0,-4.172615707E-3,5.025967956E-3,3.819179535E-2,3.874641026E-2
2.299636775E0,-1.771744341E-3,-4.492565989E-3,4.298114777E-2,4.325160448E-2
2.309603441E0,7.808245718E-4,1.466406882E-2,2.382659912E-2,2.798841594E-2
2.319570107E0,5.588494241E-3,-1.167516410E-2,4.298019409E-2,4.488694475E-2
2.329536773E0,-6.310015917E-3,5.214646459E-3,4.777145386E-2,4.846772784E-2
2.339503873E0,-1.112427935E-2,1.473544538E-2,4.537582397E-2,4.898824699E-2
2.349470539E0,3.380168229E-3,-2.019897103E-3,2.622127533E-2,2.651529373E-2
2.359437205E0,5.794122815E-3,5.160853267E-3,4.776954651E-2,4.839561798E-2
2.369403871E0,1.065600291E-2,-1.164670289E-2,4.298019409E-2,4.578747831E-2
2.379370537E0,7.936552167E-3,2.636238933E-3,2.861309052E-2,2.981019230E-2
2.389337203E0,-9.247733280E-3,-2.243921161E-3,2.621936798E-2,2.789284873E-2
2.399303403E0,1.477475837E-2,1.612007618E-4,4.297924042E-2,4.544815263E-2
2.409270069E0,2.334818244E-3,-1.433107257E-2,3.579521179E-2,3.862807534E-2
2.419236735E0,7.151864469E-3,7.115691900E-3,3.339958191E-2,3.489003165E-2
2.429203401E0,1.441267505E-2,-1.683561504E-2,4.297542572E-2,4.835339028E-2
2.439170067E0,9.597789496E-3,-1.210330427E-2,4.057979584E-2,4.342035660E-2
2.449136733E0,1.873438060E-2,4.961192608E-3,3.579998016E-2,4.070907796E-2
2.459103466E0,1.388929784E-3,4.142075777E-4,3.580665588E-2,3.583597772E-2
2.469070132E0,-1.606423780E-2,5.357429385E-3,6.214809418E-2,6.441387580E-2
2.479036798E0,-2.077247761E-2,-4.208654165E-3,3.581142426E-2,4.161329960E-2
2.489003464E0,-1.829149202E-2,6.494075060E-4,4.299545288E-2,4.672910633E-2
2.499003464E0,8.058182895E-3,-1.377677917E-2,3.102302551E-2,3.488784986E-2
2.509002997E0,5.676615983E-3,-9.048968554E-3,3.102207184E-2,3.280970500E-2
2.519002997E0,3.308713436E-3,-1.987338066E-3,3.101921082E-2,3.125841546E-2
2.529002997E0,-1.386906952E-3,7.717669010E-3,2.862644196E-2,2.968095526E-2
2.539002997E0,-8.557021618E-3,-1.628580689E-2,2.144336700E-2,2.825363895E-2
2.549002997E0,8.473064750E-3,-1.436695457E-3,3.102874756E-2,3.219689574E-2
2.559002997E0,-1.303616539E-2,-3.017242253E-2,2.624034882E-2,4.205796708E-2
2.569002997E0,-1.301377639E-2,-3.015480936E-2,2.624034882E-2,4.203839684E-2
2.579002997E0,-8.206088096E-3,-1.304177940E-2,1.188087463E-2,1.945721136E-2
2.589002997E0,-5.629286170E-3,1.166999340E-2,2.386760712E-2,2.715769280E-2
2.599002997E0,-7.695443928E-4,-1.473417878E-2,3.583717346E-2,3.875553154E-2
2.609002997E0,1.602528617E-2,4.376798868E-3,4.301929474E-2,4.611535411E-2
2.619002997E0,8.914228529E-3,-7.661506534E-3,3.104591370E-2,3.319654967E-2
2.629002997E0,8.672475815E-3,-2.373218536E-3,2.626895905E-2,2.776512583E-2
2.639002563E0,8.824359626E-3,-2.158343792E-2,4.302692413E-2,4.893904694E-2
2.649002563E0,-8.239880204E-3,1.000936329E-2,3.106594086E-2,3.366267459E-2
2.659002563E0,-3.702938557E-3,1.041167974E-2,3.586292267E-2,3.752684441E-2
2.669002563E0,3.618676215E-3,1.999339461E-2,3.825759888E-2,4.331829311E-2
2.679002563E0,-8.319918066E-3,-6.406337023E-3,3.586196899E-2,3.736767334E-2
2.689002563E0,-3.398403525E-3,-6.460040808E-3,2.149486542E-2,2.270045183E-2
2.699002563E0,-8.161045611E-3,3.173395991E-3,4.304409027E-2,4.392569652E-2
2.709003029E0,-3.418281674E-3,1.509045064E-2,3.586006165E-2,3.905573417E-2
2.719003029E0,-5.713324994E-3,3.127798438E-3,3.825473785E-2,3.880528539E-2
2.729003529E0,1.854423061E-2,2.757951617E-3,4.303359985E-2,4.694023330E-2
2.739003529E0,-1.723813266E-2,7.492676377E-3,3.345584869E-2,3.837430427E-2
2.749003529E0,6.678957492E-3,7.436156273E-3,9.511947632E-3,1.379789988E-2
2.759003462E0,1.896381378E-3,-2.082347870E-3,4.782104492E-2,4.790391187E-2
2.769003462E0,9.171750396E-3,-1.954555511E-3,2.388095856E-2,2.565621707E-2
2.779003462E0,4.345029593E-3,-6.738781929E-3,3.824710846E-2,3.907853336E-2
2.789003462E0,6.444651634E-3,1.925560832E-2,3.824138641E-2,4.329798634E-2
2.799003462E0,2.088149637E-2,-4.754304886E-3,4.063320160E-2,4.593144215E-2
2.809003462E0,1.855992153E-2,7.169470191E-3,4.302692413E-2,4.740451656E-2
2.819003928E0,-8.278973401E-3,1.888021827E-2,5.020618439E-2,5.427398081E-2
2.829003928E0,-5.917094648E-3,-9.788274765E-3,3.584194183E-2,3.762269430E-2
2.839003928E0,3.495477140E-3,-5.415976048E-3,2.865123749E-2,2.936740653E-2
2.849003928E0,-1.267552376E-3,-2.211967111E-2,4.780673981E-2,5.269127926E-2
2.859003928E0,1.214008778E-3,-1.247289777E-2,4.062461853E-2,4.251360520E-2
2.869003928E0,-1.551891491E-2,-7.805556059E-3,3.822803497E-2,4.198983309E-2
2.879003928E0,-8.181035519E-3,-1.190075278E-2,3.584671021E-2,3.864639558E-2
2.889003928E0,1.133626699E-2,-4.106536508E-3,3.585815430E-2,3.783096379E-2
2.899003928E0,-3.029964864E-3,-2.033382654E-2,5.981159210E-2,6.324612035E-2
2.909003928E0,-5.619749427E-4,-7.877156138E-3,2.869510651E-2,2.976196469E-2
2.919003928E0,-7.837537676E-3,8.754894137E-3,2.151107788E-2,2.451125537E-2
2.929004394E0,1.133785769E-2,-1.517042518E-2,4.066467285E-2,4.485871638E-2
2.939004860E0,1.615840569E-2,-1.044477522E-2,5.024051666E-2,5.379867023E-2
2.949004860E0,-1.286836714E-2,9.432390332E-3,4.786205292E-2,5.045137233E-2
2.959005360E0,-3.262981772E-3,-2.463251352E-3,3.589153290E-2,3.612363203E-2
2.969005360E0,-5.511779338E-3,-7.366329432E-3,4.786014557E-2,4.873639353E-2
2.979005360E0,-6.971284747E-4,-1.688702404E-2,2.631378174E-2,3.127415352E-2
2.989005360E0,4.241902381E-3,1.232087612E-2,3.350543976E-2,3.595013515E-2
2.999005860E0,-1.009823568E-2,-1.156564057E-2,2.392864227E-2,2.843093960E-2
3.009005393E0,-1.945270039E-2,-3.973081708E-3,2.633094788E-2,3.297744300E-2
3.019005393E0,7.349733263E-3,8.282795548E-3,1.436328888E-2,1.813635434E-2
3.029004893E0,5.055259913E-3,1.547449827E-2,5.027770996E-2,5.284755310E-2
3.039004893E0,1.469880715E-2,1.180276275E-3,2.873039246E-2,3.229370580E-2
3.049004893E0,1.472431794E-2,1.236498356E-3,2.873134613E-2,3.230827630E-2
3.059004893E0,-1.422040910E-2,7.272511721E-4,3.351116180E-2,3.641080739E-2
3.069004893E0,9.732123464E-3,-1.187627017E-2,2.631473541E-2,3.046679045E-2
3.079004893E0,-6.765615195E-3,-1.661455631E-2,3.349781036E-2,3.799895169E-2
3.089004893E0,-2.091489732E-3,5.340591073E-3,3.350639343E-2,3.399374418E-2
3.099004893E0,-2.124186605E-3,1.719701290E-2,4.547500610E-2,4.866441823E-2
3.109004893E0,-2.037469298E-3,5.295127630E-3,3.589916229E-2,3.634473154E-2
3.119004426E0,-9.213415906E-3,-4.401013255E-3,5.265617371E-2,5.363700756E-2
3.129004426E0,3.983229399E-4,-1.384373009E-2,3.350543976E-2,3.625495852E-2
3.139004426E0,-1.150244474E-2,1.482027769E-2,2.632141113E-2,3.232280232E-2
3.149004892E0,-1.349388808E-2,9.750887752E-3,3.589057922E-2,3.956385351E-2
3.159004892E0,-1.119036227E-3,-1.447275281E-2,2.391242981E-2,2.797350738E-2
3.169004892E0,-8.217280731E-3,-9.634181857E-3,4.306793213E-2,4.489084473E-2
3.179004892E0,8.622955531E-3,4.742458463E-3,4.785537720E-2,4.885676413E-2
3.189004892E0,-3.261614591E-3,-2.548515797E-3,3.827667236E-2,3.849982740E-2
3.199004892E0,1.392978802E-2,-4.970371723E-3,3.588008881E-2,3.880881810E-2
3.209005392E0,6.701484323E-3,4.730179906E-3,5.743122101E-2,5.801404692E-2
3.219005392E0,9.123161435E-3,-9.559571743E-3,3.588390350E-2,3.823966549E-2
3.229004925E0,-5.210291594E-3,1.432028413E-2,1.672840118E-2,2.262867831E-2
3.239004458E0,1.395114511E-2,-7.169663906E-3,3.349018097E-2,3.698149202E-2
3.249004458E0,2.012547106E-3,-4.838123918E-3,3.348922729E-2,3.389669798E-2
3.259003958E0,-1.957414299E-2,-9.622171521E-3,4.785442352E-2,5.259067512E-2
3.269003958E0,-2.778671682E-3,1.188305020E-2,1.912212372E-2,2.268443330E-2
3.279003958E0,2.016119659E-3,2.186939120E-3,2.869606018E-2,2.884980608E-2
3.289003958E0,-5.133923143E-3,1.409558952E-2,3.348445892E-2,3.669130415E-2
3.299003458E0,2.129215747E-3,-1.462469995E-2,3.827285767E-2,4.102715006E-2
3.309003458E0,7.004532963E-3,9.387359023E-3,2.151393890E-2,2.449562325E-2
3.319003458E0,-1.475121081E-2,1.753926277E-3,4.065895081E-2,4.328769754E-2
3.329003458E0,-4.374049604E-4,-1.254698634E-2,4.305553436E-2,4.484860342E-2
3.339003458E0,1.435726881E-2,1.392076910E-2,5.263328552E-2,5.630436684E-2
3.349003458E0,1.437967457E-2,9.149789810E-3,5.742168427E-2,5.989777557E-2
3.359003458E0,1.447016187E-2,9.080469608E-3,5.742073059E-2,5.990810308E-2
3.369003091E0,4.912752658E-3,-5.287259817E-3,2.868938446E-2,2.958328981E-2
3.378925806E0,-2.158768475E-4,-7.900908589E-3,2.389621735E-2,2.516942913E-2
3.388925806E0,-9.773291647E-3,-3.114446998E-3,1.671314240E-2,1.960984800E-2
3.398925806E0,4.627272487E-3,-3.157660365E-3,5.023384094E-2,5.054523959E-2
3.408925806E0,2.618234977E-2,1.126652956E-2,4.544544220E-2,5.364455559E-2
3.418925806E0,7.053937763E-3,-3.220483661E-3,3.347206116E-2,3.435852778E-2
3.428925806E0,-4.628077149E-4,-9.869635105E-4,2.389240265E-2,2.391725721E-2
3.438925806E0,-1.762370206E-2,3.746733069E-3,2.149868011E-2,2.805042121E-2
3.448925339E0,1.604076847E-2,3.493523598E-2,3.107643127E-2,4.943198910E-2
3.458925839E0,-1.052910089E-2,2.467337251E-2,4.542827606E-2,5.275761123E-2
3.468925839E0,-9.504891932E-4,1.181423664E-2,4.541110992E-2,4.693238244E-2
3.478925839E0,1.108194888E-2,-1.264828444E-2,1.906394958E-2,2.542091391E-2
3.488925839E0,-1.302092150E-2,-1.053929329E-3,4.778766632E-2,4.954105586E-2
3.498925839E0,-1.055162027E-2,-8.639276028E-3,5.735588074E-2,5.895482029E-2
3.508925339E0,-3.349870443E-3,3.329798579E-3,9.470939636E-3,1.058337792E-2
3.518925339E0,-7.647275925E-4,5.663782358E-3,2.383422852E-2,2.450986919E-2
3.528925339E0,2.349738404E-2,-1.160456240E-2,3.818988800E-2,4.631695662E-2
3.538925339E0,-5.219072104E-3,-4.462972283E-3,6.452560425E-2,6.488998720E-2
3.548925339E0,1.161901653E-2,-9.260013700E-3,5.734157562E-2,5.923517277E-2
3.558925339E0,1.562990248E-3,-4.162430763E-3,4.537868500E-2,4.559598470E-2
3.568925339E0,1.258756965E-3,-1.478582621E-3,3.341484070E-2,3.347121531E-2
3.578925339E0,-1.410957426E-3,1.325270534E-2,2.384471893E-2,2.731658142E-2
3.588925339E0,5.790408701E-3,3.673210740E-3,3.581619263E-2,3.646671036E-2
3.598925339E0,5.764130503E-3,6.011039019E-3,4.060363770E-2,4.144892260E-2
3.608925339E0,-1.098955423E-2,5.892008543E-3,2.862930298E-2,3.122696040E-2
3.618925339E0,5.763955414E-3,1.266099513E-2,5.256462097E-2,5.437428949E-2
3.628925339E0,9.087771177E-4,2.479612827E-3,4.776477814E-2,4.783772973E-2
3.638925339E0,8.766539395E-4,-7.212266326E-3,5.494499207E-2,5.542325740E-2
3.648925339E0,-4.003345966E-3,2.433896065E-3,3.818702698E-2,3.847336297E-2
3.658925339E0,-1.583592594E-2,4.419684410E-5,3.579235077E-2,3.913912208E-2
3.668925705E0,8.368991315E-3,-5.049407482E-3,3.339099884E-2,3.479217347E-2
3.678925705E0,8.401192725E-3,6.859079003E-3,3.339004517E-2,3.510729440E-2
3.688925705E0,1.304329559E-2,-1.512685418E-2,4.774665833E-2,5.175608813E-2
3.698925705E0,7.821340114E-3,-2.970099449E-3,2.141571045E-2,2.299190088E-2
3.708926138E0,1.503632218E-2,-3.032758832E-3,3.577995300E-2,3.892934173E-2
3.718926138E0,-1.908338256E-2,2.101503313E-2,3.817749023E-2,4.757444553E-2
3.728926138E0,-1.888610236E-2,2.101321518E-2,3.817749023E-2,4.749485062E-2
3.738926138E0,1.237807795E-2,1.863583922E-3,4.057121277E-2,4.245836860E-2
3.748926138E0,-6.814919412E-3,-1.010346413E-2,-1.316070557E-4,1.218771654E-2
3.758925638E0,-1.643082872E-2,-1.488767564E-2,5.493736267E-2,5.924296444E-2
3.768925638E0,5.151093006E-3,2.594922483E-2,1.663112640E-2,3.124884628E-2
3.778925638E0,3.688521683E-4,1.625287533E-2,4.057121277E-2,4.370715404E-2
3.788925638E0,7.743109018E-3,6.260320544E-3,9.437561035E-3,1.371914388E-2
3.798925638E0,-1.818574965E-3,-1.532922685E-2,1.661872864E-2,2.268203149E-2
3.808925638E0,-1.872327179E-3,-8.633896708E-3,3.337001801E-2,3.451967386E-2
3.818925638E0,2.944443375E-3,-1.574082673E-2,3.576564789E-2,3.918705069E-2
3.828925638E0,-2.105076611E-2,3.478154540E-3,2.379512787E-2,3.195998159E-2
3.838925638E0,1.770920679E-2,3.626495600E-3,2.858448029E-2,3.382070355E-2
3.848925638E0,1.302046329E-2,1.241117716E-3,4.295158386E-2,4.489890192E-2
3.858925638E0,1.063282788E-2,1.299485564E-3,4.055786133E-2,4.194860912E-2
3.868925638E0,-1.851558685E-3,-8.458197117E-3,4.773902893E-2,4.851787558E-2
3.878925638E0,-1.774001867E-3,-1.283824444E-3,1.661205292E-2,1.675576289E-2
3.888925638E0,1.986786723E-2,-8.516266942E-3,2.858257294E-2,3.583604926E-2
3.898925638E0,-1.161142066E-2,-8.319839835E-3,3.098297119E-2,3.411728782E-2
3.908925638E0,4.855565727E-3,8.827120066E-3,3.577899933E-2,3.717030213E-2
3.918925638E0,1.672902703E-2,1.655027270E-3,3.577995300E-2,3.953232219E-2
3.928925638E0,4.266235977E-3,6.457850337E-3,2.381038666E-2,2.503675524E-2
3.938925638E0,9.132951498E-3,4.055097699E-3,2.620506287E-2,2.804567596E-2
3.948925638E0,-1.055375673E-2,-8.094698191E-3,4.056835175E-2,4.269305662E-2
3.958926138E0,6.227366626E-3,-5.683019757E-3,3.577995300E-2,3.675978571E-2
3.968926138E0,1.043128595E-2,3.958016634E-3,5.493736267E-2,5.605882125E-2
3.978926138E0,1.290586963E-2,-1.039659977E-2,2.620697021E-2,3.100735470E-2
3.988926138E0,9.899638593E-3,3.976583481E-3,6.212234497E-2,6.303175236E-2
3.998926138E0,-2.173533849E-2,-1.274743676E-2,5.254840851E-2,5.827741690E-2
4.008925704E0,1.892796904E-2,1.622349024E-3,4.536533356E-2,4.918245131E-2
4.018925704E0,-2.468895167E-3,2.808097005E-2,3.100204468E-2,4.190182689E-2
4.028925704E0,2.059735358E-3,-5.824774504E-3,2.381229401E-2,2.460072872E-2
4.038925704E0,-7.314238697E-3,1.414552331E-3,1.902484894E-2,2.043144447E-2
4.048925704E0,2.408061177E-3,3.871917725E-3,-1.296997070E-4,4.561504961E-3
4.058925704E0,-9.542059153E-3,-1.287074387E-2,2.620792389E-2,3.071745783E-2
4.068925704E0,2.442024648E-3,-5.748659372E-3,2.620697021E-2,2.694096986E-2
4.078925704E0,1.198060438E-2,3.655150533E-3,5.014610291E-2,5.168681305E-2
4.088925704E0,1.428798214E-2,2.273982763E-2,4.296207428E-2,5.066543221E-2
4.098925704E0,-5.261790007E-3,-3.968134522E-3,5.971717834E-2,6.007972965E-2
4.108925704E0,1.947496086E-3,1.045404375E-2,4.056262970E-2,4.193336023E-2
4.118925704E0,-1.233115979E-2,-1.599107683E-2,4.056072235E-2,4.530942769E-2
4.128925704E0,-9.910792112E-3,-1.114609838E-2,1.901340485E-2,2.416544792E-2
4.138925704E0,-5.103126168E-3,3.217294812E-3,4.056167603E-2,4.100783394E-2
4.148925704E0,-2.576738596E-3,-6.236076355E-3,4.535198212E-2,4.585117787E-2
4.158925704E0,7.027398795E-3,-1.371800900E-3,3.338336945E-2,3.414257646E-2
4.168925704E0,-7.079169154E-5,-8.504793048E-3,4.774856567E-2,4.850012413E-2
4.178925704E0,2.658240497E-3,-1.497450471E-2,3.818416595E-2,4.110149101E-2
4.188925704E0,-2.119826712E-2,-2.669882774E-2,6.692028046E-2,7.510338120E-2
4.198925704E0,-1.594084501E-2,-1.387134194E-2,5.017566681E-2,5.444375269E-2
4.208926204E0,-8.392799646E-3,1.070228219E-2,4.300403595E-2,4.510349252E-2
4.218926204E0,-3.472995013E-3,1.579196751E-2,5.976963043E-2,6.191814479E-2
4.228926204E0,2.068232745E-2,2.328708768E-2,4.780387878E-2,5.705486787E-2
4.238926204E0,8.894797415E-3,6.408378482E-3,5.498313904E-2,5.606541103E-2
4.248926204E0,-7.717981935E-3,2.085657418E-2,2.385807037E-2,3.261550940E-2
4.258925704E0,1.403659955E-2,9.497766942E-2,3.343296051E-2,1.016638907E-1
4.268925704E0,8.103574067E-2,6.940189004E-2,1.579036713E-1,1.905701525E-1
4.278925704E0,4.399034008E-2,1.024843752E-2,1.243543625E-1,1.323033936E-1
4.288925704E0,-4.599194974E-2,2.045965195E-2,2.376461029E-2,5.566519110E-2
4.298925704E0,-4.206652194E-2,-1.340007484E-1,-1.223058701E-1,1.862378015E-1
4.308925704E0,-9.725371003E-2,-1.620281041E-1,-1.222915649E-1,2.250924643E-1
4.318925704E0,-1.049463004E-1,-1.563086510E-1,-1.268386841E-4,1.882714435E-1
4.328925704E0,-2.526021376E-2,-1.247033477E-2,-1.440334320E-2,3.163927850E-2
4.338925704E0,3.709536046E-2,7.231034338E-2,9.600639343E-3,8.183534569E-2
4.348925704E0,5.986631289E-2,9.751945734E-2,1.317300797E-1,1.744902114E-1
4.358925704E0,6.693539023E-2,7.362848520E-2,5.032730103E-2,1.115093607E-1
4.368925704E0,2.040122077E-2,-3.312480450E-2,5.748367310E-2,6.941062710E-2
4.378925704E0,-2.346965298E-2,-7.184141874E-2,2.156448364E-2,7.859415381E-2
4.388925704E0,-3.589675203E-2,-7.592889667E-2,-2.151775360E-2,8.669941104E-2
4.398925704E0,-4.031436145E-2,-4.801474512E-2,1.442813873E-2,6.433377554E-2
4.408925704E0,-1.304337382E-2,4.519313574E-2,4.080867767E-2,6.227276525E-2
4.418925704E0,1.878252067E-2,7.455784082E-2,2.511024475E-3,7.692827799E-2
4.428925704E0,4.549828172E-2,1.659983397E-2,3.123092651E-2,5.762828210E-2
4.438925704E0,4.764103144E-2,-3.039956093E-3,3.361606598E-2,5.838620644E-2
4.448925704E0,-6.133070216E-3,-5.381110311E-2,6.233978271E-2,8.258025113E-2
4.458925770E0,-9.097229689E-3,-3.888958693E-2,2.404499054E-2,4.661889241E-2
4.468925770E0,-2.624181099E-2,7.590666413E-3,7.307052612E-3,2.827797515E-2
4.478925770E0,-1.882140711E-2,4.165671766E-2,5.999183655E-2,7.542246313E-2
4.488925770E0,1.471753046E-2,3.926020861E-2,2.886581421E-2,5.090387915E-2
4.498925770E0,2.916178852E-2,2.142608166E-2,8.391189575E-2,9.138212699E-2
4.508925270E0,3.125217557E-2,-1.546077430E-2,4.797840118E-2,5.930987270E-2
4.518925270E0,6.623852998E-3,-3.032341599E-2,7.267951965E-3,3.187801926E-2
4.528925270E0,-5.847066641E-3,-2.540169656E-2,4.318618774E-2,5.044285072E-2
4.538925270E0,-1.099601388E-2,-1.036517322E-2,2.644157410E-2,3.045498281E-2
4.548925270E0,-1.350210607E-2,2.136436105E-2,2.645492554E-2,3.658696320E-2
4.558925270E0,-1.575865597E-2,2.633489668E-2,4.561138153E-2,5.497508660E-2
4.568925270E0,1.336846873E-2,1.641833782E-2,5.996894836E-2,6.359679663E-2
4.578925270E0,2.547828853E-2,1.349556446E-2,5.038070679E-2,5.804730022E-2
4.588925270E0,1.064631715E-2,-1.367796957E-2,2.402782440E-2,2.962713733E-2
4.598925270E0,1.027005911E-2,-1.883962750E-2,4.867553711E-3,2.200224438E-2
4.608925270E0,-1.645573229E-2,2.770781517E-3,3.120708466E-2,3.538856437E-2
4.618925270E0,-1.889489032E-2,1.965427399E-2,3.839206696E-2,4.708777093E-2
4.628925270E0,-1.147948578E-2,7.282659411E-3,4.796028137E-2,4.984981756E-2
4.638925270E0,-1.146707684E-2,-4.571855068E-3,4.556846619E-2,4.721102435E-2
4.648925270E0,-2.340412140E-2,-4.615202546E-3,5.514431000E-2,6.008284213E-2
4.658925270E0,1.298993826E-2,-1.909279823E-2,3.598690033E-2,4.275898076E-2
4.668925270E0,1.067472994E-2,-2.321988344E-3,2.880287170E-2,3.080498186E-2
4.678925270E0,2.034202591E-2,2.574831247E-3,1.204490662E-2,2.378040263E-2
4.688925270E0,-1.070963964E-2,2.168153226E-2,4.077529907E-2,4.740685854E-2
4.698925270E0,1.822600141E-2,4.978299141E-3,1.922798157E-2,2.695711158E-2
4.708925770E0,-3.757007420E-3,2.217367291E-3,4.795265198E-2,4.815068695E-2
4.718925770E0,8.074153215E-3,1.838296652E-3,3.836822510E-2,3.925164942E-2
4.728925770E0,-1.857966185E-3,-1.767177880E-2,4.554367065E-2,4.888731677E-2
4.738925770E0,-6.939630955E-3,-2.225081623E-2,3.597259521E-2,4.286356153E-2
4.748925770E0,-2.025369555E-3,1.612283289E-2,3.357982635E-2,3.730486028E-2
4.758925703E0,4.657879472E-4,1.371772587E-2,2.639675140E-2,2.975199903E-2
4.768925703E0,3.005482256E-3,1.564233005E-2,3.596305847E-2,3.933264532E-2
4.778925703E0,5.342330784E-3,1.032744348E-2,4.074096680E-2,4.236771132E-2
4.788925703E0,7.641725242E-3,-1.172377169E-2,3.833770752E-2,4.081203995E-2
4.798925703E0,-1.899150945E-2,-9.514018893E-3,4.072856903E-2,4.593484867E-2
4.808925703E0,-2.033293247E-3,-4.530191422E-3,1.678848267E-2,1.750742888E-2
4.818925703E0,-1.114922389E-2,-1.386193931E-2,5.031299591E-2,5.336530814E-2
4.828925703E0,2.256667241E-2,5.018115044E-4,4.073429108E-2,4.657025862E-2
4.838925703E0,5.641870201E-3,1.037323475E-2,3.834724426E-2,4.012413041E-2
4.848925703E0,-1.527663320E-3,7.355660200E-4,3.355693817E-2,3.359974571E-2
4.858925703E0,1.047927514E-2,5.480870605E-3,4.552745819E-2,4.703833117E-2
4.868925703E0,-1.479398459E-3,-2.091687918E-2,3.594875336E-2,4.161751221E-2
4.878925703E0,-4.176754504E-3,5.906835198E-3,3.595924377E-2,3.667973818E-2
4.888925703E0,5.794018507E-4,-1.079028845E-2,4.074954987E-2,4.215793929E-2
4.898925703E0,-1.609439775E-2,1.561608911E-2,1.920318604E-2,2.952379095E-2
4.908925703E0,-4.103921354E-3,6.036743522E-3,1.920318604E-2,2.054377757E-2
4.918925703E0,-4.084225744E-3,6.034657359E-3,1.680755615E-2,1.831916846E-2
4.928925703E0,3.463387489E-3,-3.996610641E-3,4.074096680E-2,4.108277407E-2
4.938925703E0,1.784784719E-2,-1.426979899E-3,4.074382782E-2,4.450439783E-2
4.948925703E0,-1.798595674E-2,-2.535870671E-2,1.919555664E-2,3.653803554E-2
4.958926169E0,-1.049459726E-2,-5.725473166E-3,5.272388458E-2,5.406223839E-2
4.968926169E0,-1.230680943E-2,-4.875957966E-4,3.597164154E-2,3.802176091E-2
4.978926169E0,-2.415326238E-2,-7.605433464E-3,2.639484406E-2,3.657745883E-2
4.988926169E0,-9.276952595E-3,2.132743597E-3,3.358078003E-2,3.490385698E-2
4.998926169E0,8.203631267E-3,-1.931719482E-2,3.597354889E-2,4.164792674E-2
5.008925669E0,2.051179670E-2,-4.574030638E-3,5.034732819E-2,5.455739194E-2
5.018925669E0,1.502206549E-3,-2.116814256E-3,5.752944946E-2,5.758797689E-2
5.028925669E0,-3.338763490E-3,7.880210876E-3,4.556655884E-2,4.636330822E-2
5.038925669E0,3.856506199E-3,-6.546020508E-3,5.274868011E-2,5.329302279E-2
5.048925669E0,1.541947946E-3,-6.535142660E-3,5.514335632E-2,5.555065652E-2
5.058925669E0,-3.154717386E-3,-1.139265299E-2,9.651184082E-3,1.526073845E-2
5.068925669E0,4.060950130E-3,-2.048048377E-2,1.684284210E-2,2.682578725E-2
5.078925669E0,-7.160790265E-4,-6.766170263E-4,1.446247101E-2,1.449598729E-2
5.088925669E0,8.860686794E-3,1.404406130E-2,1.207542419E-2,2.053200667E-2
5.098925669E0,1.696096733E-3,1.404182613E-2,5.517292023E-2,5.695700792E-2
5.108925669E0,-1.502463035E-2,-9.905159473E-3,5.517292023E-2,5.803363531E-2
5.118925669E0,2.317404933E-2,-5.045309663E-3,4.080867767E-2,4.719999879E-2
5.128925669E0,1.368366741E-2,-1.872479916E-4,5.278110504E-2,5.452635019E-2
5.138925669E0,4.080219194E-3,4.545047879E-3,2.165508270E-2,2.249996124E-2
5.148925669E0,4.040822387E-3,4.549205303E-3,1.926040649E-2,2.019868245E-2
5.158925669E0,2.280773595E-2,-5.143269897E-3,3.362464905E-2,4.095440230E-2
5.168925669E0,-1.601455733E-2,-3.578662872E-4,2.644348145E-2,3.091685343E-2
5.178925669E0,3.172434866E-3,-1.478625834E-2,2.883625031E-2,3.256112882E-2
5.188925669E0,3.180209547E-3,-2.914533019E-3,4.559421539E-2,4.579782432E-2
5.198925669E0,3.147218376E-3,-1.003473997E-2,2.165317535E-2,2.407199603E-2
5.208926135E0,1.987290941E-2,-5.919039249E-4,2.165031433E-2,2.939419993E-2
5.218926135E0,7.500408217E-3,2.125675976E-2,3.362941742E-2,4.048510436E-2
5.228926135E0,2.253286541E-3,-5.176663399E-4,1.926040649E-2,1.939867359E-2
5.238926135E0,7.128557190E-3,1.946106553E-3,4.559803009E-2,4.619289996E-2
5.248926135E0,1.631771401E-2,-1.971772313E-2,5.038642883E-2,5.651414519E-2
5.258925668E0,-1.529093459E-2,-1.004846394E-2,7.291793823E-3,1.969656227E-2
5.268925668E0,-8.568173274E-3,-7.347539067E-3,1.927185059E-2,2.233392372E-2
5.278925668E0,1.301243529E-2,-9.804487228E-3,2.645397186E-2,3.106869919E-2
5.288925668E0,1.054357737E-3,-1.704788208E-2,4.321193695E-2,4.646518534E-2
5.298925668E0,-1.584758982E-2,-1.175072789E-2,3.364562988E-2,3.900325780E-2
5.308925668E0,-1.096712053E-2,-1.690581441E-3,3.365612030E-2,3.543825944E-2
5.318925668E0,-1.068751141E-2,1.305888593E-2,2.169227600E-2,2.748294453E-2
5.328925668E0,8.946686983E-3,3.725066781E-3,5.760860443E-2,5.841806771E-2
5.338925668E0,1.382864639E-2,-3.507375717E-3,7.197380066E-2,7.337411755E-2
5.348925668E0,1.132855937E-2,-2.272883058E-2,2.887439728E-2,3.845343697E-2
5.358925668E0,-1.971749961E-2,-8.352369070E-3,1.451015472E-2,2.586670544E-2
5.368925668E0,-5.365338176E-3,-2.469645441E-2,2.170181274E-2,3.331171551E-2
5.378925668E0,-9.853839874E-3,-1.915165782E-2,4.565906525E-2,5.048400139E-2
5.388925668E0,9.751141071E-3,1.764024794E-2,2.412796021E-2,3.143917243E-2
5.398925668E0,2.211779356E-4,1.328064501E-2,3.371429443E-2,3.623641954E-2
5.408925668E0,-2.141527832E-3,2.518899739E-2,2.892398834E-2,3.841443521E-2
5.418925668E0,-1.403538138E-2,3.632113338E-3,6.962585449E-2,7.111922238E-2
5.428925668E0,1.004739292E-2,3.833666444E-3,2.892780304E-2,3.086202993E-2
5.438925668E0,-4.173865542E-3,-3.441186249E-2,2.892780304E-2,4.514881197E-2
5.448925668E0,7.875692099E-3,1.107087731E-2,1.935100555E-2,2.364428613E-2
5.458926168E0,7.211025804E-4,2.072387934E-2,4.568958282E-2,5.017506495E-2
5.468926168E0,3.068041056E-3,1.311206818E-2,5.765151978E-2,5.920335244E-2
5.478926168E0,1.260573976E-2,1.072193682E-2,3.131484985E-2,3.541870163E-2
5.488926168E0,2.668395266E-2,-1.625439525E-2,3.609085083E-2,4.773665476E-2
5.498926168E0,-7.296796888E-3,2.654299140E-3,4.327011108E-2,4.396124500E-2
5.508925701E0,2.292323858E-3,1.993477345E-4,5.284595490E-2,5.289602477E-2
5.518925701E0,-2.474389970E-3,2.167671919E-4,4.961013794E-3,5.548085400E-3
5.528925701E0,4.740612581E-3,9.730994701E-3,1.932430267E-2,2.214936431E-2
5.538925701E0,1.410345733E-2,1.179341972E-2,1.453018188E-2,2.343327640E-2
5.548925701E0,-2.682365477E-3,2.610270679E-2,9.740829468E-3,2.798982217E-2
5.558925701E0,4.274919629E-3,-8.603781462E-4,4.324722290E-2,4.346650983E-2
5.568925701E0,4.022572190E-3,-8.548200130E-3,5.042076111E-2,5.129820624E-2
5.578925701E0,1.594169810E-2,-1.344938576E-2,9.716033936E-3,2.300923795E-2
5.588925701E0,-2.011716738E-2,8.035898209E-3,3.844642639E-2,4.412939820E-2
5.598925701E0,-9.570308030E-4,-6.271183491E-3,3.844738007E-2,3.896722577E-2
5.608925701E0,1.455735415E-3,8.092060685E-3,3.844738007E-2,3.931668406E-2
5.618925701E0,1.422178000E-3,5.582839251E-3,2.168464661E-2,2.243690226E-2
5.628925701E0,-1.039847732E-3,-1.401740313E-2,3.125286102E-2,3.426820970E-2
5.638925701E0,6.229095161E-3,-1.634234190E-2,3.364849091E-2,3.792221915E-2
5.648925701E0,6.190303713E-3,4.218965769E-4,3.125476837E-2,3.186468896E-2
5.658925701E0,-1.257032156E-3,7.890224457E-3,2.647304535E-2,2.765244839E-2
5.668925701E0,-6.092850119E-3,-1.133784652E-2,2.168273926E-2,2.521528838E-2
5.678925701E0,-3.618918359E-3,1.261594892E-2,1.335144043E-4,1.312541669E-2
5.688925701E0,-2.752907015E-2,5.370363593E-3,4.562377930E-2,5.355576296E-2
5.698925701E0,6.122883409E-3,-4.083007574E-3,2.168369293E-2,2.289854125E-2
5.708926201E0,-3.544740379E-3,2.991259098E-3,3.125858307E-2,3.160082010E-2
5.718926201E0,-2.272463217E-2,5.406886339E-4,5.041217804E-2,5.529999047E-2
5.728926201E0,4.097197205E-3,-1.629196107E-2,3.843784332E-2,4.194857351E-2
5.738926201E0,8.898440748E-3,2.801507711E-3,1.449298859E-2,1.723593373E-2
5.748926201E0,1.139252633E-2,2.196455002E-2,2.521514893E-3,2.487145253E-2
5.758925701E0,1.953631639E-3,-4.367992282E-3,4.082965851E-2,4.110908716E-2
5.768925701E0,-1.001114771E-2,-2.585792542E-2,1.688766479E-2,3.246611476E-2
5.778925701E0,2.046950161E-3,1.012571156E-2,2.886009216E-2,3.065330258E-2
5.788925701E0,6.987098604E-3,3.064498305E-3,5.520057678E-2,5.572534768E-2
5.798925701E0,2.336546779E-3,6.746202707E-4,5.759239197E-2,5.764371758E-2
5.808925701E0,4.750516266E-3,1.743246615E-2,1.688957214E-2,2.473289162E-2
5.818925701E0,-2.177549154E-2,4.988834262E-3,2.645874023E-2,3.462839057E-2
5.828925701E0,-2.208035439E-3,1.161377132E-2,2.644538879E-2,2.896745921E-2
5.838925701E0,-1.939157024E-3,-1.035884023E-2,3.840732574E-2,3.982698296E-2
5.848925701E0,2.994596958E-3,4.069909453E-3,3.840827942E-2,3.873922691E-2
5.858925701E0,1.497866400E-2,6.403476000E-3,4.558944702E-2,4.841242154E-2
5.868925701E0,1.027682796E-2,6.472975016E-3,3.122520447E-2,3.350411904E-2
5.878925701E0,1.718031242E-2,6.089001894E-3,1.924705505E-2,2.650826677E-2
5.888925701E0,2.514194697E-3,-1.317366958E-3,4.318618774E-2,4.327936509E-2
5.898925701E0,-1.693656109E-2,-1.365083456E-2,4.557228088E-2,5.049777392E-2
5.908925701E0,-1.504383981E-4,1.017068326E-2,1.923370361E-2,2.175777526E-2
5.918925701E0,2.204444259E-3,-1.616218686E-2,4.317665100E-2,4.615516277E-2
5.928925701E0,9.413063526E-3,5.264937878E-3,6.951141357E-2,7.034317275E-2
5.938925701E0,1.183491573E-2,1.012942195E-2,4.317569733E-2,4.590001371E-2
5.948925701E0,-1.758486032E-4,1.013357937E-2,2.402114868E-2,2.607174596E-2
5.958926167E0,-4.374608397E-5,-1.368543506E-2,4.317760468E-2,4.529457574E-2
5.968926167E0,-5.140259862E-3,-1.857863367E-2,1.923370361E-2,2.723092461E-2
5.978926167E0,-2.707988024E-4,-6.596103311E-3,1.683902740E-2,1.808686692E-2
5.988926167E0,1.391446963E-2,1.099601388E-3,1.924514771E-2,2.377387849E-2
5.998926167E0,-5.166411400E-3,1.051962376E-3,3.360939026E-2,3.402042835E-2
6.008925667E0,2.107694745E-3,1.534852386E-2,2.642536163E-2,3.063199796E-2
6.018925667E0,4.457380623E-3,-6.253957748E-3,2.642440796E-2,2.751780452E-2
6.028925667E0,-2.771887928E-3,-1.109683514E-2,3.121185303E-2,3.324158363E-2
6.038925667E0,1.402236521E-2,-8.745923638E-3,5.515384674E-2,5.757659869E-2
6.048925667E0,-3.267284483E-3,-5.958512425E-3,2.403736115E-2,2.497946655E-2
6.058925667E0,-7.862970233E-4,-1.067756116E-2,4.079818726E-2,4.217962374E-2
6.068925667E0,8.934803307E-3,1.356616616E-3,3.122234344E-2,3.250393590E-2
6.078925667E0,8.886229247E-3,-8.294284344E-3,2.643299103E-2,2.909404127E-2
6.088925667E0,2.054078877E-2,2.078732848E-2,5.277824402E-2,6.032893228E-2
6.098925667E0,1.518497989E-2,-7.901757956E-3,2.644348145E-2,3.150046196E-2
6.108925667E0,5.099058151E-3,-5.471497774E-3,3.602313995E-2,3.679136168E-2
6.118925667E0,1.924946904E-3,1.796618104E-3,2.645111084E-2,2.658184572E-2
6.128925667E0,-3.663338721E-3,-5.103349686E-4,5.039787292E-2,5.053341556E-2
6.138925667E0,1.079359651E-2,-5.367964506E-3,3.124237061E-2,3.348734820E-2
6.148925667E0,3.067892045E-3,6.701946259E-3,5.518913269E-2,5.567915600E-2
6.158925667E0,-2.240743488E-3,-5.425214767E-4,1.927566528E-2,1.941305059E-2
6.168925667E0,2.634819597E-3,4.137963057E-3,1.208877563E-2,1.304620669E-2
6.178925667E0,-2.593595535E-3,1.348671317E-2,3.124046326E-2,3.412601228E-2
6.188925667E0,1.185936481E-2,1.585021615E-3,3.603076935E-2,3.796542067E-2
6.198925667E0,-9.656909853E-3,-1.284351945E-2,3.842353821E-2,4.164829154E-2
6.208926167E0,-2.400713041E-2,-8.096024394E-3,3.842258453E-2,4.602372132E-2
6.218926167E0,-9.160488844E-5,-3.383085132E-3,5.039215088E-2,5.050566826E-2
6.228926167E0,-7.324788719E-3,-8.087381721E-3,4.321193695E-2,4.456825965E-2
6.238926167E0,-2.400767058E-3,1.344588399E-2,2.884483337E-2,3.191519843E-2
6.248926167E0,1.380443573E-4,1.350903511E-2,2.884578705E-2,3.185266890E-2
6.258925700E0,-4.396840930E-3,-3.633901477E-3,4.559612274E-2,4.595153816E-2
6.268925700E0,3.154780716E-3,-1.477196813E-3,4.319572449E-2,4.333595927E-2
6.278925700E0,3.123290837E-3,-8.774608374E-3,1.685619354E-2,1.925824391E-2
6.288925700E0,5.591481924E-3,-4.033520818E-3,4.798126221E-2,4.847407022E-2
6.298925700E0,7.953669876E-3,6.402283907E-4,4.079627991E-2,4.156930612E-2
6.308925700E0,7.972564548E-3,-1.133345068E-2,3.840255737E-2,4.082603707E-2
6.318925700E0,-6.660930812E-3,1.287494600E-2,3.840827942E-2,4.105274853E-2
6.328925700E0,-4.247557372E-3,3.295600414E-3,2.404212952E-2,2.463588272E-2
6.338925700E0,-6.620664150E-3,1.528441906E-2,4.319667816E-2,4.629686452E-2
6.348925700E0,-6.395019591E-3,7.642716169E-3,3.121471405E-2,3.276683932E-2
6.358925700E0,-1.332398504E-3,-1.207408309E-2,4.317378998E-2,4.485013834E-2
6.368925700E0,1.305260137E-2,-2.676591277E-3,1.204395294E-2,1.796082809E-2
6.378925700E0,-1.298207790E-3,-2.717837691E-3,4.316902161E-2,4.327396922E-2
6.388925700E0,-1.335609704E-2,6.789803505E-3,3.119659424E-2,3.460800849E-2
6.398925700E0,6.304454058E-3,-7.808908820E-3,3.597831726E-2,3.735190103E-2
6.408925700E0,-7.881857455E-4,1.863639057E-2,4.316329956E-2,4.702134323E-2
6.418925700E0,4.022188485E-3,-5.288928747E-3,5.992412567E-2,6.029138914E-2
6.428925700E0,-5.535215139E-3,-1.726238430E-2,3.358745575E-2,3.816733816E-2
6.438925700E0,1.673106104E-3,-4.461854696E-4,2.161693573E-2,2.168617707E-2
6.448925700E0,-5.548518151E-3,-1.480753720E-2,4.857063293E-3,1.654207591E-2
6.458926166E0,-7.921557873E-3,-1.239602268E-2,4.555892944E-2,4.787513456E-2
6.468926166E0,1.370390132E-2,-5.222007632E-3,3.358840942E-2,3.665034137E-2
6.478926166E0,2.098014206E-2,-4.830360413E-4,1.443195343E-2,2.546921601E-2
6.488926166E0,-5.734317005E-3,-1.451148093E-2,3.598880768E-2,3.922575364E-2
6.498926166E0,2.046763152E-2,-1.633849740E-2,2.881717682E-2,3.893969847E-2
6.508925666E0,2.006606385E-2,-1.568309963E-2,2.883338928E-2,3.847038952E-2
6.518925666E0,-6.468474865E-3,3.828167915E-3,5.039024353E-2,5.094774460E-2
6.528925666E0,-8.963290602E-3,-7.619246840E-3,3.364181519E-2,3.563937752E-2
6.538925666E0,-4.146810621E-3,-1.011539996E-2,2.885055542E-2,3.085242134E-2
6.548925666E0,7.199272513E-4,-1.012387872E-2,5.518722534E-2,5.611275306E-2
6.558925666E0,-1.581840217E-3,1.975342631E-3,4.082393646E-2,4.090229804E-2
6.568925666E0,1.526479051E-2,4.439130425E-3,4.561328888E-2,4.830415956E-2
6.578925666E0,-1.572837308E-2,6.779551506E-3,3.124713898E-2,3.563323915E-2
6.588925666E0,-3.324538469E-3,-7.416531444E-3,3.364276886E-2,3.461059652E-2
6.598925666E0,-1.760986820E-2,1.893152297E-2,5.040264130E-2,5.664747364E-2
6.608925666E0,1.928370446E-3,-1.486697793E-2,2.405834198E-2,2.834694806E-2
6.618925666E0,-1.188784093E-2,-3.445446491E-4,2.645397186E-2,2.900434623E-2
6.628925666E0,2.609610558E-3,4.389971495E-3,3.602886200E-2,3.638902051E-2
6.638926132E0,3.184800595E-2,-1.003104448E-2,5.039215088E-2,6.045069236E-2
6.648926132E0,2.806223929E-4,-2.740621567E-3,4.800224304E-2,4.808123431E-2
6.658926132E0,-2.080857754E-3,4.379481077E-3,3.602886200E-2,3.635366172E-2
6.668926132E0,2.257157117E-3,4.409030080E-3,1.448249817E-2,1.530611178E-2
6.678926132E0,9.511165321E-3,-4.466474056E-4,2.645206451E-2,2.811358171E-2
6.688926132E0,2.486646175E-3,-5.232706666E-3,5.039501190E-2,5.072693420E-2
6.698926132E0,7.354907691E-3,4.355251789E-3,2.405738831E-2,2.553078176E-2
6.708926632E0,7.309723645E-3,9.089648724E-3,1.687335968E-2,2.051253374E-2
6.718926632E0,-1.182477921E-2,1.387611032E-2,4.560470581E-2,4.911375605E-2
6.728926632E0,-6.619840860E-6,1.355746388E-2,2.644443512E-2,2.971721756E-2
6.738926632E0,2.406094223E-3,-2.475313842E-2,1.926136017E-2,3.145643252E-2
6.748926632E0,-2.928972244E-4,-3.467202187E-3,3.841209412E-2,3.856936938E-2
6.758926165E0,-5.007531494E-3,-8.303239942E-3,5.995845795E-2,6.073743363E-2
6.768926165E0,-1.215755567E-2,-3.577366471E-3,2.404212952E-2,2.717770598E-2
6.778926165E0,6.964553148E-3,8.279234171E-3,3.361797333E-2,3.531598575E-2
6.788926165E0,-2.539422363E-3,-6.134137511E-3,4.319381714E-2,4.370105431E-2
6.798926165E0,-1.694386080E-2,-3.735527396E-3,4.558753967E-2,4.877778549E-2
6.808926165E0,-7.346410304E-3,-8.526191115E-3,5.037689209E-2,5.161876535E-2
6.818926165E0,-1.455618069E-2,3.388762474E-3,3.600978851E-2,3.898808762E-2
6.828926165E0,-1.641107723E-2,-2.049453557E-2,5.755805969E-2,6.326357308E-2
6.838926165E0,9.164884686E-4,-8.497834206E-4,9.680747986E-3,9.761094434E-3
6.848926165E0,-1.062182337E-2,6.502807140E-3,3.601932526E-2,3.811169669E-2
6.858926165E0,-3.344565630E-4,-5.289703608E-3,2.883815765E-2,2.932118965E-2
6.868926165E0,2.363409847E-2,-5.411028862E-3,-4.684448242E-3,2.469400533E-2
6.878926165E0,2.598349378E-2,-3.248512745E-3,3.601360321E-2,4.452723212E-2
6.888926165E0,1.654382795E-3,1.137623191E-2,3.841495514E-2,4.009818466E-2
6.898926165E0,4.074402153E-3,-7.162690163E-4,5.038356781E-2,5.055311760E-2
6.908926165E0,-3.095924854E-3,-7.770657539E-4,3.122806549E-2,3.139077342E-2
6.918892831E0,-1.090210676E-2,-1.285775006E-2,1.925659180E-2,2.559285049E-2
6.928859964E0,2.030409873E-2,-8.235797286E-3,3.601264954E-2,4.215442692E-2
6.938826164E0,1.793530956E-2,-9.966939688E-4,3.361988068E-2,3.811777938E-2
6.948792830E0,5.924537778E-3,8.584544063E-3,4.798507690E-2,4.910562239E-2
6.958759496E0,5.944240838E-3,8.582457900E-3,4.798507690E-2,4.910763880E-2
6.968726162E0,2.027688920E-2,-1.050908864E-2,2.643871307E-2,3.493706812E-2
6.978692828E0,-6.552416831E-3,-5.351066589E-3,3.123664856E-2,3.236195750E-2
6.988659494E0,-1.127376035E-2,-2.885147929E-3,3.602600098E-2,3.785887607E-2
6.998626660E0,1.753725857E-2,1.149138808E-2,1.447772980E-2,2.547964086E-2
7.008592826E0,8.034221828E-4,1.394206285E-2,4.081535339E-2,4.313837823E-2
7.018559492E0,8.231177926E-4,1.393999159E-2,4.081439972E-2,4.313717785E-2
7.028526158E0,8.644424379E-4,-4.103630781E-4,3.842163086E-2,3.843354494E-2
7.038492824E0,-6.298687309E-3,1.981824636E-3,6.715297699E-2,6.747683609E-2
7.048459490E0,3.416616470E-3,-5.196556449E-3,4.320907593E-2,4.365434354E-2
7.058426156E0,-1.285113394E-3,-2.924741805E-2,4.081249237E-2,5.022671114E-2
7.068393289E0,5.969189107E-3,-1.477114856E-2,3.123760223E-2,3.506573601E-2
7.078359955E0,-1.804551668E-2,-4.771992564E-3,2.885246277E-2,3.436389374E-2
7.088326621E0,1.326672733E-3,5.353495479E-3,5.041217804E-2,5.071299310E-2
7.098293287E0,1.817940548E-2,-4.273355007E-3,2.886104584E-2,3.437604273E-2
7.108259953E0,8.334726095E-3,-3.829956055E-3,3.366088867E-2,3.488827380E-2
7.118226619E0,-1.792807691E-2,1.066598296E-2,4.563426971E-2,5.017634609E-2
7.128193285E0,-1.065873727E-2,-1.235932112E-3,3.127002716E-2,3.305980652E-2
7.138159951E0,-8.060114458E-3,6.003588438E-3,4.324150085E-2,4.439409775E-2
7.148126617E0,-1.509134844E-2,1.330803335E-2,2.887821198E-2,3.519664297E-2
7.158093283E0,-7.386194542E-3,6.028696895E-3,3.605747223E-2,3.729668028E-2
7.168059949E0,9.937494993E-3,-8.595809340E-3,9.713172913E-3,1.633975131E-2
7.178027082E0,5.125999451E-4,-1.291200519E-3,3.126335144E-2,3.129420235E-2
7.187993748E0,-1.866547391E-3,-1.073180139E-2,2.647781372E-2,2.863093047E-2
7.197960414E0,1.007248275E-2,-1.545774937E-2,3.605651855E-2,4.050270922E-2
7.207927080E0,-4.267729819E-3,1.093572378E-2,3.605747223E-2,3.792024362E-2
7.217927080E0,-1.793086529E-3,8.552268147E-3,3.605747223E-2,3.710118264E-2
7.227926613E0,7.921349257E-3,-8.203193545E-3,3.605747223E-2,3.781774004E-2
7.237926613E0,-4.024539143E-3,3.824457526E-3,3.126907349E-2,3.175812254E-2
7.247926613E0,5.684051663E-3,-3.234803677E-3,4.084873199E-2,4.136896547E-2
7.257926613E0,1.774819009E-2,1.826409996E-2,3.127098083E-2,4.032926780E-2
7.267926613E0,1.750267297E-2,-1.550555229E-2,3.366088867E-2,4.098562113E-2
7.277926613E0,-1.616902649E-3,1.096586883E-2,5.042362213E-2,5.162757327E-2
7.287926613E0,7.458996028E-3,-2.760310471E-2,5.281352997E-2,6.005694763E-2
7.297926113E0,4.548065364E-3,-8.116438985E-3,3.127384186E-2,3.262843338E-2
7.307926113E0,4.144322127E-3,1.610705256E-2,2.170467377E-2,2.734420252E-2
7.317926579E0,-6.159991026E-4,6.605848670E-3,4.086017609E-2,4.139529782E-2
7.327926579E0,-1.016030088E-2,-7.822498679E-3,5.043506622E-2,5.203959170E-2
7.337926579E0,1.618210226E-2,6.601378322E-3,2.170562744E-2,2.786705747E-2
7.347926579E0,-3.331236541E-3,3.989890218E-3,6.240367889E-2,6.261976925E-2
7.357926579E0,1.106197387E-2,-5.511283875E-3,1.930809021E-2,2.292474348E-2
7.367926112E0,-8.073130623E-3,-1.509062946E-2,3.606796265E-2,3.992243060E-2
7.377926112E0,8.357729763E-3,2.080261707E-3,3.129005432E-2,3.245376149E-2
7.387926112E0,6.054740399E-3,4.405438900E-3,4.325962067E-2,4.390287637E-2
7.397926112E0,1.092361286E-2,1.399356127E-2,3.607654572E-2,4.020773838E-2
7.407926112E0,5.647681653E-3,2.326858044E-2,1.452350616E-2,2.800455989E-2
7.417926112E0,2.992205322E-3,2.765193582E-2,3.606414795E-2,4.554344755E-2
7.427926578E0,5.183532834E-3,-1.668930054E-3,6.717872620E-2,6.739907710E-2
7.437926578E0,2.505939454E-3,-2.269297838E-3,2.885818481E-2,2.905553779E-2
7.447926578E0,-4.599306732E-3,1.208770275E-2,1.688575745E-2,2.126957886E-2
7.457926578E0,4.662707448E-3,-2.232494950E-2,4.799461365E-2,5.313781281E-2
7.467926578E0,-1.206593588E-2,-1.023900509E-2,1.447677612E-2,2.144763579E-2
7.477926111E0,2.379231155E-3,-7.833912969E-3,1.687049866E-2,1.875219076E-2
7.487926111E0,-7.112689316E-3,-1.017801464E-2,5.278491974E-2,5.422573267E-2
7.497926111E0,2.414469048E-2,-6.549209356E-4,2.165889740E-2,3.244230011E-2
7.507926111E0,-6.835680455E-3,4.196763039E-3,4.560184479E-2,4.630191784E-2
7.517926111E0,-6.749574095E-3,4.266113043E-3,4.560279846E-2,4.629656249E-2
7.527926111E0,1.120455563E-4,4.755064845E-3,3.843116760E-2,3.872438301E-2
7.537926111E0,2.592425793E-3,7.218673825E-3,1.209545135E-2,1.432235549E-2
7.547926111E0,2.307444811E-4,-2.691149712E-5,4.561328888E-2,4.561388045E-2
7.557926111E0,-4.610296339E-3,-9.539246559E-3,3.603839874E-2,3.756352275E-2
7.567926577E0,2.064742148E-4,-4.674762487E-3,2.406883240E-2,2.451947652E-2
7.577926577E0,1.221064106E-2,-4.737481475E-3,2.885532379E-2,3.168869194E-2
7.587926577E0,1.462335140E-2,7.231697440E-3,6.476974487E-2,6.679266206E-2
7.597926577E0,1.936032996E-2,-1.203514636E-2,2.885341644E-2,3.677209219E-2
7.607926577E0,-2.214435488E-3,1.663969457E-2,3.843021393E-2,4.193643407E-2
7.617926110E0,-2.695247531E-4,4.520237446E-3,3.842830658E-2,3.869418479E-2
7.627926110E0,4.545230418E-3,-1.236091554E-2,2.166652679E-2,2.535527038E-2
7.637926110E0,-3.661204502E-2,-5.187511444E-3,7.301330566E-3,3.769166411E-2
7.647926110E0,-5.029659718E-3,1.896184683E-2,5.519008636E-2,5.857298648E-2
7.657926110E0,-7.023174316E-3,6.690248847E-3,3.602790833E-2,3.731078377E-2
7.667926110E0,-2.154257149E-3,1.867242157E-2,1.447963715E-2,2.372677903E-2
7.677926576E0,-6.916403770E-3,4.185616970E-3,1.687049866E-2,1.870747860E-2
7.687926576E0,1.504076645E-2,-1.095443964E-2,4.319095612E-2,4.702853488E-2
7.697926576E0,3.089088947E-3,-2.053360641E-2,5.037403107E-2,5.448591074E-2
7.707926576E0,7.904380560E-3,1.071259379E-3,2.882480621E-2,2.990813070E-2
7.717926576E0,-1.839830913E-2,-1.094348729E-2,9.670257568E-3,2.348981852E-2
7.727926109E0,5.622621626E-3,-6.163418293E-3,4.079532623E-2,4.163964747E-2
7.737926109E0,8.148651570E-3,1.054270566E-2,5.037117004E-2,5.210378044E-2
7.747926109E0,-6.255790591E-3,9.699463844E-4,4.079341888E-2,4.128169977E-2
7.757926109E0,-2.052222565E-2,8.161455393E-3,4.079341888E-2,4.638829727E-2
7.767926109E0,6.378568709E-3,1.508545876E-2,1.923847198E-2,2.526610395E-2
7.777926609E0,-3.170911223E-3,-2.075290680E-2,3.121185303E-2,3.761539031E-2
7.787926609E0,6.373792887E-3,-2.069011331E-2,2.881813049E-2,3.604428761E-2
7.797926609E0,8.838109672E-3,6.112530828E-3,2.643394470E-2,2.853469201E-2
7.807926609E0,-1.747189648E-2,-1.296609640E-2,1.925277710E-2,2.905264616E-2
7.817927075E0,-4.056505859E-4,-5.323648453E-3,5.038642883E-2,5.066851089E-2
7.827927075E0,1.888795197E-2,-2.207879722E-2,5.038642883E-2,5.816373636E-2
7.837927075E0,-7.518963888E-3,1.427708566E-2,3.602981567E-2,3.947806493E-2
7.847927075E0,-2.708587795E-3,-7.253974676E-3,5.757904053E-2,5.809735368E-2
7.857927075E0,-3.543086350E-4,-6.714463234E-5,3.124237061E-2,3.124445173E-2
7.867926608E0,4.518821836E-3,-2.411410213E-3,1.208782196E-2,1.312821731E-2
7.877926608E0,-7.372843102E-3,2.393645048E-2,4.081916809E-2,4.789067718E-2
7.887926608E0,9.347487241E-3,-1.915638149E-2,3.842544556E-2,4.394152177E-2
7.897927108E0,9.372919798E-3,5.427002907E-5,9.695053101E-3,1.348512608E-2
7.907927108E0,-7.844654843E-3,4.991322756E-3,3.603649139E-2,3.721667132E-2
7.917927108E0,8.924309164E-3,-2.291053534E-3,4.800605774E-2,4.888224422E-2
7.927927574E0,-5.422849208E-3,4.889383912E-3,1.209163666E-2,1.412519188E-2
7.937927574E0,-1.041211560E-2,2.365119755E-2,1.926708221E-2,3.223370525E-2
7.947927574E0,8.702952415E-3,1.629513502E-2,4.560089111E-2,4.920075280E-2
7.957927574E0,8.712638170E-3,-1.528519392E-2,1.925373077E-2,2.608166724E-2
7.967927574E0,-5.555927753E-3,1.463979483E-3,6.474494934E-2,6.499938488E-2
7.977927107E0,1.648724079E-3,1.481398940E-3,2.164840698E-2,2.176157988E-2
7.987927107E0,-3.120128065E-3,-1.288634539E-2,2.404212952E-2,2.745572961E-2
7.997927107E0,1.680526882E-3,-1.294721663E-2,4.080104828E-2,4.283900244E-2
8.007927107E0,-1.265658438E-2,-1.077532768E-3,3.600978851E-2,3.818448735E-2
8.017927107E0,-1.263774559E-2,-1.079633832E-3,3.840446472E-2,4.044479118E-2
8.027927107E0,2.083631977E-2,-5.922496319E-3,2.643203735E-2,3.417427078E-2
8.037927107E0,2.099401876E-2,-3.525868058E-3,3.122043610E-2,3.778751380E-2
8.047927107E0,1.906432211E-3,3.728434443E-3,6.234645844E-2,6.248693133E-2
8.057927107E0,1.580191404E-2,-1.521649957E-2,5.038166046E-2,5.495046913E-2
8.067927573E0,8.350085467E-3,-2.998679876E-3,2.644538879E-2,2.789398854E-2
8.077927073E0,8.098147810E-4,-4.469156265E-4,1.208305359E-2,1.211840409E-2
8.087927073E0,-8.687568828E-3,6.746768951E-3,3.363227844E-2,3.538534862E-2
8.097927073E0,-1.110813394E-2,1.901760697E-3,2.644824982E-2,2.874921306E-2
8.107927073E0,-1.826454513E-2,4.174843431E-3,3.602218628E-2,4.060321207E-2
8.117926606E0,3.363441676E-3,6.579920650E-3,3.841781616E-2,3.912207426E-2
8.127926606E0,-3.748245537E-3,4.118740559E-3,2.404975891E-2,2.468611497E-2
8.137927106E0,1.789364591E-2,1.125197113E-2,2.404785156E-2,3.201700459E-2
8.147927106E0,-2.299063280E-2,8.463084698E-3,5.037784576E-2,5.601892844E-2
8.157927106E0,-1.062335446E-2,3.335148096E-3,5.276298523E-2,5.392505432E-2
8.167927106E0,4.214722663E-3,7.756277919E-3,2.881145477E-2,3.013343094E-2
8.177927572E0,-1.245303825E-2,-4.264816642E-3,3.599262238E-2,3.832408757E-2
8.187927572E0,-3.512576222E-5,-9.477153420E-3,5.274200439E-2,5.358672129E-2
8.197927072E0,5.290998146E-3,-1.919183135E-2,3.837299347E-2,4.322970830E-2
8.207927072E0,1.029688492E-2,1.008772850E-2,3.120040894E-2,3.436937042E-2
8.217927072E0,-1.580471173E-3,-1.933097839E-3,3.838157654E-2,3.846271147E-2
8.227926605E0,1.279848255E-2,-1.635929942E-2,2.640914917E-2,3.359867547E-2
8.237926605E0,1.015163772E-2,8.028447628E-4,2.641868591E-2,2.831337623E-2
8.247926605E0,-6.523985416E-3,-1.608482003E-2,3.599262238E-2,3.995938797E-2
8.257926605E0,-6.798034534E-3,-2.013313770E-2,5.037498474E-2,5.467353651E-2
8.267926605E0,-6.827099249E-3,-5.133107305E-3,2.405071259E-2,2.552243818E-2
8.277893271E0,4.539508373E-4,7.379829884E-3,4.561042786E-2,4.620583394E-2
8.287860404E0,4.294775426E-4,-1.901321113E-2,4.082012177E-2,4.503297669E-2
8.297827070E0,2.935092896E-3,5.410462618E-3,2.646541595E-2,2.717178900E-2
8.307793736E0,-1.766899601E-3,5.479723215E-3,3.843784332E-2,3.886665795E-2
8.317760402E0,1.257240586E-2,1.021201909E-2,3.125381470E-2,3.520158599E-2
8.327727068E0,5.343798548E-3,-4.207983613E-3,4.082965851E-2,4.139232203E-2
8.337693734E0,-2.097991854E-2,-1.145137846E-2,1.449108124E-2,2.795143084E-2
8.347660400E0,7.134731859E-4,-6.777435541E-3,3.603649139E-2,3.667521491E-2
8.357627066E0,-6.443265826E-3,-4.326775670E-3,2.646160126E-2,2.757631236E-2
8.367593266E0,-1.568617299E-3,1.250253618E-2,4.082775116E-2,4.272796784E-2
8.377559932E0,-8.673859760E-3,1.249390841E-2,2.885532379E-2,3.261845032E-2
8.387526598E0,5.712758750E-3,5.328521132E-3,1.688480377E-2,1.860444432E-2
8.397493531E0,9.500123560E-4,-6.764233112E-3,3.843116760E-2,3.903347302E-2
8.407460197E0,-1.484315842E-3,2.197125554E-2,1.688194275E-2,2.774777927E-2
8.417426863E0,-1.104805246E-2,-1.400361955E-2,4.082393646E-2,4.455058487E-2
8.427393529E0,-1.101983525E-2,-1.392769814E-2,4.082489014E-2,4.452066036E-2
8.437359695E0,9.705778211E-4,1.480157673E-2,3.843116760E-2,4.119445762E-2
8.447326361E0,-1.136783510E-3,-9.685754776E-6,3.602600098E-2,3.604393315E-2
8.457293027E0,6.071854383E-3,-1.449666917E-2,3.602409363E-2,3.930338604E-2
8.467259693E0,-1.073325053E-2,-1.455081999E-2,3.362941742E-2,3.818202123E-2
8.477225893E0,-8.365264162E-3,1.172970235E-2,2.644538879E-2,3.011514819E-2
8.487192559E0,1.553149894E-2,-1.466168463E-2,4.559707642E-2,5.035162195E-2
8.497159225E0,-1.209381968E-3,-5.086615682E-3,4.080867767E-2,4.114224638E-2
8.507125891E0,-1.221105456E-3,1.979306340E-3,5.277824402E-2,5.282945953E-2
8.517092557E0,1.080191694E-2,4.308789968E-3,5.038261414E-2,5.170739684E-2
8.527059223E0,1.080429554E-2,-7.643252611E-3,5.756568909E-2,5.906742480E-2
8.537026356E0,1.159736887E-3,6.650909781E-3,2.165031433E-2,2.267852952E-2
8.546993022E0,7.927877828E-3,-1.728639007E-2,4.080581665E-2,4.501983120E-2
8.556959688E0,-9.101195261E-3,-2.496659756E-3,4.560375214E-2,4.657002549E-2
8.566926354E0,-4.258945584E-3,2.977252007E-5,3.363513947E-2,3.390371824E-2
8.576926354E0,-6.469035521E-3,2.482920885E-3,4.904747009E-3,8.489396911E-3
8.586925887E0,5.608543754E-3,4.944577813E-3,3.124237061E-2,3.212460636E-2
8.596925887E0,-1.587135717E-3,-6.966322660E-3,3.363895416E-2,3.438935720E-2
8.606925887E0,-1.827904582E-2,2.883523703E-4,4.800510406E-2,5.136824583E-2
8.616925887E0,-1.596589200E-2,-4.511445761E-3,1.687908173E-2,2.366783155E-2
8.626925887E0,1.497894526E-3,-1.996666193E-3,2.166938782E-2,2.181267366E-2
8.636925887E0,1.939389855E-3,2.680468559E-2,2.645778656E-2,3.771295364E-2
8.646926153E0,2.065088600E-3,2.686993778E-2,2.645874023E-2,3.776669276E-2
8.656926153E0,2.133280039E-3,-9.505316615E-3,4.081439972E-2,4.196090028E-2
8.666926153E0,-1.210765913E-2,2.592204511E-2,2.494812012E-3,2.871884258E-2
8.676926153E0,1.678718440E-2,-5.694821477E-3,1.924419403E-2,2.616447125E-2
8.686926153E0,2.480274066E-3,-1.527847350E-2,3.361034393E-2,3.700322596E-2
8.696925886E0,2.521799877E-3,-5.686044693E-3,4.318714142E-2,4.363278312E-2
8.706925886E0,-2.208715305E-3,6.279066205E-3,3.600406647E-2,3.661417619E-2
8.716925886E0,2.625145018E-3,1.367077231E-3,3.360748291E-2,3.373756355E-2
8.726925886E0,2.916865051E-4,3.774479032E-3,2.881813049E-2,2.906572583E-2
8.736925886E0,-2.050686628E-3,1.315265894E-3,3.599929810E-2,3.608163942E-2
8.746925886E0,4.038047045E-4,8.511111140E-3,5.994319916E-2,6.054576118E-2
8.756925886E0,-4.454551265E-3,8.045524359E-3,4.317283630E-2,4.414144633E-2
8.766925886E0,-2.127336338E-2,3.263279796E-3,1.204681396E-2,2.466436116E-2
8.776925886E0,-1.833792590E-2,-1.998335123E-3,2.879619598E-2,3.419786211E-2
8.786926352E0,3.241240978E-2,-4.601776600E-3,3.357982635E-2,4.689717895E-2
8.796926352E0,-5.902908742E-3,5.094364285E-3,3.358268738E-2,3.447598832E-2
8.806926352E0,-3.515422344E-3,7.430061698E-3,3.358078003E-2,3.457213905E-2
8.816926352E0,3.808077425E-3,-7.444351912E-3,4.793548584E-2,4.865933242E-2
8.826926352E0,8.570361882E-3,-5.461663008E-3,4.553222656E-2,4.665259394E-2
8.836925885E0,8.564371616E-3,-5.520060658E-3,4.553031921E-2,4.665650543E-2
8.846925885E0,-3.954455256E-3,1.349653304E-2,3.834724426E-2,4.084489274E-2
8.856925885E0,1.532479562E-2,-2.474658191E-2,4.313659668E-2,5.203853044E-2
8.866925885E0,1.536611840E-2,-1.275990903E-2,1.440525055E-2,2.462608610E-2
8.876925885E0,-6.742680445E-3,4.297628999E-3,2.159690857E-2,2.302954221E-2
8.886925885E0,1.712807268E-2,-7.606849074E-3,2.159786224E-2,2.859550105E-2
8.896926151E0,7.669888437E-3,-1.238875091E-2,4.314613342E-2,4.554006112E-2
8.906926151E0,1.205253601E-2,7.026687264E-3,4.075813293E-2,4.307973257E-2
8.916926151E0,1.916037872E-3,1.193536818E-2,5.752182007E-2,5.877826128E-2
8.926926151E0,1.631963253E-2,-1.919454336E-2,2.879047394E-2,3.825770890E-2
8.936926151E0,-1.796768606E-2,-3.096388280E-2,2.161502838E-2,4.181876651E-2
8.946925884E0,1.056756265E-2,-6.289601326E-3,4.317855835E-2,4.489566089E-2
8.956925884E0,1.012660004E-2,-8.201822639E-3,4.558467865E-2,4.741076724E-2
8.966925884E0,-4.730639979E-3,1.151883602E-2,2.165603638E-2,2.498092171E-2
8.976925884E0,-1.426849328E-2,2.827435732E-2,4.799175262E-2,5.749989132E-2
8.986925884E0,9.667614475E-3,1.879006624E-3,5.517387390E-2,5.604596147E-2
8.996925884E0,4.872277379E-3,1.820400357E-3,3.841304779E-2,3.876358065E-2
9.006925884E0,2.543255687E-5,4.221126437E-3,3.841304779E-2,3.864428542E-2
9.016925884E0,-2.152902633E-2,-5.414381623E-3,3.122901917E-2,3.831535125E-2
9.026925884E0,9.658019990E-3,-6.127059460E-4,2.644062042E-2,2.815597924E-2
9.036926350E0,4.788959399E-3,1.613613963E-2,4.892349243E-3,1.752838314E-2
9.046926350E0,1.196772419E-2,1.130867004E-2,4.798793793E-2,5.073415641E-2
9.056926350E0,2.513794228E-3,-1.258845627E-2,4.320049286E-2,4.506740481E-2
9.066926350E0,1.080818474E-4,4.251703620E-3,3.362464905E-2,3.389256097E-2
9.076926350E0,1.661628485E-4,-1.730325818E-2,4.559516907E-2,4.876832780E-2
9.086925883E0,7.329097018E-3,2.100715041E-2,5.517292023E-2,5.949005932E-2
9.096925883E0,-7.097795606E-5,6.270945072E-3,3.840637207E-2,3.891502545E-2
9.106925883E0,-9.667772800E-3,1.106157899E-2,2.882862091E-2,3.235604649E-2
9.116925883E0,-9.675161913E-3,-1.293992996E-2,2.643394470E-2,3.098070332E-2
9.126925883E0,1.220495999E-2,5.822986364E-3,3.839588165E-2,4.070763990E-2
9.136925883E0,7.247941568E-3,1.255056262E-2,3.359889984E-2,3.659146553E-2
9.146926149E0,-4.829006270E-3,2.551078796E-3,2.640724182E-2,2.696608472E-2
9.156926149E0,-2.434533089E-3,-7.025986910E-3,4.556083679E-2,4.616363604E-2
9.166926149E0,-4.848053679E-3,2.553105354E-3,2.161884308E-2,2.230238435E-2
9.176926149E0,4.789210856E-3,2.566322684E-3,4.077243805E-2,4.113288535E-2
9.186926149E0,1.209159382E-2,4.967227578E-3,4.316711426E-2,4.510299041E-2
9.196925882E0,2.135518566E-2,-9.916558862E-3,2.879142761E-2,3.719312299E-2
9.206925882E0,-9.777173400E-3,4.390507936E-3,2.879047394E-2,3.072069448E-2
9.216892548E0,2.187419683E-3,-7.639467716E-3,2.400016785E-2,2.528150171E-2
9.226859214E0,1.415195689E-2,6.667762995E-3,3.118228912E-2,3.488656048E-2
9.236825880E0,-4.940580577E-3,1.892402768E-3,3.118228912E-2,3.162792563E-2
9.246792546E0,7.069984451E-3,-2.900347114E-3,4.315376282E-2,4.382515190E-2
9.256759712E0,4.808124155E-3,1.834377646E-3,1.681423187E-2,1.758412331E-2
9.266726378E0,9.583164006E-3,-2.893656492E-3,3.597068787E-2,3.733765748E-2
9.276693044E0,1.621969417E-2,1.954391599E-3,2.160835266E-2,2.708909430E-2
9.286659710E0,3.661837429E-3,-1.733300090E-2,3.597164154E-2,4.009739354E-2
9.296626843E0,1.278553158E-2,-1.235698164E-2,3.118896484E-2,3.590148104E-2
9.306593509E0,4.934500903E-3,2.397119999E-3,5.035400391E-2,5.065196139E-2
9.316560175E0,9.181015193E-3,-1.905284822E-2,4.556846619E-2,5.023730860E-2
9.326526841E0,-5.138859153E-3,1.212705672E-2,5.275249481E-2,5.437185933E-2
9.336493041E0,6.832115352E-3,-4.632979631E-3,3.599262238E-2,3.692710611E-2
9.346459707E0,-7.427643985E-3,1.201675832E-2,5.274963379E-2,5.460857296E-2
9.356426373E0,2.332448959E-3,4.892483354E-3,2.880859375E-2,2.931402029E-2
9.366393039E0,-1.192761585E-2,-1.180021465E-2,1.923179626E-2,2.552205072E-2
9.376359705E0,-9.465930983E-3,-6.939947605E-3,1.923274994E-2,2.253143121E-2
9.386326371E0,2.556495368E-3,-1.179344952E-2,4.796314240E-2,4.945790279E-2
9.396293504E0,-1.176139340E-2,-1.171986759E-2,1.923274994E-2,2.540835180E-2
9.406260170E0,-9.138638154E-3,1.029682159E-2,4.557895660E-2,4.761281894E-2
9.416226836E0,-4.367254674E-3,1.750130951E-2,4.557895660E-2,4.901846625E-2
9.426193502E0,-1.394415647E-2,3.135725856E-3,3.600215912E-2,3.873535514E-2
9.436160168E0,-1.067458838E-2,1.720865071E-2,3.120517731E-2,3.720010198E-2
9.446126568E0,1.617512107E-2,-1.428847015E-2,4.077243805E-2,4.613227314E-2
9.456093234E0,-9.709395468E-3,-3.380781412E-2,3.358078003E-2,4.863033460E-2
9.466059900E0,-2.036988735E-4,-7.403746247E-3,3.358268738E-2,3.438973456E-2
9.476026566E0,-2.241879702E-4,-7.401883602E-3,3.358268738E-2,3.438946107E-2
9.485993232E0,1.448964514E-2,2.650320530E-3,-4.717826843E-3,1.546712337E-2
9.495926565E0,9.725298733E-3,-4.121229053E-3,1.205158234E-2,1.602518646E-2
9.505859898E0,-2.329736948E-3,1.169532537E-3,5.037117004E-2,5.043857901E-2
9.515826564E0,-1.681531593E-2,-6.986409426E-4,3.362274170E-2,3.759962378E-2
9.525793230E0,-1.921557263E-2,8.820086718E-3,4.319858551E-2,4.809521755E-2
9.535759896E0,-9.234581143E-3,1.111119986E-2,5.516624451E-2,5.702675498E-2
9.545726562E0,2.242086641E-2,6.107315421E-3,4.318809509E-2,4.904290071E-2
9.555692728E0,-1.522887498E-3,8.501335979E-3,2.163982391E-2,2.329965405E-2
9.565659394E0,-3.784717992E-3,8.092358708E-3,2.402496338E-2,2.563219119E-2
9.575626060E0,-2.994434163E-2,3.304094076E-3,2.402400970E-2,3.853224203E-2
9.585592726E0,2.809729800E-2,-1.375572383E-2,2.162265778E-2,3.802916542E-2
9.595558926E0,1.611301303E-2,1.264196634E-2,2.162361145E-2,2.978303333E-2
9.605525592E0,-9.016133845E-4,1.708355546E-2,5.274200439E-2,5.544709011E-2
9.615492725E0,1.324994490E-3,-1.210279763E-2,4.315662384E-2,4.484113627E-2
9.625459391E0,3.819081932E-3,9.454607964E-3,3.118515015E-2,3.280988553E-2
9.635426057E0,-8.209936321E-3,2.278149128E-3,6.709957123E-2,6.763834324E-2
9.645392723E0,6.275022402E-3,-2.503603697E-3,4.555034637E-2,4.604864811E-2
9.655359389E0,1.605976373E-3,-1.446816325E-2,1.921367645E-2,2.410544069E-2
9.665326055E0,3.980956972E-3,7.082492113E-3,4.848480225E-3,9.461367419E-3
9.675292721E0,8.316123858E-3,-5.056574941E-3,5.991458893E-2,6.069995743E-2
9.685259387E0,-6.040761247E-3,-1.901835203E-4,2.160835266E-2,2.243764406E-2
9.695225587E0,-1.258201897E-3,-5.037114024E-3,3.357791901E-2,3.397693680E-2
9.705192253E0,-3.659306094E-3,4.481598735E-3,5.991363525E-2,6.019234949E-2
9.715158919E0,-1.079043187E-2,-1.473759115E-2,7.427692413E-2,7.648981286E-2
9.725126019E0,-3.566881642E-3,4.431739450E-3,3.357601166E-2,3.405453741E-2
9.735092685E0,1.558133028E-2,1.979097724E-3,2.399730682E-2,2.868040125E-2
9.745059351E0,1.074061170E-2,-5.316570401E-3,3.596591949E-2,3.791007815E-2
9.755026017E0,2.520973794E-2,-2.874523401E-3,2.399539948E-2,3.492238491E-2
9.764992683E0,5.633201450E-3,-2.431765199E-2,5.033683777E-2,5.618610498E-2
9.774959349E0,-1.893603802E-2,2.896785736E-5,2.640342712E-2,3.249177340E-2
9.784926015E0,2.608379349E-3,-2.404242754E-3,4.316234589E-2,4.330787606E-2
9.794926015E0,-1.165295579E-2,-2.356514335E-3,9.643554688E-3,1.530825546E-2
9.804926015E0,7.626937702E-3,-9.474068880E-3,3.598117828E-2,3.798122366E-2
9.814926015E0,5.332473665E-3,1.119375229E-4,4.795265198E-2,4.824836409E-2
9.824926015E0,1.251609251E-2,1.447780430E-2,2.640438080E-2,3.261059206E-2
9.834926015E0,7.668852806E-3,1.184791327E-4,4.555797577E-2,4.619907463E-2
9.844926015E0,4.798416048E-4,4.848584533E-3,3.119182587E-2,3.157006526E-2
9.854926015E0,-9.103445336E-3,1.436726749E-2,4.316234589E-2,4.639266315E-2
9.864926481E0,2.921769395E-3,-4.832416773E-3,2.879428864E-2,2.934280229E-2
9.874926481E0,-6.931470707E-3,6.774678826E-3,4.794311523E-2,4.891302340E-2
9.884926481E0,1.701820083E-2,1.867070794E-3,1.681423187E-2,2.399632277E-2
9.894926481E0,7.421208546E-3,4.263371229E-3,4.075717926E-2,4.164610824E-2
9.904926481E0,1.987770200E-3,-1.007318497E-3,4.793262482E-2,4.798439791E-2
9.914926014E0,-1.709250174E-2,-8.237600327E-3,4.553604126E-2,4.933095102E-2
9.924926014E0,-1.459881291E-2,-3.440231085E-3,3.595924377E-2,3.896187548E-2
9.934926014E0,-1.692866348E-2,-8.176639676E-3,4.314327240E-2,4.706143896E-2
9.944926014E0,9.388465434E-3,-1.775169373E-2,3.596019745E-2,4.118739751E-2
9.954926014E0,-1.421540231E-2,-1.974906027E-2,2.639007568E-2,3.589622736E-2
9.964926014E0,-8.880387992E-3,-7.107466459E-3,2.161502838E-2,2.442512686E-2
9.974926447E0,1.033402979E-2,-4.700198770E-3,3.837394714E-2,4.001804418E-2
9.984926447E0,7.939359173E-3,-7.094576955E-3,2.640247345E-2,2.846852737E-2
9.994926447E0,-1.602988876E-2,-1.380085945E-2,3.598976135E-2,4.174546655E-2
1.000492645E1,-8.568160236E-3,9.485185146E-4,6.472873688E-2,6.530024835E-2
1.001492688E1,-9.137857705E-4,6.257876754E-3,4.558372498E-2,4.602034342E-2
1.002492645E1,1.345146261E-2,1.344057918E-2,1.685237885E-2,2.540853573E-2
1.003492645E1,-8.169012144E-3,6.324648857E-3,1.445960999E-2,1.777116382E-2
1.004492645E1,-5.710262805E-3,-7.989004254E-3,5.995273590E-2,6.075164057E-2
1.005492645E1,1.395975426E-2,-7.966265082E-3,2.643108368E-2,3.093441939E-2
1.006492645E1,1.648032479E-2,4.070550203E-3,2.643203735E-2,3.141374035E-2
1.007492645E1,-1.937510632E-2,-7.907167077E-3,3.840255737E-2,4.373413368E-2
1.008492645E1,-1.807902008E-4,-1.507501304E-2,3.122043610E-2,3.466993414E-2
1.009492645E1,4.639754072E-3,2.155080438E-3,9.681701660E-3,1.095020715E-2
1.010492645E1,4.639349878E-3,-5.027845502E-3,3.122997284E-2,3.197051769E-2
1.011492691E1,-2.502754331E-3,-2.241581678E-4,3.601837158E-2,3.610591527E-2
1.012492691E1,1.431545429E-2,9.346500039E-3,3.601837158E-2,3.986994339E-2
1.013492691E1,2.097122371E-2,-2.567350864E-3,3.602123260E-2,4.176018095E-2
1.014492691E1,2.569535188E-2,-2.619549632E-3,5.038642883E-2,5.662071493E-2
1.015492691E1,5.997585133E-3,-1.211753488E-2,3.363037109E-2,3.624648312E-2
1.016492644E1,-1.851981133E-2,4.803642631E-3,6.236553192E-2,6.523433119E-2
1.017492644E1,2.627948299E-3,-2.256438136E-3,2.645587921E-2,2.668166356E-2
1.018492644E1,2.171109430E-2,2.726912498E-5,1.208782196E-2,2.484930179E-2
1.019492644E1,7.397744805E-3,9.539559484E-3,2.645206451E-2,2.907647744E-2
1.020492644E1,-4.996221513E-3,1.186145842E-2,4.800033569E-2,4.969596213E-2
1.021492645E1,1.188361086E-2,-9.680107236E-3,4.800033569E-2,5.038806317E-2
1.022492688E1,1.902747899E-3,-9.773924947E-3,4.081630707E-2,4.201334289E-2
1.023492688E1,-1.486336440E-2,-2.649500966E-3,4.321002960E-2,4.577167372E-2
1.024492688E1,1.390925795E-2,2.154305577E-3,4.081535339E-2,4.317408438E-2
1.025492688E1,1.170649007E-2,4.488527775E-3,5.278491974E-2,5.425344729E-2
1.026492688E1,-5.073133856E-3,-2.979636192E-4,5.039119720E-2,5.064679877E-2
1.027492644E1,1.173849031E-2,-7.545769215E-3,4.081249237E-2,4.313224225E-2
1.028492644E1,-1.656748354E-4,4.497274756E-3,3.123664856E-2,3.155916890E-2
1.029492644E1,-7.235920057E-3,4.623159766E-3,2.645015717E-2,2.780904456E-2
1.030492644E1,4.274208099E-3,-1.238250732E-2,1.447486877E-2,1.952222243E-2
1.031492601E1,1.873146743E-3,-4.696995020E-4,4.559898376E-2,4.563985776E-2
1.032492601E1,-7.637148723E-3,6.784677505E-3,3.841876984E-2,3.975373901E-2
1.033492601E1,-2.789914608E-3,1.156687737E-2,2.884006500E-2,3.119816701E-2
1.034492601E1,-5.273148417E-4,1.144321263E-2,6.235790253E-2,6.340136579E-2
1.035492601E1,4.379283637E-3,2.102696896E-2,2.404975891E-2,3.224441738E-2
1.036492648E1,-7.720416412E-3,-1.158371568E-3,3.121948242E-2,3.218078211E-2
1.037492648E1,1.158211380E-2,-2.315698564E-2,3.360462189E-2,4.242242280E-2
1.038492648E1,3.992535174E-3,5.460947752E-3,2.402591705E-2,2.496010773E-2
1.039492648E1,6.373636425E-3,5.343839526E-3,2.881145477E-2,2.998799407E-2
1.040492648E1,-1.026099548E-2,-1.374518871E-2,5.754375458E-2,6.004583193E-2
1.041492601E1,1.133518293E-2,1.027134061E-2,5.036354065E-2,5.263528319E-2
1.042492601E1,8.999001235E-3,-4.100784659E-3,2.881336212E-2,3.046322857E-2
1.043492601E1,8.992478251E-3,7.989749312E-3,2.642250061E-2,2.903186693E-2
1.044492601E1,8.614066988E-3,1.016893983E-2,3.599548340E-2,3.838338589E-2
1.045492601E1,-1.434922218E-3,2.642899752E-3,5.035591125E-2,5.044563132E-2
1.046492601E1,-2.333623171E-2,-4.876181483E-3,4.556179047E-2,5.142211204E-2
1.047492644E1,-1.136232913E-2,1.190333068E-2,5.753326416E-2,5.984035670E-2
1.048492644E1,-8.987950161E-3,-1.443168521E-2,3.837966919E-2,4.197684830E-2
1.049492644E1,5.840960890E-3,9.420886636E-3,3.119373322E-2,3.310466615E-2
1.050492644E1,3.498595208E-3,-2.211481333E-4,1.922035217E-2,1.953742595E-2
1.051492644E1,-1.223664731E-3,6.855607033E-3,3.597736359E-2,3.664515512E-2
1.052492601E1,8.346308023E-3,-9.785309434E-3,1.203823090E-2,1.761624652E-2
1.053492601E1,3.609471023E-3,-1.703314483E-2,5.034446716E-2,5.327027011E-2
1.054492601E1,-2.518695965E-2,-7.507994771E-3,5.034351349E-2,5.679104042E-2
1.055492601E1,1.070727035E-2,-1.229451597E-2,4.794883728E-2,5.064476042E-2
1.056492601E1,-8.512193337E-3,6.807461381E-3,5.513095856E-2,5.619805653E-2
1.057492601E1,-8.459893987E-3,6.742671132E-3,5.513000488E-2,5.618141026E-2
1.058492601E1,8.175440133E-3,4.835397005E-3,2.401447296E-2,2.582467419E-2
1.059492601E1,7.460601628E-4,2.904190123E-2,3.838729858E-2,4.814118118E-2
1.060492601E1,1.763166860E-2,5.164429545E-3,4.078197479E-2,4.472936997E-2
1.061492607E1,2.440382540E-2,-1.671399176E-2,4.556465149E-2,5.432349105E-2
1.062492607E1,-2.646949142E-2,9.786561131E-3,3.599262238E-2,4.573707053E-2
1.063492607E1,-7.263928652E-3,-4.466459155E-3,5.515003204E-2,5.580537565E-2
1.064492607E1,7.169261575E-3,-1.414951682E-2,3.359889984E-2,3.715498901E-2
1.065492607E1,-9.610360488E-3,-4.570335150E-3,4.078102112E-2,4.214663303E-2
1.066492561E1,4.873998463E-3,-6.958007812E-3,4.078102112E-2,4.165646909E-2
1.067492561E1,2.524703741E-3,1.464459300E-2,5.754184723E-2,5.942981083E-2
1.068492561E1,2.561248839E-4,-1.162715256E-2,2.162933350E-2,2.455777564E-2
1.069492561E1,-1.890406199E-2,-1.407980919E-2,4.796504974E-2,5.344390127E-2
1.070492561E1,7.765095681E-3,5.590379238E-3,3.600311279E-2,3.725282784E-2
1.071492561E1,-1.594711095E-3,1.332147419E-2,3.361988068E-2,3.619808220E-2
1.072492604E1,-2.560340613E-2,3.719267249E-2,2.404117584E-2,5.115474004E-2
1.073492604E1,-3.597963601E-3,7.760748267E-3,3.360271454E-2,3.467444275E-2
1.074492604E1,2.068490908E-2,-7.095903158E-3,3.598499298E-2,4.210863362E-2
1.075492604E1,-5.548354238E-3,-1.201410592E-2,3.837680817E-2,4.059436390E-2
1.076492604E1,1.760210842E-3,-7.160484791E-3,5.513763428E-2,5.562849628E-2
1.077492561E1,-1.256411895E-2,-2.390509844E-2,4.077148438E-2,4.890424066E-2
1.078492561E1,1.165128872E-2,-4.425391555E-3,3.120136261E-2,3.359853640E-2
1.079492561E1,1.394700631E-2,1.030595601E-2,9.660720825E-3,1.985097583E-2
1.080492561E1,9.158052504E-3,-4.059776664E-3,3.360366821E-2,3.506505710E-2
1.081492561E1,1.405394077E-2,1.259015501E-2,4.796600342E-2,5.154379437E-2
1.082489227E1,-1.217010990E-2,-1.140449941E-2,3.120422363E-2,3.538188455E-2
1.083485944E1,-3.048602492E-3,5.523562431E-3,2.642059326E-2,2.716342150E-2
1.084482610E1,-2.949997783E-3,-2.080488205E-2,6.472873688E-2,6.805405926E-2
1.085479277E1,-2.944007516E-3,-1.595793664E-2,2.163410187E-2,2.704361821E-2
1.086475944E1,-5.296964198E-3,8.000090718E-3,6.712532043E-2,6.780758014E-2
1.087472610E1,-5.290180445E-3,8.758753538E-4,5.276012421E-2,5.303191372E-2
1.088469277E1,-7.578859106E-3,-1.342253387E-2,1.684665680E-2,2.283447758E-2
1.089465943E1,-5.125295371E-3,1.290832460E-2,4.557704926E-2,4.764620568E-2
1.090462610E1,2.167909965E-2,-1.330225170E-2,4.797363281E-2,5.429919619E-2
1.091459320E1,2.177618071E-2,-8.524447680E-3,2.642536163E-2,3.528693798E-2
1.092455987E1,-6.960116327E-3,-8.385941386E-3,4.558086395E-2,4.686557789E-2
1.093452653E1,-1.892490312E-2,1.249715686E-3,4.797649384E-2,5.158931777E-2
1.094449320E1,-1.155200228E-2,-1.024904847E-2,3.841018677E-2,4.139848063E-2
1.095445986E1,6.196387112E-4,-5.068212748E-3,3.602313995E-2,3.638320141E-2
1.096442653E1,1.516460441E-2,1.171146333E-2,1.926231384E-2,2.716910626E-2
1.097439320E1,1.521650702E-2,1.164652407E-2,1.926136017E-2,2.716953449E-2
1.098435986E1,2.890983596E-3,-7.133796811E-3,2.166461945E-2,2.299140228E-2
1.099432653E1,7.666962221E-3,2.326384187E-3,1.208496094E-2,1.449967772E-2
1.100429319E1,1.012145728E-2,-7.237702608E-3,4.560470581E-2,4.727174027E-2
1.101425986E1,-2.412462607E-3,-6.959468126E-3,1.448726654E-2,1.625223259E-2
1.102422609E1,-2.185195312E-2,5.299165845E-3,1.449394226E-2,2.675188547E-2
1.103419276E1,-2.646051347E-3,5.234152079E-3,4.801177979E-2,4.836867720E-2
1.104415942E1,9.378693998E-3,-1.994043589E-3,2.167415619E-2,2.370031978E-2
1.105412609E1,4.703069106E-3,-1.401713490E-2,1.927852631E-2,2.429527745E-2
1.106409276E1,4.761161283E-3,-4.446521401E-3,3.843212128E-2,3.898035602E-2
1.107405942E1,6.946254522E-3,7.961824536E-3,6.477928162E-2,6.563532912E-2
1.108402659E1,9.407732636E-3,8.033499122E-3,2.168369293E-2,2.496447637E-2
1.109399326E1,-4.906358197E-3,1.054042578E-2,2.168655396E-2,2.460649404E-2
1.110395992E1,1.190739498E-2,3.312140703E-3,2.407836914E-2,2.706518412E-2
1.111392659E1,7.235420868E-3,8.087813854E-3,2.407741547E-2,2.640995993E-2
1.112392659E1,-4.694627598E-3,-1.473978162E-3,1.928997040E-2,1.990766430E-2
1.113392609E1,-1.427132264E-2,-3.868162632E-3,4.802131653E-2,5.024619561E-2
1.114392609E1,2.417547628E-3,3.204107285E-3,4.801845551E-2,4.818592024E-2
1.115392609E1,1.361947507E-4,-1.360751688E-2,3.844070435E-2,4.077831305E-2
1.116392609E1,-2.311762422E-3,-6.556853652E-3,3.843879700E-2,3.906248443E-2
1.117392609E1,1.696133986E-2,6.326436996E-4,5.040931702E-2,5.319009804E-2
1.118392609E1,-1.177613810E-2,1.493984461E-2,2.646446228E-2,3.259208722E-2
1.119392609E1,-2.205220982E-3,7.698610425E-3,1.258850098E-4,8.009210266E-3
1.120392609E1,4.959169775E-3,-1.876309514E-3,2.885818481E-2,2.934124628E-2
1.121392559E1,7.414868101E-3,-1.383435726E-2,4.322433472E-2,4.598600680E-2
1.122392559E1,2.613466233E-3,-1.802504063E-3,4.801368713E-2,4.811853467E-2
1.123392559E1,-1.415243559E-2,1.011046767E-2,4.801273346E-2,5.106599224E-2
1.124392559E1,2.807509154E-4,4.274398088E-4,5.040550232E-2,5.040809647E-2
1.125392559E1,7.508842275E-3,-1.166723669E-2,2.406406403E-2,2.777744232E-2
1.126392559E1,-9.190209210E-3,-2.077147365E-3,7.194995880E-2,7.256425469E-2
1.127392559E1,1.475228369E-2,-4.471272230E-3,2.167034149E-2,2.659371824E-2
1.128392559E1,3.673899919E-4,-1.883494854E-2,1.688194275E-2,2.529605212E-2
1.129392559E1,-6.690397859E-3,-9.192541242E-3,2.406597137E-2,2.661644635E-2
1.130392559E1,1.247613505E-2,-1.111479104E-2,5.041313171E-2,5.311004024E-2
1.131392559E1,1.707253791E-2,3.843814135E-3,4.324245453E-2,4.664929079E-2
1.132392559E1,4.697369412E-3,1.130729914E-2,3.606700897E-2,3.808870475E-2
1.133392605E1,4.698386416E-3,1.130755246E-2,3.606700897E-2,3.808890539E-2
1.134392605E1,6.614308804E-3,-1.507581770E-2,1.691341400E-2,2.360281622E-2
1.135392605E1,-2.844087780E-3,6.479278207E-3,3.846263885E-2,3.910811257E-2
1.136392605E1,-8.171701804E-3,6.616622210E-3,5.283260345E-2,5.386873293E-2
1.137392605E1,2.017880976E-2,6.204277277E-3,3.845977783E-2,4.387290657E-2
1.138392555E1,3.042619675E-3,-1.174151897E-3,5.761051178E-2,5.770274894E-2
1.139392555E1,-8.881049231E-3,-1.100361347E-3,4.085159302E-2,4.182028793E-2
1.140392555E1,1.026716828E-2,-1.073585451E-2,5.521678925E-2,5.718012881E-2
1.141392605E1,8.017867804E-4,3.577783704E-3,4.084968567E-2,4.101390273E-2
1.142392605E1,-4.406630993E-3,3.525033593E-3,1.930141449E-2,2.010942217E-2
1.143392605E1,-2.417232841E-3,5.647674203E-3,2.887344360E-2,2.951973889E-2
1.144392605E1,7.134221494E-3,1.960185170E-2,3.125953674E-2,3.758042501E-2
1.145392605E1,2.451870590E-3,-1.879215240E-3,3.844356537E-2,3.856748420E-2
1.146392605E1,-9.413255379E-3,-8.994847536E-3,4.562664032E-2,4.744793953E-2
1.147392605E1,7.419794798E-3,1.028960943E-2,2.647590637E-2,2.935818515E-2
1.148392605E1,-4.719074816E-3,-4.708737135E-3,4.801082611E-2,4.847144826E-2
1.149392605E1,9.745784104E-3,-2.305701375E-3,3.125095367E-2,3.281643905E-2
1.150392605E1,-7.067825645E-3,1.192776859E-2,5.758476257E-2,5.923031912E-2
1.151392605E1,7.475707680E-3,1.995727420E-3,2.884578705E-2,2.986550793E-2
1.152392605E1,7.445465773E-3,6.511405110E-3,4.320621490E-2,4.432392541E-2
1.153392605E1,7.828697562E-5,2.283787727E-2,6.953430176E-2,7.318875520E-2
1.154392605E1,1.239228249E-2,8.356034756E-3,4.886627197E-3,1.572485636E-2
1.155392605E1,-2.375277877E-2,-8.714050055E-3,3.840065002E-2,4.598629241E-2
1.156392605E1,-6.886057556E-3,1.529629529E-2,5.516147614E-2,5.765572727E-2
1.157392605E1,5.107581615E-3,7.597938180E-3,5.036163330E-2,5.118701167E-2
1.158392655E1,1.688958332E-2,1.226945221E-2,4.869461060E-3,2.143616415E-2
1.159392655E1,-5.095452070E-5,1.888020337E-2,2.640628815E-2,3.246161933E-2
1.160392655E1,4.628576338E-3,-5.701601505E-3,1.202678680E-2,1.409168476E-2
1.161392655E1,-2.669997513E-3,9.612441063E-4,5.990219116E-2,5.996937037E-2
1.162392655E1,-5.003903061E-3,-6.208315492E-3,4.314231873E-2,4.387302009E-2
1.163392609E1,-1.700051501E-2,-6.797581911E-3,5.270767212E-2,5.579716239E-2
1.164392609E1,1.166339219E-2,2.707779408E-3,1.439857483E-2,1.872660524E-2
1.165392609E1,1.172439754E-2,-1.643317938E-2,4.073524475E-2,4.546285349E-2
1.166392609E1,1.663165912E-2,-1.403230429E-2,1.918601990E-2,2.901070506E-2
1.167392609E1,-3.928504884E-4,-1.374688745E-2,2.158832550E-2,2.559662173E-2
1.168392609E1,1.721248031E-3,1.122921705E-3,2.159881592E-2,2.169637060E-2
1.169392609E1,-1.086249948E-3,8.685842156E-3,2.400207520E-2,2.554845214E-2
1.170392609E1,-1.067686640E-2,-8.307397366E-4,5.752372742E-2,5.851209123E-2
1.171392559E1,-1.295183226E-2,-8.006796241E-3,9.822559357E-2,9.939882281E-2
1.172392559E1,1.325974986E-2,-1.268285513E-2,9.640693665E-3,2.072724668E-2
1.173392559E1,2.043813094E-2,-2.176463604E-4,5.035400391E-2,5.434418346E-2
1.174392559E1,3.188573569E-2,4.825487733E-3,4.317760468E-2,5.389147445E-2
1.175392559E1,2.140853554E-2,1.925030351E-2,9.662628174E-3,3.036883209E-2
1.176392559E1,-1.775735989E-2,-7.170692086E-3,6.233692169E-2,6.521222632E-2
1.177392559E1,-8.680239320E-3,-2.399429679E-2,5.515575409E-2,6.077195111E-2
1.178392559E1,-3.483975679E-2,-1.663368940E-2,1.924514771E-2,4.313773274E-2
1.179392559E1,-2.981324866E-2,-7.042989135E-3,6.233978271E-2,6.945993090E-2
1.180392559E1,-2.168719657E-2,3.220185637E-3,7.671737671E-2,7.978884621E-2
1.181392559E1,1.023743302E-2,1.545961201E-2,4.080581665E-2,4.482096954E-2
1.182392559E1,1.238371432E-2,2.732007205E-2,1.207256317E-2,3.233403004E-2
1.183392609E1,9.860344231E-3,8.239552379E-3,4.080677032E-2,4.278211210E-2
1.184392609E1,-2.622617036E-2,1.012057066E-2,5.037403107E-2,5.768692199E-2
1.185392609E1,-7.658765465E-2,2.390374243E-2,4.870414734E-3,8.037896918E-2
1.186392609E1,-1.315857768E0,1.055042148E0,6.198883057E-5,1.686592898E0
1.187392609E1,-2.615303695E-1,1.183556437E0,3.899316788E-1,1.273283428E0
1.188392559E1,1.258304268E-1,4.395263791E-1,-2.014226913E-1,4.995876648E-1
1.189392559E1,1.470725685E-1,1.050418913E-1,2.128915787E-1,2.792614610E-1
1.190392559E1,5.284337997E-1,-2.311443686E-1,1.413574219E-1,5.938450308E-1
1.191392559E1,6.679348946E-1,-2.846172452E-1,1.253795624E-2,7.261550798E-1
1.192392559E1,9.096119404E-1,-2.649142146E-1,2.620849609E-1,9.829862410E-1
1.193392559E1,8.653968573E-1,6.376864016E-2,1.621837616E-1,8.827693541E-1
1.194392559E1,8.458035588E-1,3.586412370E-1,3.019218445E-1,9.670387775E-1
1.195392559E1,8.938257694E-1,4.153499603E-1,3.485841751E-1,1.045442979E0
1.196392559E1,1.109878302E0,3.229953647E-1,8.098468781E-1,1.411385070E0
1.197392559E1,1.111207247E0,3.336606622E-1,1.549875259E0,1.936033136E0
1.198392559E1,1.185751200E0,2.979481220E-1,2.743792534E0,3.003860260E0
1.199392559E1,1.206808805E0,2.640810311E-1,2.952919006E0,3.200915016E0
1.200392559E1,1.233817577E0,8.827525377E-2,2.958007812E0,3.206229648E0
1.201392559E1,1.212424755E0,-6.342470646E-3,2.905219078E0,3.148064787E0
1.202392559E1,8.706172109E-1,-3.804829717E-1,2.964233398E0,3.112783523E0
1.203392559E1,6.701865792E-1,-4.527118206E-1,3.012372971E0,3.119052574E0
1.204392559E1,2.147663832E-1,-5.871560574E-1,2.998580933E0,3.063064551E0
1.205392559E1,2.848088741E-3,-5.896747112E-1,2.929121971E0,2.987888870E0
1.206392559E1,-1.615422070E-1,-5.742276907E-1,2.898826599E0,2.959565674E0
1.207392559E1,-2.236953974E-1,-5.369694233E-1,2.906879425E0,2.964510716E0
1.208392609E1,-3.218264580E-1,-4.881787300E-1,2.854295731E0,2.913570809E0
1.209392609E1,-2.600510716E-1,-4.352550507E-1,2.848643303E0,2.893413587E0
1.210392609E1,-7.863199711E-2,-4.358396530E-1,2.810252190E0,2.844935248E0
1.211392609E1,-8.816877007E-2,-4.193063974E-1,2.736994743E0,2.770330632E0
1.212392609E1,-1.307953149E-1,-3.252282143E-1,2.402220726E0,2.427662502E0
1.213392559E1,-7.601283491E-2,-3.994920254E-1,2.151762962E0,2.189852889E0
1.214392559E1,6.337442994E-2,-7.057367563E-1,1.668420792E0,1.812652373E0
1.215392559E1,1.718817800E-1,-8.445022702E-1,1.300496101E0,1.560133821E0
1.216392559E1,1.499277651E-1,-7.046134472E-1,6.131038666E-1,9.459676506E-1
1.217392559E1,1.078266948E-1,-6.125441194E-1,4.186115265E-1,7.497149488E-1
1.218392559E1,1.447709650E-1,-5.144155025E-1,1.834821701E-1,5.650200424E-1
1.219392559E1,1.906867176E-1,-4.827147424E-1,3.215122223E-2,5.200083152E-1
1.220392559E1,1.413961649E-1,-3.677158952E-1,-1.865396500E-1,4.358955104E-1
1.221392559E1,5.384814739E-2,-3.496833742E-1,-2.670135498E-1,4.432542396E-1
1.222392559E1,-1.864718795E-1,-3.663894832E-1,-1.932697296E-1,4.542754711E-1
1.223392559E1,-2.984521091E-1,-4.066877365E-1,-1.022415161E-1,5.147056480E-1
1.224392559E1,-4.905858636E-1,-3.196925819E-1,1.398477554E-1,6.020259390E-1
1.225392559E1,-5.407404900E-1,-2.620380223E-1,1.808805466E-1,6.275204975E-1
1.226392559E1,-7.212551832E-1,-2.037487626E-1,3.104906082E-1,8.112502791E-1
1.227392559E1,-7.589594126E-1,-1.828777939E-1,4.424467087E-1,8.973420571E-1
1.228392559E1,-6.209261417E-1,-7.910634577E-2,7.419700623E-1,9.707351136E-1
1.229392559E1,-4.274911880E-1,-4.555559158E-2,9.744186401E-1,1.065042588E0
1.230392559E1,-1.699600667E-1,9.542874247E-2,1.101475716E0,1.118589210E0
1.231392559E1,-8.896028996E-2,1.103256941E-1,9.795637131E-1,9.897629817E-1
1.232392559E1,-1.225672662E-1,-7.648889720E-2,8.123073578E-1,8.250554707E-1
1.233392609E1,-1.908980012E-1,-1.866403520E-1,5.734090805E-1,6.325145385E-1
1.234392609E1,-2.870487571E-1,-3.215042949E-1,1.982698441E-1,4.744185195E-1
1.235392609E1,-3.084938228E-1,-3.054122925E-1,8.656406403E-2,4.426493469E-1
1.236392609E1,-4.365962148E-1,-1.427657008E-1,1.950635910E-1,4.990471968E-1
1.237392609E1,-4.940819442E-1,-6.958401203E-2,3.345861435E-1,6.007551829E-1
1.238392559E1,-5.024532676E-1,1.693284363E-1,4.166517258E-1,6.743367601E-1
1.239392559E1,-4.755368531E-1,2.470780015E-1,5.060386658E-1,7.370603562E-1
1.240392559E1,-3.881501257E-1,2.506916523E-1,6.577663422E-1,8.038428861E-1
1.241392559E1,-3.888590932E-1,2.030221820E-1,5.629987717E-1,7.137205459E-1
1.242392559E1,-4.383825660E-1,3.503832221E-2,3.271856308E-1,5.481399412E-1
1.243392559E1,-3.815133870E-1,-1.307451874E-1,3.285980225E-1,5.202147911E-1
1.244392559E1,-2.932027280E-1,-2.581723630E-1,4.138574600E-1,5.691210820E-1
1.245392559E1,-3.172347844E-1,-3.033708930E-1,3.722190857E-1,5.755161639E-1
1.246392559E1,-2.261160314E-1,-1.910007596E-1,-3.556823730E-2,2.981188510E-1
1.247392559E1,-1.260839701E-1,-1.634558141E-1,-2.873535156E-1,3.538177689E-1
1.248392559E1,-8.471220732E-2,-1.400853693E-1,-3.640069962E-1,3.991254966E-1
1.249392559E1,-1.540017724E-1,-1.237871945E-1,-3.828573227E-1,4.308358678E-1
1.250392559E1,-2.434284091E-1,7.679098845E-2,-3.988714218E-1,4.735532255E-1
1.251392559E1,-1.925448775E-1,1.117408872E-1,-4.409008026E-1,4.939160591E-1
1.252392559E1,-4.293242097E-2,-1.489990950E-2,-5.019359589E-1,5.039889948E-1
1.253392559E1,4.074725509E-2,-1.229021549E-1,-5.749683380E-1,5.893673457E-1
1.254392559E1,-2.135041356E-2,-2.737897336E-1,-7.200050354E-1,7.705997076E-1
1.255392559E1,-1.515865922E-1,-3.085913062E-1,-8.366870880E-1,9.045730332E-1
1.256392559E1,-2.989953756E-1,-2.798810601E-1,-8.748950958E-1,9.660088360E-1
1.257392559E1,-2.606881261E-1,-3.288269639E-1,-6.528882980E-1,7.761112040E-1
1.258392605E1,-1.694570184E-1,-4.004062116E-1,-4.149818420E-1,6.010413834E-1
1.259392605E1,-7.427829504E-2,-3.026450872E-1,-4.365806580E-1,5.363897695E-1
1.260392605E1,3.636515141E-2,-1.881080866E-1,-6.428852081E-1,6.708267044E-1
1.261392605E1,-1.733475924E-2,-1.470779777E-1,-6.532011032E-1,6.697791476E-1
1.262392605E1,-7.416367531E-2,-1.473522186E-1,-6.853713989E-1,7.049445947E-1
1.263392555E1,-1.977447867E-1,-2.355731726E-1,-6.937437057E-1,7.588662923E-1
1.264392555E1,-4.913977683E-1,-3.790933490E-1,-8.577108383E-1,1.058702704E0
1.265392555E1,-4.684063494E-1,-2.887162566E-1,-9.185018539E-1,1.070704086E0
1.266392555E1,-2.158805728E-1,-5.167484283E-3,-7.971563339E-1,8.258870052E-1
1.267392555E1,-6.993100047E-2,1.246511340E-1,-5.680780411E-1,5.857823067E-1
1.268392555E1,1.378715336E-1,3.027183414E-1,-1.619720459E-1,3.699755365E-1
1.269392555E1,1.727782488E-1,3.643116951E-1,-8.874607086E-2,4.128573598E-1
1.270392555E1,2.772376537E-1,2.663417459E-1,-1.758785248E-1,4.227669544E-1
1.271392555E1,2.668480873E-1,1.367663741E-1,-2.771167755E-1,4.082972570E-1
1.272392555E1,8.222973347E-2,-1.340387464E-1,-5.313768387E-1,5.541565296E-1
1.273392555E1,7.610753179E-2,-1.337373257E-1,-5.316619873E-1,5.534821564E-1
1.274392555E1,-5.866935849E-2,-1.076358557E-1,-5.078620911E-1,5.224475807E-1
1.275392555E1,-9.865254164E-2,-1.249453425E-1,-3.880996704E-1,4.194818432E-1
1.276392555E1,-1.386944950E-1,-1.536437273E-1,-4.212818146E-1,4.693835587E-1
1.277392555E1,-1.961921155E-1,-9.906756878E-2,-6.000661850E-1,6.390501982E-1
1.278392555E1,-2.763077617E-1,3.552055359E-2,-8.909940720E-1,9.335299273E-1
1.279392555E1,-3.648637235E-1,-2.841973305E-2,-9.136161804E-1,9.841888757E-1
1.280392555E1,-4.611954093E-1,-1.003713608E-1,-7.041101456E-1,8.476713471E-1
1.281392555E1,-4.479475915E-1,-1.100698113E-1,-6.600809097E-1,8.052820720E-1
1.282392555E1,-3.907554448E-1,2.657943964E-2,-6.641206741E-1,7.710074929E-1
1.283392605E1,-2.617778480E-1,7.634383440E-2,-7.163257599E-1,7.664715370E-1
1.284392605E1,-1.756701469E-1,3.969120979E-2,-6.059703827E-1,6.321673017E-1
1.285392605E1,-8.364814520E-2,5.275547504E-2,-5.389699936E-1,5.479678881E-1
1.286392605E1,7.493060827E-2,1.420122385E-2,-5.391626358E-1,5.445297225E-1
1.287392605E1,1.747344136E-1,-5.038350821E-2,-4.867143631E-1,5.195781793E-1
1.288392558E1,1.905036867E-1,-1.228560209E-1,-3.743696213E-1,4.376503968E-1
1.289392559E1,2.244430780E-1,-9.610366821E-2,-4.199485779E-1,4.857647768E-1
1.290392559E1,2.610163987E-1,-1.373064518E-2,-3.528022766E-1,4.390757763E-1
1.291392559E1,1.814965457E-1,6.974631548E-2,-3.070621490E-1,3.634456053E-1
1.292392559E1,-3.208351880E-2,2.437725067E-1,-2.851562500E-1,3.765215454E-1
1.293392558E1,-1.784306169E-1,2.790902853E-1,-1.721906662E-1,3.733342978E-1
1.294392558E1,-4.347729087E-1,2.212059498E-1,1.030635834E-2,4.879198452E-1
1.295392558E1,-6.643859744E-1,2.349889278E-1,-4.646968842E-2,7.062492132E-1
1.296392558E1,-8.133401871E-1,3.404011726E-1,-1.891565323E-1,9.017623922E-1
1.297392558E1,-6.466539502E-1,3.909193873E-1,-2.884654999E-1,8.088211442E-1
1.298392559E1,-1.153867841E-1,3.612639308E-1,-5.860919952E-1,6.980899401E-1
1.299392559E1,2.776324153E-1,2.746219635E-1,-8.976240158E-1,9.788901137E-1
1.300392559E1,1.009275079E0,-2.073371410E-2,-1.385797501E0,1.714497239E0
1.301389225E1,1.195475698E0,-1.708430648E-1,-1.521403313E0,1.942425684E0
1.302385892E1,9.998438954E-1,-4.465640187E-1,-1.579663277E0,1.922093470E0
1.303382558E1,6.054106951E-1,-5.175194740E-1,-1.732838631E0,1.907112539E0
1.304379225E1,6.072595716E-2,-5.209200382E-1,-1.794271946E0,1.869346716E0
1.305375938E1,-1.534728110E-1,-4.728202224E-1,-1.776229858E0,1.844479703E0
1.306372605E1,-3.262211084E-1,-2.353169918E-1,-1.952118874E0,1.993128795E0
1.307369271E1,-2.505675554E-1,-1.520414352E-1,-1.953731060E0,1.975592507E0
1.308365938E1,2.188096941E-2,-1.920834780E-1,-1.903526783E0,1.913318858E0
1.309362651E1,2.079821676E-1,-2.543274164E-1,-1.976443291E0,2.003563600E0
1.310359318E1,1.749698967E-1,-2.674921751E-1,-1.973804474E0,1.999517599E0
1.311355985E1,5.570309758E-1,-3.420205116E-1,-1.761934280E0,1.879274846E0
1.312352651E1,6.440028548E-1,-2.146104574E-1,-1.493370056E0,1.640411976E0
1.313349268E1,6.839388609E-1,-1.141705513E-1,-1.299567223E0,1.472984130E0
1.314345934E1,5.251081586E-1,-1.328333616E-1,-1.125261307E0,1.248837975E0
1.315339268E1,3.448554575E-1,-9.939420223E-2,-1.090090752E0,1.147650792E0
1.316332648E1,1.193326116E-1,3.343427181E-2,-9.642381668E-1,9.721694117E-1
1.317325981E1,1.070943773E-1,1.286480427E-1,-8.146924973E-1,8.317111215E-1
1.318319314E1,2.013845444E-1,1.641089916E-1,-6.534080505E-1,7.031568647E-1
1.319312648E1,3.193957508E-1,1.312609911E-1,-6.694078445E-1,7.532263642E-1
1.320305981E1,4.350689650E-1,-3.627645969E-2,-7.762870789E-1,8.906304591E-1
1.321299314E1,3.999168575E-1,-1.267887354E-1,-8.229169846E-1,9.236889302E-1
1.322292647E1,1.904641390E-1,-1.744847298E-1,-9.454975128E-1,9.801464462E-1
1.323285981E1,1.360252798E-1,-1.270854473E-1,-1.079284668E0,1.095220974E0
1.324279314E1,-8.033025265E-2,-1.605614424E-1,-1.109476089E0,1.123908412E0
1.325272647E1,-8.162483573E-2,-1.178506613E-1,-1.091275215E0,1.100651165E0
1.326265981E1,1.437121630E-2,2.197873592E-2,-1.144616127E0,1.144917322E0
1.327259314E1,7.847154140E-2,6.662774086E-2,-1.157376289E0,1.161945314E0
1.328252647E1,1.864458323E-1,1.798132658E-1,-9.980564117E-1,1.031121457E0
1.329245980E1,2.500763834E-1,2.130610943E-1,-9.874954224E-1,1.040711505E0
1.330239314E1,2.899641395E-1,1.827137470E-1,-1.077793121E0,1.130973708E0
1.331235980E1,4.115206301E-1,2.291303873E-1,-1.254431725E0,1.339943624E0
1.332232647E1,7.915886045E-1,3.556143045E-1,-1.493217468E0,1.727070485E0
1.333229314E1,1.019223332E0,3.526984453E-1,-1.654965401E0,1.975379172E0
1.334225980E1,9.760428071E-1,2.267137766E-1,-1.813676357E0,2.072071579E0
1.335222600E1,8.709762096E-1,1.239036322E-1,-1.890332699E0,2.085020235E0
1.336219267E1,6.100357771E-1,5.689108372E-2,-1.940094471E0,2.034538474E0
1.337215933E1,3.940409422E-1,-1.393067837E-2,-1.960735321E0,1.999986332E0
1.338212600E1,-5.069358647E-2,-2.293944359E-3,-1.955069065E0,1.955727525E0
1.339209220E1,-2.240927666E-1,6.006991863E-2,-1.875544548E0,1.889839494E0
1.340205887E1,-2.238300592E-1,4.449748993E-2,-1.873085022E0,1.886935988E0
1.341202600E1,2.466768026E-2,2.455695868E-1,-1.849607468E0,1.866001260E0
1.342199267E1,2.886798382E-1,1.527408361E-1,-1.716526031E0,1.747320071E0
1.343195933E1,4.361627102E-1,1.339714527E-1,-1.643754959E0,1.705906394E0
1.344192600E1,5.995966792E-1,2.644902468E-1,-1.305406570E0,1.460670251E0
1.345192600E1,6.726191044E-1,3.250343800E-1,-1.175261497E0,1.392588739E0
1.346192553E1,7.737894058E-1,2.119426727E-1,-9.371385574E-1,1.233652470E0
1.347192553E1,7.463794351E-1,2.550601959E-2,-9.214200974E-1,1.186064001E0
1.348192553E1,6.242052317E-1,-6.903994083E-2,-1.446542740E0,1.576985917E0
1.349192553E1,4.884197712E-1,-4.756271839E-2,-1.822999477E0,1.887893848E0
1.350192553E1,7.898560911E-2,-2.371754646E-1,-1.945545197E0,1.961539456E0
1.351192553E1,-9.594813734E-2,-3.617833853E-1,-1.907646179E0,1.944018315E0
1.352192580E1,-2.170581222E-1,-3.824772835E-1,-1.845911503E0,1.897575394E0
1.353192580E1,-1.233847439E-1,-2.892886400E-1,-1.693395615E0,1.722353164E0
1.354192580E1,3.314176500E-1,-5.860698223E-2,-1.380582809E0,1.421014191E0
1.355192580E1,5.136235356E-1,-6.650209427E-3,-1.151610374E0,1.260975740E0
1.356192580E1,7.237837315E-1,1.472039223E-1,-9.658117294E-1,1.215863554E0
1.357192580E1,6.809307933E-1,2.043476105E-1,-8.519077301E-1,1.109581665E0
1.358192580E1,4.810023308E-2,-4.724552631E-1,-1.130456924E-1,4.881669148E-1
1.359192580E1,-5.083893538E-1,-9.098289609E-1,9.937953949E-2,1.046959773E0
1.360192580E1,-5.509672165E-1,-9.147364497E-1,1.013793945E-1,1.072653452E0
1.361192580E1,-1.732375264E0,-1.127220392E0,-2.053365707E-1,2.076996142E0
1.362192580E1,-1.987391233E0,-5.757298470E-1,-2.197761536E-1,2.080742735E0
1.363192580E1,-1.842489243E0,-3.375670910E-1,-1.642322540E-2,1.873229263E0
1.364192580E1,-9.780108929E-1,7.589519024E-2,5.573348999E-1,1.128223195E0
1.365192580E1,-3.599186242E-1,2.695603371E-1,7.083005905E-1,8.389838603E-1
1.366192626E1,5.932168365E-1,5.341904163E-1,6.443262100E-1,1.025876153E0
1.367192626E1,8.813846707E-1,5.575938225E-1,4.375734329E-1,1.131026223E0
1.368192626E1,6.652488112E-1,2.053446770E-1,1.368808746E-1,7.095483007E-1
1.369192626E1,3.247557282E-1,-1.498631239E-1,6.634235382E-2,3.637671602E-1
1.370192626E1,-4.827174842E-1,-6.716982126E-1,9.493732452E-2,8.325909884E-1
1.371192580E1,-9.862145185E-1,-9.652132392E-1,2.374401093E-1,1.400226224E0
1.372192580E1,-1.558439970E0,-9.759076238E-1,9.401416779E-2,1.841186980E0
1.373192580E1,-1.475535274E0,-6.882873774E-1,-3.428564072E-1,1.663879315E0
1.374192580E1,-7.715110779E-1,-2.333257198E-1,-9.133567810E-1,1.218150584E0
1.375192580E1,-2.857717276E-1,-2.159494162E-1,-9.810485840E-1,1.044392625E0
1.376192580E1,1.738441885E-1,-3.136943579E-1,-1.012991905E0,1.074606231E0
1.377192606E1,3.129869401E-1,-3.503112793E-1,-8.753747940E-1,9.934585281E-1
1.378192606E1,1.605430543E-1,-3.706184626E-1,-4.294996262E-1,5.895778540E-1
1.379192606E1,-2.677083015E-2,-4.268329144E-1,-1.352643967E-1,4.485526403E-1
1.380192606E1,-1.025173664E-1,-1.705125570E-1,-4.800033569E-2,2.046664964E-1
1.381192606E1,-8.278438449E-2,-3.495514393E-2,-1.988162994E-1,2.181812030E-1
1.382192579E1,-1.809860766E-2,-7.393014431E-2,-2.906780243E-1,3.004778522E-1
1.383192579E1,8.366890252E-2,-2.106628418E-1,-2.753820419E-1,3.566715396E-1
1.384192579E1,3.612326980E-1,-3.715887070E-1,-5.163555145E-1,7.315669803E-1
1.385192579E1,4.301450253E-1,-4.681030512E-1,-6.156826019E-1,8.849916811E-1
1.386192579E1,3.179323375E-1,-4.873070717E-1,-8.076992035E-1,9.954532418E-1
1.387192579E1,1.787320673E-1,-4.187607765E-1,-7.569055557E-1,8.832959641E-1
1.388192579E1,1.903882325E-1,-7.951307297E-2,-2.388477325E-1,3.156235846E-1
1.389192579E1,3.533682823E-1,5.077600479E-2,8.055973053E-2,3.659743376E-1
1.390192579E1,5.516514778E-1,-3.410744667E-2,8.147716522E-2,5.586780820E-1
1.391192626E1,4.650973678E-1,-1.562478542E-1,-1.546535492E-1,5.144382118E-1
1.392192626E1,-2.246379107E-1,-6.057531834E-1,-6.755924225E-1,9.347856607E-1
1.393192626E1,-7.011479735E-1,-8.137689829E-1,-7.654294968E-1,1.318980952E0
1.394192626E1,-1.400282025E0,-8.957943916E-1,-3.165502548E-1,1.692170620E0
1.395192626E1,-1.411302209E0,-7.506142855E-1,8.178615570E-2,1.600588862E0
1.396192579E1,-7.727932930E-1,-3.570084572E-1,7.262191772E-1,1.118954336E0
1.397192579E1,-1.453550905E-1,-2.280521393E-2,8.934001923E-1,9.054347484E-1
1.398192579E1,9.780837297E-1,4.899662733E-1,1.028401375E0,1.501440681E0
1.399192579E1,1.352443814E0,6.442122459E-1,1.197532654E0,1.917862911E0
1.400192579E1,1.432521820E0,6.278069019E-1,1.602859497E0,2.239513081E0
1.401192579E1,1.193423271E0,5.316771269E-1,1.691832542E0,2.137577372E0
1.402192606E1,3.999159038E-1,1.525068283E-2,1.702080727E0,1.748497673E0
1.403192606E1,-1.332533062E-1,-2.360040545E-1,1.595947266E0,1.618796476E0
1.404192606E1,-1.094753504E0,-3.812472820E-1,1.218294144E0,1.681688242E0
1.405192606E1,-1.400927782E0,-3.186692595E-1,1.196618080E0,1.869770996E0
1.406192606E1,-1.230779409E0,-7.927244902E-2,1.245683670E0,1.752948910E0
1.407192579E1,-7.364856601E-1,5.855929852E-2,1.032168388E0,1.269335220E0
1.408192579E1,9.147298336E-2,-1.409304142E-2,7.473716736E-1,7.530805661E-1
1.409192579E1,4.149122834E-1,-1.225844026E-1,5.608882904E-1,7.083606518E-1
1.410192579E1,3.557125330E-1,-3.049349189E-1,5.392246246E-1,7.143387899E-1
1.411192579E1,1.094291210E-1,-2.439087033E-1,6.365871429E-1,6.904414375E-1
1.412192579E1,-2.873498797E-1,5.484616756E-2,6.991577148E-1,7.578915263E-1
1.413192579E1,-5.279321074E-1,1.503718495E-1,6.940097809E-1,8.848579429E-1
1.414192579E1,-5.337801576E-1,2.147235274E-1,7.792406082E-1,9.686296379E-1
1.415192579E1,-3.444805741E-1,2.197285891E-1,8.497123718E-1,9.428460286E-1
1.416192626E1,5.668610334E-2,1.329625845E-1,9.726753235E-1,9.833563180E-1
1.417192626E1,2.329547703E-1,1.124556065E-1,1.069393158E0,1.100234482E0
1.418192626E1,4.045239687E-1,-1.298415661E-2,1.022809029E0,1.099975699E0
1.419192626E1,3.205377758E-1,-1.201656461E-1,8.330001831E-1,9.005962210E-1
1.420192626E1,1.328287423E-1,-3.031207025E-1,4.400663376E-1,5.506214821E-1
1.421192579E1,7.684886456E-2,-2.518638074E-1,4.016284943E-1,4.802567781E-1
1.422192579E1,4.774779081E-2,3.793114424E-2,7.700309753E-1,7.724417947E-1
1.423192579E1,8.860021830E-2,3.112153411E-1,1.061514854E0,1.109738155E0
1.424192579E1,2.836067379E-1,5.975853801E-1,1.499020576E0,1.638476047E0
1.425192579E1,3.466116190E-1,5.663973093E-1,1.733491898E0,1.856324240E0
1.426192579E1,3.417890370E-1,4.566959143E-1,1.753314972E0,1.843774470E0
1.427192606E1,3.680107892E-1,3.365032971E-1,1.637834549E0,1.712065542E0
1.428192606E1,1.644854546E-1,-3.531873226E-4,1.393959045E0,1.403630083E0
1.429192606E1,1.264116168E-1,-9.633088112E-2,1.098130226E0,1.109571777E0
1.430192606E1,-2.454972267E-2,-2.391265780E-1,4.079599380E-1,4.735140127E-1
1.431192606E1,3.505885601E-3,-2.454911023E-1,4.100933075E-1,4.779693436E-1
1.432192579E1,-2.710251212E-1,-1.696330607E-1,-4.761505127E-2,3.232602430E-1
1.433192579E1,-2.389209270E-1,-7.928073406E-2,6.868267059E-2,2.609328523E-1
1.434192579E1,-7.906121016E-2,2.455836535E-2,6.910228729E-2,1.078374442E-1
1.435192579E1,7.502812147E-2,-1.784229279E-2,8.794498444E-2,1.169695974E-1
1.436192579E1,2.785341740E-1,-3.248326778E-1,4.049119949E-1,5.891105824E-1
1.437192579E1,2.340471745E-1,-4.206249714E-1,6.780672073E-1,8.315519130E-1
1.438192579E1,1.656860113E-1,-2.537088394E-1,8.670921326E-1,9.185144506E-1
1.439192579E1,1.206347942E-1,-6.509074569E-2,1.077722549E0,1.086404829E0
1.440192579E1,-1.303941011E-1,9.824535251E-2,1.501325607E0,1.510176596E0
1.441192586E1,-2.492632866E-1,2.013012767E-1,1.460453033E0,1.495184755E0
1.442192586E1,-2.541800737E-1,1.247547716E-1,1.431976318E0,1.459701147E0
1.443192586E1,-1.658585072E-1,3.141351044E-2,1.435122490E0,1.445016406E0
1.444192586E1,-7.960057259E-2,-6.163212657E-2,1.242449760E0,1.246521631E0
1.445192586E1,-7.831549644E-2,-6.947776675E-2,1.112681389E0,1.117595790E0
1.446192539E1,-1.396298409E-3,-5.255413055E-2,1.012133598E0,1.013498055E0
1.447192539E1,8.019846678E-2,1.325311512E-2,9.332389832E-1,9.367723516E-1
1.448192539E1,2.002495527E-1,8.622309566E-2,6.940050125E-1,7.274457114E-1
1.449192539E1,2.601770759E-1,1.424250007E-1,5.961894989E-1,6.658970718E-1
1.450192539E1,3.619087636E-1,7.917027920E-2,1.511363983E-1,4.001101064E-1
1.451192539E1,3.256677389E-1,-6.717411429E-2,-1.144332886E-1,3.516629286E-1
1.452192566E1,1.426326334E-1,-4.374132752E-1,-5.118722916E-1,6.882497253E-1
1.453192566E1,2.519047260E-2,-5.524675846E-1,-5.288496017E-1,7.652038246E-1
1.454192566E1,-1.556309462E-1,-5.205271244E-1,-5.533466339E-1,7.754753226E-1
1.455192566E1,-2.042374611E-1,-4.408690929E-1,-2.455253601E-1,5.443906686E-1
1.456192566E1,-2.995437384E-2,-3.830854967E-2,4.279146194E-1,4.306689344E-1
1.457192539E1,6.620484591E-2,1.720243394E-1,6.867227554E-1,7.110299556E-1
1.458192539E1,-2.215922475E-1,1.611209959E-1,1.240186691E0,1.270089024E0
1.459192539E1,-3.233633339E-1,9.304444492E-2,1.193240166E0,1.239775467E0
1.460192539E1,-3.507979512E-1,1.120060235E-1,9.772405624E-1,1.044319716E0
1.461192539E1,-3.157568574E-1,1.778945625E-1,8.915843964E-1,9.624300516E-1
1.462192539E1,-1.921395063E-1,3.442826569E-1,1.131984711E0,1.198681577E0
1.463192539E1,-4.879772663E-2,4.328446686E-1,1.279329300E0,1.351450770E0
1.464192539E1,-1.632750034E-2,4.172317386E-1,1.280930519E0,1.347268312E0
1.465192539E1,5.787962675E-2,5.876168609E-1,2.333812714E-1,6.349097922E-1
1.466192585E1,3.741727471E-1,1.595484167E-1,1.409388542E0,1.466914110E0
1.467192585E1,2.173390836E-1,1.428860873E-1,1.177036285E0,1.205432341E0
1.468192585E1,1.172783673E-1,2.325892821E-2,1.467747688E0,1.472609408E0
1.469192585E1,1.883933097E-1,-6.869630516E-2,1.725309372E0,1.736923617E0
1.470192585E1,1.325173080E-1,-2.004124820E-1,1.135527611E0,1.160667461E0
1.471192579E1,5.089217424E-2,-1.823530346E-1,6.323900223E-1,6.601210366E-1
1.472192579E1,1.190544814E-1,-1.330331415E-1,-2.320966721E-1,2.928150465E-1
1.473192579E1,1.299533397E-1,-6.384186447E-2,-4.670276642E-1,4.889565352E-1
1.474192579E1,3.007449210E-1,3.776706755E-2,-4.601268768E-1,5.509905640E-1
1.475192579E1,3.969556689E-1,7.821357995E-2,-2.304639816E-1,4.656230385E-1
1.476192579E1,3.928893805E-1,1.170177236E-1,1.453876495E-1,4.349629657E-1
1.477192579E1,2.808157206E-1,1.161984503E-1,3.562450409E-1,4.682628300E-1
1.478192579E1,-9.242938459E-2,-1.976218820E-2,4.954433441E-1,5.043786697E-1
1.479192579E1,-2.913160324E-1,7.893770933E-3,3.833179474E-1,4.815184224E-1
1.480192579E1,-5.122690797E-1,-1.331108809E-2,4.848098755E-2,5.147302218E-1
1.481192579E1,-5.058128834E-1,-3.281387687E-2,-7.098007202E-2,5.118218383E-1
1.482192552E1,-9.425550699E-2,-6.862446666E-2,-3.725461960E-1,3.903640431E-1
1.483192552E1,1.792274117E-1,-8.990854025E-2,-4.323253632E-1,4.765618851E-1
1.484192552E1,3.788420558E-1,-2.657352388E-2,-2.982044220E-1,4.828595372E-1
1.485192552E1,4.108111560E-1,7.610738277E-3,-2.502861023E-1,4.811100313E-1
1.486192552E1,1.785492599E-1,1.008670628E-1,-2.286100388E-1,3.071100005E-1
1.487192552E1,9.711250663E-2,1.228795052E-1,-2.379484177E-1,2.848677960E-1
1.488192552E1,3.957170248E-2,1.988783479E-2,-8.438205719E-2,9.529835878E-2
1.489192552E1,8.785833418E-2,-7.972210646E-3,-1.218509674E-2,8.905683360E-2
1.490192552E1,1.364447176E-2,-6.916496158E-2,-3.565378189E-1,3.634407515E-1
1.491192599E1,-9.617108107E-2,-7.241770625E-2,-1.142148972E-1,1.659465087E-1
1.492192599E1,-2.696983814E-1,-7.237234712E-2,5.016450882E-1,5.741278325E-1
1.493192599E1,-7.599847019E-2,7.045903802E-2,1.177441597E0,1.181993637E0
1.494192599E1,1.417861432E-1,4.075049460E-1,3.354015350E-1,5.464959113E-1
1.495192599E1,2.661923170E-1,4.684483111E-1,2.139186859E-2,5.392214590E-1
1.496192552E1,4.606490731E-1,1.451123059E-1,2.844629288E-1,5.605125402E-1
1.497192552E1,3.818386197E-1,-1.832699776E-2,8.571338654E-2,3.917695687E-1
1.498192552E1,5.755717307E-2,-9.187710285E-2,-3.668413162E-1,3.825268376E-1
1.499192552E1,-6.780230999E-2,-1.284617186E-1,-2.017478943E-1,2.485996364E-1
1.500192552E1,-2.070401013E-1,-5.407553911E-2,-5.823040009E-2,2.217668753E-1
1.501192552E1,-1.365949214E-1,3.125306964E-2,-1.254768372E-1,1.880940285E-1
1.502192578E1,-5.774576217E-2,9.435692430E-2,3.709983826E-2,1.166799049E-1
1.503192578E1,1.949038357E-3,1.078087687E-1,-7.564353943E-2,1.317136076E-1
1.504192578E1,4.187862575E-2,-1.018586755E-2,-4.231357574E-2,6.039875731E-2
1.505192579E1,6.522308290E-2,-2.465823293E-2,-3.528881073E-2,7.814972269E-2
1.506192579E1,1.272768080E-1,1.709090769E-1,2.111587524E-1,2.999955286E-1
1.507192579E1,1.169698685E-1,2.007945925E-1,-1.531028748E-1,2.782820669E-1
1.508192579E1,1.692696214E-1,6.055754423E-2,1.905345917E-2,1.807828952E-1
1.509192578E1,8.128970116E-2,-2.927771211E-2,5.243778229E-2,1.010688921E-1
1.510192578E1,-6.473144889E-2,-1.590795219E-1,5.241870880E-2,1.795666333E-1
1.511192578E1,-1.248903200E-1,-1.465872526E-1,-1.224317551E-1,2.281993631E-1
1.512192578E1,1.289271750E-2,-3.038525581E-2,5.222225189E-2,6.177903793E-2
1.513192579E1,8.782437071E-3,1.671791077E-3,-1.983070374E-2,2.175276757E-2
1.514192579E1,-9.431384504E-3,-7.506400347E-3,-1.775455475E-2,2.145975941E-2
1.515192579E1,-1.311940234E-2,-2.152875066E-2,-6.123065948E-2,6.621781848E-2
1.516192622E1,-3.025294840E-2,-1.107180119E-2,1.497650146E-2,3.552634606E-2
1.517192622E1,-6.825196743E-2,1.029172540E-2,4.989624023E-3,6.920366333E-2
1.518192622E1,-1.238662750E-1,3.496316075E-2,5.725097656E-2,1.408650098E-1
1.519192622E1,2.203387618E-1,3.187803030E-1,-1.020576477E0,1.091671378E0
1.520192622E1,2.458290160E-1,-2.248679549E-1,4.692745209E-2,3.364516131E-1
1.521192575E1,4.125559628E-1,1.929590404E-1,-2.642002106E-1,5.265333465E-1
1.522192575E1,6.648293138E-2,7.223942876E-2,-1.422319412E-1,1.728248834E-1
1.523192575E1,2.792014927E-2,2.944622934E-2,1.521759033E-1,1.574932402E-1
1.524192575E1,5.076452345E-2,2.538534999E-2,-1.783943176E-2,5.949536251E-2
1.525192575E1,7.133153081E-2,-6.886839867E-3,-1.552772522E-2,7.332616246E-2
1.526192575E1,-3.150058985E-1,1.310287714E-1,4.464750290E-1,5.619049800E-1
1.527192598E1,6.361454725E-2,-6.214241683E-2,-2.551574707E-1,2.702107056E-1
1.528192598E1,-3.878959268E-2,-4.401852190E-2,5.852699280E-3,5.896199505E-2
1.529192598E1,3.693582863E-2,4.936307669E-2,8.486080170E-2,1.048919656E-1
1.530192598E1,1.743185520E-2,3.906609118E-2,6.808376312E-2,8.040788429E-2
1.531192598E1,3.630089387E-2,5.551303923E-2,3.934478760E-2,7.711980765E-2
1.532192572E1,4.092864320E-2,1.000705361E-2,6.807518005E-2,8.005950971E-2
1.533192572E1,1.689537801E-2,1.712431014E-2,1.111707687E-1,1.137437278E-1
1.534192572E1,7.334914058E-3,5.130648613E-3,2.737045288E-2,2.879698266E-2
1.535192572E1,3.398539871E-2,1.481764019E-2,8.962440491E-2,9.699022498E-2
1.536192572E1,3.910062462E-2,1.702238619E-2,-3.758430481E-3,4.281058604E-2
1.537192572E1,2.959913202E-2,4.346659780E-2,1.063814163E-1,1.186695390E-1
1.538192572E1,3.004670329E-2,3.876718879E-2,1.779365540E-2,5.217579398E-2
1.539192572E1,3.257837892E-2,2.679422498E-2,3.694820404E-2,5.607540501E-2
1.540192572E1,2.559931204E-2,3.149162233E-2,2.258014679E-2,4.644254604E-2
1.541192615E1,1.640267111E-2,1.237741113E-2,4.173374176E-2,4.651830959E-2
1.542192615E1,1.683163084E-2,3.162366152E-2,7.286167145E-2,8.119225906E-2
1.543192615E1,3.870391101E-2,3.646126390E-2,5.370807648E-2,7.557760231E-2
1.544192615E1,2.963402867E-2,3.893584013E-2,1.061248779E-2,5.006795581E-2
1.545192615E1,-9.902529418E-4,2.700574696E-2,5.370903015E-2,6.012446166E-2
1.546192572E1,2.591300756E-2,4.170060158E-2,5.132293701E-2,7.102441831E-2
1.547192572E1,3.102102317E-2,3.162345290E-2,4.885864258E-2,6.595084235E-2
1.548192572E1,-4.528822377E-3,1.918454468E-2,3.442668915E-2,3.967056733E-2
1.549192572E1,-1.239066944E-3,1.188892126E-2,2.718448639E-2,2.969643137E-2
1.550192572E1,4.880789667E-3,3.130882978E-4,3.671455383E-2,3.703887951E-2
1.551192572E1,8.640632033E-3,2.500291169E-2,3.428459167E-2,4.330403377E-2
1.552192595E1,1.014580391E-2,1.844646037E-2,3.663730621E-2,4.225519428E-2
1.553192595E1,-2.258457243E-4,9.719237685E-3,2.941989899E-2,3.098459365E-2
1.554192595E1,-3.218263388E-3,8.422374725E-3,3.178501129E-2,3.303907623E-2
1.555192595E1,1.122059301E-3,9.715005755E-3,2.457714081E-2,2.645139324E-2
1.556192595E1,3.115842119E-3,1.482725143E-3,6.046772003E-2,6.056609705E-2
1.557192572E1,-4.081739113E-3,1.776842773E-2,4.848575592E-2,5.180005932E-2
1.558192572E1,5.322465673E-3,1.225219667E-2,2.692031860E-2,3.005242948E-2
1.559192572E1,7.543768734E-3,2.323795855E-2,4.844665527E-2,5.425854376E-2
1.560192572E1,1.925861090E-2,1.025438309E-2,3.166389465E-2,3.845320131E-2
1.561192572E1,3.084978834E-2,-2.630978823E-3,3.403854370E-2,4.601362784E-2
1.562192572E1,6.252424791E-3,-8.191600442E-3,6.754302979E-2,6.832463689E-2
1.563192572E1,2.010901086E-2,-1.092411578E-2,4.119873047E-2,4.712795365E-2
1.564192572E1,-4.406990483E-3,-8.640170097E-3,2.683258057E-2,2.853176273E-2
1.565192572E1,-7.455633953E-3,-8.638411760E-3,1.725673676E-2,2.068824784E-2
1.566192618E1,2.082127705E-2,8.270666003E-3,3.402328491E-2,4.073712570E-2
1.567192618E1,8.977185935E-4,-6.194844842E-3,2.444553375E-2,2.523422521E-2
1.568192618E1,1.297912933E-2,3.325700760E-3,3.641510010E-2,3.880177314E-2
1.569192618E1,-4.280734807E-3,1.288047433E-2,2.923297882E-2,3.223039497E-2
1.570192618E1,5.365315825E-3,8.160397410E-3,3.162860870E-2,3.310207831E-2
1.571192575E1,5.011383444E-3,7.798045874E-3,3.162193298E-2,3.295254359E-2
1.572192575E1,-1.162903756E-2,6.167590618E-4,4.359245300E-2,4.512113546E-2
1.573192575E1,2.587582916E-3,9.740650654E-3,5.076599121E-2,5.175675535E-2
1.574192575E1,-2.423096448E-3,1.159380376E-2,4.596519470E-2,4.746669154E-2
1.575192575E1,-4.908964038E-3,1.554608345E-3,5.792617798E-2,5.815459423E-2
1.576192575E1,1.680784672E-2,-6.474405527E-4,3.638172150E-2,4.008182319E-2
1.577192598E1,1.693630591E-2,1.856642962E-2,3.159427643E-2,4.037015073E-2
1.578192598E1,7.217686623E-3,3.925025463E-3,3.158855438E-2,3.263950969E-2
1.579192598E1,-1.471839845E-2,-1.089669764E-2,5.073451996E-2,5.393849078E-2
1.580192598E1,-7.708432153E-3,-8.852705359E-3,3.875541687E-2,4.049410643E-2
1.581192598E1,1.378210261E-2,-4.055127501E-3,3.875637054E-2,4.133336025E-2
1.582192575E1,-5.747664720E-3,1.737275720E-2,2.678298950E-2,3.243727592E-2
1.583192575E1,-7.901825011E-4,-1.708760858E-3,3.875541687E-2,3.880111582E-2
1.584192575E1,-5.451716483E-3,-3.924086690E-3,4.354763031E-2,4.406263468E-2
1.585192575E1,-2.948790789E-3,-1.104438305E-2,1.721096039E-2,2.066133881E-2
1.586192575E1,-1.714791171E-2,-1.338495314E-2,5.073165894E-2,5.519881398E-2
1.587192575E1,-9.775422513E-3,-1.331508160E-2,5.312728882E-2,5.563595151E-2
1.588192575E1,5.278864875E-3,-7.357001305E-4,3.877258301E-2,3.913720560E-2
1.589192575E1,1.004845463E-2,8.844524622E-3,3.877353668E-2,4.101931500E-2
1.590192575E1,1.723295078E-2,1.542493701E-3,3.877067566E-2,4.245608520E-2
1.591192581E1,7.648633793E-3,-3.165483475E-3,3.158950806E-2,3.265606994E-2
1.592192581E1,2.313943580E-3,-1.746696234E-2,6.990051270E-2,7.208696681E-2
1.593192581E1,1.155818999E-2,-2.196626365E-2,6.272506714E-2,6.745770929E-2
1.594192581E1,-8.027898148E-3,-4.921302199E-3,3.160762787E-2,3.298042607E-2
1.595192581E1,-8.376250044E-3,1.468299329E-2,3.401470184E-2,3.798357274E-2
1.596192535E1,-1.379515976E-3,2.541542053E-3,4.598140717E-2,4.607225092E-2
