"Time (s)","Linear Acceleration x (m/s^2)","Linear Acceleration y (m/s^2)","Linear Acceleration z (m/s^2)","Absolute acceleration (m/s^2)"
0.000000000E0,-2.244687080E-2,1.091203690E-1,9.970903397E-1,1.003294704E0
1.000000000E-2,-2.245013416E-2,1.091269255E-1,9.970903397E-1,1.003295490E0
1.950000000E-2,-6.033034623E-2,1.406644583E-1,3.216171265E-2,1.563989011E-1
2.916666600E-2,-6.637057662E-2,1.283637285E-1,4.647636414E-2,1.517970773E-1
3.891666600E-2,-7.363179326E-2,1.244573593E-1,-3.025531769E-2,1.477384835E-1
4.871666600E-2,-7.914680243E-2,1.242996454E-1,-9.001827240E-2,1.726786251E-1
5.855249900E-2,-1.008597612E-1,9.553742409E-2,-3.240871429E-2,1.426548828E-1
6.840964100E-2,-7.821851969E-2,8.999383450E-2,6.078624725E-2,1.338357012E-1
7.828464100E-2,-7.607048750E-2,7.507944107E-2,7.459354401E-2,1.303374020E-1
8.817352900E-2,-3.184673190E-2,6.796646118E-2,-2.689075470E-2,7.972933504E-2
9.807502900E-2,-1.178517938E-2,5.408120155E-2,-1.094818115E-2,5.642277452E-2
1.079841190E-1,-4.347541928E-2,7.193195820E-2,1.002874374E-1,1.308506355E-1
1.179007850E-1,-3.464457393E-2,5.550479889E-2,1.327629089E-1,1.480101996E-1
1.278238610E-1,-7.088214159E-3,7.452416420E-2,1.933488846E-1,2.073351996E-1
1.377524320E-1,2.678272128E-2,8.158481121E-2,1.392068863E-1,1.635602420E-1
1.476857650E-1,1.316878200E-2,4.804265499E-2,2.057266235E-2,5.389571369E-2
1.576232650E-1,5.478048325E-2,3.008937836E-2,-6.969833374E-2,9.361693095E-2
1.675649120E-1,3.124722838E-2,2.961182594E-2,-1.873016357E-2,4.694750840E-2
1.775093560E-1,3.540188074E-2,9.893894196E-3,2.249145508E-2,4.309347809E-2
1.874567240E-1,5.698522925E-2,-4.527568817E-4,1.158237457E-1,1.290839317E-1
1.974067240E-1,2.829027176E-2,1.137435436E-2,2.253885269E-1,2.274416485E-1
2.073591040E-1,1.371234655E-3,4.751658440E-2,2.943325043E-1,2.981464894E-1
2.173136490E-1,3.839571774E-2,5.336248875E-2,3.423538208E-1,3.486085555E-1
2.272701700E-1,-3.693279624E-2,3.502440453E-2,1.914854050E-1,1.981348043E-1
2.371868360E-1,-1.344764829E-1,-1.433455944E-2,1.271791458E-1,1.856446583E-1
2.471068360E-1,2.237227559E-2,-1.306816339E-1,1.848020554E-1,2.274423176E-1
2.570300280E-1,-1.323037446E-1,4.850559235E-1,-2.972574234E-1,5.840766264E-1
2.669559530E-1,-1.492497623E-1,-1.001548767E-1,-2.742395401E-1,3.278929951E-1
2.768850950E-1,4.554569721E-3,2.825140953E-3,1.107721329E-1,1.109017175E-1
2.868161290E-1,-2.284553647E-2,-8.614850044E-2,2.756729126E-1,2.897223454E-1
2.967494620E-1,-2.045482397E-2,-6.758975983E-2,2.733078003E-1,2.822834199E-1
3.066827950E-1,-2.520952523E-1,-5.276262760E-2,9.171676636E-2,2.734005785E-1
3.166494610E-1,-6.915628910E-4,2.425968647E-2,1.661605835E-1,1.679236438E-1
3.266161270E-1,1.493759751E-1,9.586334229E-3,-3.255653381E-2,1.531829222E-1
3.365827930E-1,4.733181000E-2,-1.898789406E-2,-2.127656937E-1,2.187923234E-1
3.465494590E-1,-7.484650612E-2,1.339352131E-2,-4.067440033E-1,4.137898864E-1
3.565156250E-1,-8.814024925E-2,-1.774907112E-3,-2.660112381E-1,2.802388849E-1
3.664822910E-1,1.407891512E-2,-3.809845448E-2,7.531070709E-2,8.556524228E-2
3.764489570E-1,-2.238655090E-2,-5.699539185E-2,2.226591110E-1,2.309257718E-1
3.864156230E-1,-9.455609322E-2,-5.093491077E-2,6.088972092E-1,6.182968795E-1
3.963817890E-1,-3.825262189E-2,-5.015087128E-2,6.762304306E-1,6.791656412E-1
4.063484550E-1,-1.991355419E-1,2.407824993E-2,3.072748184E-1,3.669503239E-1
4.163156210E-1,-2.016023397E-1,7.637858391E-2,-1.154956818E-1,2.445740051E-1
4.262822870E-1,6.748613715E-2,8.183014393E-2,-4.091472626E-1,4.226724898E-1
4.362489530E-1,4.331487417E-2,2.062523365E-2,5.040550232E-2,6.958658816E-2
4.462156190E-1,7.649591565E-2,-1.040101051E-2,3.592004776E-1,3.674027616E-1
4.561494520E-1,8.432114124E-2,-3.782641888E-2,2.398462296E-1,2.570352245E-1
4.660825180E-1,1.888982654E-1,-9.888720512E-2,-1.401977539E-1,2.551796312E-1
4.760158510E-1,2.777220607E-1,-4.100966454E-2,-4.242420197E-2,2.839210251E-1
4.859491840E-1,6.150035858E-1,1.271811724E-1,2.999715805E-1,6.959794611E-1
4.958829840E-1,-4.324018955E-4,-9.154558182E-3,4.925355911E-1,4.926208496E-1
5.058163170E-1,7.705643773E-2,2.515828609E-2,4.145765305E-1,4.224267198E-1
5.157496500E-1,-3.531603515E-2,-3.878235817E-3,3.753385544E-1,3.770163040E-1
5.256829830E-1,-1.581454873E-1,-3.686463833E-2,2.451953888E-1,2.940914405E-1
5.356496490E-1,-1.877208054E-1,-7.128632069E-2,2.184123993E-1,2.966897647E-1
5.456163150E-1,-1.975103915E-1,-2.133727074E-3,1.909132004E-1,2.747048555E-1
5.555828810E-1,-2.222859859E-1,-3.310453892E-2,1.220798492E-1,2.557546864E-1
5.655495470E-1,-2.327477634E-1,-2.951717377E-2,5.528640747E-2,2.410381127E-1
5.755156800E-1,-2.474242747E-1,-3.099882603E-2,3.334045410E-3,2.493808629E-1
5.854823460E-1,-3.069809973E-1,-6.894600391E-2,-3.870677948E-2,3.170001561E-1
5.954490120E-1,-2.655809224E-1,-3.233194351E-2,-9.267234802E-2,2.831373253E-1
6.054156780E-1,-7.510238886E-2,5.509543419E-2,-2.632837296E-1,2.792744133E-1
6.153823440E-1,5.191901326E-2,2.224159241E-2,-2.393150330E-1,2.458901327E-1
6.253490100E-1,1.104734838E-1,-2.076169848E-1,-2.570724487E-2,2.365799346E-1
6.353157430E-1,3.103867173E-2,-3.030397892E-1,-3.753948212E-2,3.069295126E-1
6.452824090E-1,-7.865577936E-2,-1.961824894E-1,3.828048706E-2,2.148015281E-1
6.552490750E-1,-3.773516417E-2,-5.470371246E-2,8.577442169E-2,1.085066366E-1
6.652157410E-1,1.037394404E-1,2.188631296E-1,-3.955173492E-2,2.454124706E-1
6.751824070E-1,1.523970664E-1,2.509108782E-1,8.886337280E-3,2.937007007E-1
6.851490730E-1,1.160232425E-1,1.777231693E-2,3.975162506E-1,4.144833139E-1
6.951157390E-1,1.295831800E-2,-2.809250355E-2,4.653673172E-1,4.663945183E-1
7.050824050E-1,-6.382277608E-2,-4.710233212E-2,3.488254547E-1,3.577305890E-1
7.150485710E-1,-5.207270384E-2,-1.680517197E-2,3.548240662E-1,3.590182422E-1
7.250152370E-1,-1.328262091E-1,-1.157752872E-1,3.636932373E-1,4.041280611E-1
7.349819030E-1,-1.435051560E-1,-2.570596337E-1,3.500080109E-1,4.573608999E-1
7.449490360E-1,-8.113342524E-2,-4.251239896E-1,3.222999573E-1,5.396205164E-1
7.549490020E-1,4.197502136E-2,-3.496700525E-1,2.727069855E-1,4.454213151E-1
7.649490020E-1,4.406826496E-1,-2.901515365E-1,8.496379852E-2,5.344230149E-1
7.749490020E-1,5.445131063E-1,-2.562921047E-1,1.014614105E-1,6.103069586E-1
7.849490020E-1,5.165911317E-1,-1.557394266E-1,1.926565170E-1,5.729203260E-1
7.949485350E-1,3.034492433E-1,-2.408421040E-2,1.686868668E-1,3.480183206E-1
8.049485350E-1,6.637129188E-2,1.276783943E-1,2.387914658E-1,2.787979284E-1
8.149485350E-1,1.441304386E-2,1.417118311E-1,3.476171494E-1,3.756696174E-1
8.249485350E-1,2.518883348E-2,1.029658914E-1,5.189170837E-1,5.296332617E-1
8.349485350E-1,1.440339684E-1,-9.549796581E-3,6.368942261E-1,6.530476536E-1
8.449485350E-1,3.879707456E-1,-1.673180461E-1,6.236114502E-1,7.532648065E-1
8.549485350E-1,3.890587091E-1,-1.752433181E-1,5.625228882E-1,7.060516266E-1
8.649485350E-1,2.545218766E-1,-3.455654383E-1,5.330286026E-1,6.843364297E-1
8.749485350E-1,1.599067003E-1,-3.828457594E-1,4.879255295E-1,6.404782202E-1
8.849490350E-1,2.312514931E-2,-2.626974285E-1,1.749114990E-1,3.164470634E-1
8.949490350E-1,-3.556253389E-2,-1.324681342E-1,7.663249969E-2,1.571147364E-1
9.049490350E-1,-2.293713205E-2,5.629128218E-2,5.388164520E-2,8.122839507E-2
9.149490350E-1,2.600298636E-2,1.415022016E-1,6.631660461E-2,1.584200757E-1
9.249490350E-1,1.991312206E-1,1.210910678E-1,1.297426224E-1,2.667385195E-1
9.349489680E-1,2.856803238E-1,6.213891506E-2,5.663490295E-2,2.977952391E-1
9.449489680E-1,3.470119238E-1,-2.114713192E-2,-7.429313660E-2,3.555051991E-1
9.549489680E-1,3.165524006E-1,-5.927753448E-2,-1.146287918E-1,3.418464689E-1
9.649489680E-1,3.484507203E-1,-1.289391518E-2,-1.407184601E-1,3.760130883E-1
9.749489680E-1,2.979828715E-1,1.904672384E-2,-1.037311554E-1,3.160960645E-1
9.849489680E-1,2.288908958E-1,6.546026468E-2,1.025009155E-2,2.382879620E-1
9.949489680E-1,2.204808295E-1,7.189679146E-2,-8.230209351E-4,2.319086504E-1
1.004948968E0,1.555869281E-1,2.139705420E-2,-9.566593170E-2,1.838942539E-1
1.014948968E0,1.303321719E-1,-7.212698460E-2,-9.469127655E-2,1.765083987E-1
1.024948968E0,1.272273362E-1,-2.022901177E-1,-1.726064682E-1,2.947898907E-1
1.034948968E0,1.205052733E-1,-2.635316849E-1,-1.283187866E-1,3.169166781E-1
1.044948501E0,1.680818796E-1,-1.559773684E-1,-2.157497406E-1,3.148466425E-1
1.054948034E0,2.379912734E-1,-3.555011749E-2,-2.387704849E-1,3.389911526E-1
1.064948034E0,2.236179709E-1,1.495963335E-2,-2.141857147E-1,3.100069482E-1
1.074948034E0,1.690100729E-1,-4.208558798E-2,-1.276426315E-1,2.159357378E-1
1.084948034E0,1.594281197E-1,-8.617949486E-2,-5.583763123E-3,1.813157717E-1
1.094948034E0,2.133234441E-1,-7.434093952E-2,3.703212738E-2,2.289210466E-1
1.104948034E0,3.317999840E-1,-1.871768236E-1,1.748666763E-1,4.191715009E-1
1.114948034E0,3.269313574E-1,-2.664693892E-1,2.695121765E-1,5.005265838E-1
1.124948034E0,2.598429620E-1,-2.926261425E-1,2.924184799E-1,4.885253234E-1
1.134948534E0,1.399447620E-1,-2.631926835E-1,3.012094498E-1,4.237712327E-1
1.144948534E0,-1.790596843E-1,-2.945249975E-1,2.121782303E-1,4.047554151E-1
1.154948534E0,-3.360124230E-1,-2.644448578E-1,1.689014435E-1,4.597424593E-1
1.164948534E0,-2.376237065E-1,-2.412852645E-1,2.167034149E-1,4.020497168E-1
1.174948534E0,-1.643194854E-1,-1.976574063E-1,2.789077759E-1,3.792873462E-1
1.184948034E0,-1.731338203E-1,-1.905797720E-1,2.788476944E-1,3.795418368E-1
1.194948034E0,-3.478436470E-1,-2.689540386E-2,2.284317017E-1,4.170127190E-1
1.204948034E0,-5.555714965E-1,-1.047592461E-1,1.277427673E-1,5.796140112E-1
1.214948034E0,-5.554847717E-1,-1.041321456E-1,1.277036667E-1,5.794092352E-1
1.224948034E0,-8.360871077E-1,-2.663757801E-1,-3.264808655E-2,8.781022750E-1
1.234948034E0,-7.967222929E-1,-2.052340209E-1,-9.010124207E-2,8.276506806E-1
1.244948567E0,-6.098033190E-1,-1.844541132E-1,-1.692647934E-1,6.591919129E-1
1.254948567E0,-5.008702278E-1,-1.761038303E-1,-1.887969971E-1,5.634960961E-1
1.264948567E0,-3.455272913E-1,-9.493088722E-2,-1.056671143E-1,3.735860295E-1
1.274948567E0,-2.774907947E-1,-9.389844537E-2,-3.607749939E-3,2.929694097E-1
1.284948567E0,-2.220907360E-1,-1.711395681E-1,6.960201263E-2,2.888900949E-1
1.294949100E0,-3.247224092E-1,-2.437569201E-1,9.484100342E-2,4.169615031E-1
1.304949100E0,-6.586769819E-1,-3.546807766E-1,5.312633514E-2,7.499841514E-1
1.314949100E0,-7.781518698E-1,-2.875498831E-1,1.337337494E-1,8.402916062E-1
1.324949100E0,-8.321351409E-1,-9.319415689E-2,2.673120499E-1,8.789708616E-1
1.334949100E0,-8.180873990E-1,-4.908418655E-2,3.460845947E-1,8.896352042E-1
1.344949100E0,-6.319954395E-1,-5.222240090E-2,4.035329819E-1,7.516543635E-1
1.354949633E0,-5.616656542E-1,-1.088228524E-1,3.726520538E-1,6.827739549E-1
1.364949633E0,-3.538429141E-1,-1.876274645E-1,2.414197922E-1,4.676455809E-1
1.374949633E0,-2.872628272E-1,-1.652132273E-1,1.775331497E-1,3.759432957E-1
1.384950133E0,-1.678416580E-1,-9.197100997E-2,5.890274048E-2,2.002474012E-1
1.394950133E0,-1.110817939E-1,-4.791855812E-2,1.478195190E-2,1.218764097E-1
1.404950133E0,-1.870836914E-1,4.312747717E-2,-6.032657623E-2,2.012450811E-1
1.414950133E0,-2.940375209E-1,5.432265997E-2,-1.043567657E-1,3.167007257E-1
1.424950133E0,-4.250563681E-1,5.455374718E-2,-1.582145691E-1,4.568160213E-1
1.434949633E0,-5.121266842E-1,2.343761921E-2,-1.262550354E-1,5.279804889E-1
1.444949633E0,-6.493831873E-1,-6.068348885E-2,-6.074905396E-3,6.522406873E-1
1.454949633E0,-6.750469208E-1,-9.539240599E-2,6.061553955E-3,6.817806090E-1
1.464949233E0,-6.542866230E-1,-9.353524446E-2,6.585597992E-2,6.642114400E-1
1.474949233E0,-6.109365225E-1,-1.329332590E-1,8.249473572E-2,6.306505112E-1
1.484949233E0,-6.582090855E-1,-2.931256890E-1,1.304168701E-1,7.322365941E-1
1.494949699E0,-7.165418267E-1,-3.187666237E-1,7.078742981E-2,7.874358451E-1
1.504949699E0,-6.655712724E-1,-2.921029627E-1,5.208206177E-2,7.287124265E-1
1.514949699E0,-5.761860609E-1,-3.399841487E-1,1.929283142E-2,6.692920226E-1
1.524949699E0,-4.798127413E-1,-3.517170548E-1,-7.308006287E-2,5.993878952E-1
1.534949699E0,-5.088077784E-1,-3.198619485E-1,-1.077995300E-1,6.105880445E-1
1.544949165E0,-5.201760530E-1,-3.203001022E-1,-7.541084290E-2,6.155177308E-1
1.554949165E0,-5.516381264E-1,-3.085271716E-1,-3.110790253E-2,6.328201480E-1
1.564949165E0,-4.855740070E-1,-1.949141026E-1,1.065349579E-2,5.233422596E-1
1.574949165E0,-6.247360706E-1,-3.903996944E-2,9.526729584E-2,6.331628028E-1
1.584949165E0,-3.923442364E-1,-1.123844981E-1,1.030836105E-1,4.209400266E-1
1.594949165E0,-2.493669093E-1,-9.755724669E-2,3.649902344E-2,2.702470176E-1
1.604949165E0,-1.990264654E-1,-1.178968549E-1,-1.449346542E-1,2.729784906E-1
1.614949165E0,-1.822010279E-1,-1.276932955E-1,-2.017641068E-1,3.003523715E-1
1.624949165E0,-1.512169242E-1,-1.389219165E-1,-3.113183975E-1,3.729410164E-1
1.634949665E0,-1.456236839E-1,-1.067643166E-1,-3.444900513E-1,3.889450759E-1
1.644949665E0,-1.926803887E-1,-1.331421733E-1,-3.611612320E-1,4.304532565E-1
1.654949131E0,-2.829390764E-1,-9.336137772E-2,-2.919063568E-1,4.171093250E-1
1.664949131E0,-3.585766554E-1,-9.027856588E-2,-8.885955811E-2,3.802939104E-1
1.674949131E0,-3.554207683E-1,-7.121706009E-2,1.097965240E-2,3.626518233E-1
1.684948631E0,-3.239662051E-1,-6.820964813E-2,1.274127960E-1,3.547402976E-1
1.694948631E0,-3.140727878E-1,-7.560592890E-2,2.054595947E-1,3.828467286E-1
1.704948631E0,-2.020916343E-1,-7.868504524E-2,3.961439133E-1,4.516219271E-1
1.714948631E0,-6.912946701E-2,5.172431469E-3,4.361486435E-1,4.416234555E-1
1.724948631E0,8.099365234E-2,9.045124054E-3,4.188938141E-1,4.267479508E-1
1.734948631E0,8.457100391E-2,-1.637119055E-2,4.210090637E-1,4.297311977E-1
1.744949097E0,1.242995262E-3,3.263044357E-2,2.868270874E-1,2.886798728E-1
1.754949097E0,-6.029391289E-2,3.740811348E-2,2.460803986E-1,2.561060043E-1
1.764949497E0,1.606291533E-2,-8.143424988E-3,2.652521133E-1,2.658627771E-1
1.774949497E0,6.670814753E-2,-8.334994316E-3,3.013010025E-1,3.087098042E-1
1.784949497E0,7.515549660E-4,-5.942779779E-2,3.063659668E-1,3.120774481E-1
1.794949030E0,-1.213513911E-1,-1.879715919E-2,2.182235718E-1,2.504017184E-1
1.804949030E0,-3.411558867E-1,-7.331824303E-2,1.564979553E-1,3.824323650E-1
1.814949030E0,-4.153473973E-1,-1.344979107E-1,1.044912338E-1,4.489115352E-1
1.824949030E0,-4.638322294E-1,-1.231185198E-1,1.268510818E-1,4.963765747E-1
1.834949030E0,-5.339455009E-1,-7.482731342E-2,1.277599335E-1,5.540934265E-1
1.844949030E0,-6.378446221E-1,2.418452501E-2,1.980895996E-1,6.683338557E-1
1.854949030E0,-7.705440521E-1,7.414835691E-2,3.353843689E-1,8.436342750E-1
1.864949030E0,-9.455794692E-1,-6.577670574E-3,5.970621109E-1,1.118323282E0
1.874949030E0,-8.974526525E-1,-1.456491351E-1,7.460680008E-1,1.176117509E0
1.884949530E0,-7.986302376E-1,-3.455387950E-1,7.466630936E-1,1.146609389E0
1.894948996E0,-7.443104386E-1,-3.596439958E-1,6.421070099E-1,1.046729786E0
1.904948562E0,-7.278248072E-1,-3.180099428E-1,4.445476532E-1,9.102098053E-1
1.914948562E0,-8.137999773E-1,-2.768476605E-1,3.026056290E-1,9.113096054E-1
1.924948562E0,-8.473591805E-1,-1.954566836E-1,6.301975250E-2,8.718901221E-1
1.934948062E0,-6.245799065E-1,-3.268685341E-1,-9.469795227E-2,7.112740683E-1
1.944948062E0,-2.395453155E-1,-5.252583027E-1,-1.274461746E-1,5.912028164E-1
1.954948062E0,-1.195364594E-1,-5.479408503E-1,-1.428918839E-1,5.787453939E-1
1.964948062E0,-1.081861854E-1,-2.899211049E-1,-1.098241806E-1,3.283593282E-1
1.974948062E0,-1.584502757E-1,-1.442750692E-1,-1.505613327E-1,2.618978816E-1
1.984948062E0,-3.026351333E-1,4.085958004E-2,-1.551561356E-1,3.425360646E-1
1.994948528E0,-3.628259301E-1,5.372321606E-2,-1.597213745E-1,4.000496931E-1
2.004948528E0,-3.232079744E-1,-1.074345112E-1,-1.931495667E-1,3.915511768E-1
2.014948528E0,-3.250289261E-1,-1.867220402E-1,-2.124643326E-1,4.308712287E-1
2.024948528E0,-3.281761110E-1,-1.539292336E-1,-2.416257858E-1,4.356337787E-1
2.034948528E0,-3.427080214E-1,-1.694334745E-1,-2.544488907E-1,4.592392930E-1
2.044948061E0,-3.753146827E-1,-2.641898990E-1,-2.007341385E-1,5.009507043E-1
2.054948061E0,-4.047424495E-1,-2.705180049E-1,-1.978168488E-1,5.254787789E-1
2.064948061E0,-2.663068473E-1,-3.775736094E-1,-2.602214813E-1,5.302795364E-1
2.074948594E0,-1.376259327E-1,-3.485625982E-1,-2.564163208E-1,4.540772091E-1
2.084948594E0,1.294215322E-1,-3.183004856E-1,-2.148504257E-1,4.052478717E-1
2.094948594E0,1.293286085E-1,-2.884600163E-1,-1.858186722E-1,3.666928536E-1
2.104948594E0,9.498250484E-2,-1.148409843E-1,-1.308431625E-1,1.983180806E-1
2.114948594E0,4.176604748E-2,-2.286219597E-2,-1.024322510E-1,1.129577300E-1
2.124948594E0,-2.536654472E-2,2.793002129E-2,5.027389526E-2,6.285707777E-2
2.134949094E0,-6.589460373E-2,3.001415730E-2,7.354831696E-2,1.032099964E-1
2.144949094E0,-1.555266380E-1,-8.404374123E-3,1.326704025E-1,2.045986421E-1
2.154949094E0,-2.115798593E-1,-3.602766991E-2,1.512737274E-1,2.625790747E-1
2.164949094E0,-2.901648283E-1,-1.091783643E-1,1.248016357E-1,3.342020214E-1
2.174949094E0,-3.989678025E-1,-1.322056055E-1,1.299219131E-1,4.399242356E-1
2.184948594E0,-4.167087078E-1,-1.067847013E-1,1.498832703E-1,4.555371712E-1
2.194948594E0,-3.826430440E-1,-8.477711678E-2,1.200551987E-1,4.098976816E-1
2.204949027E0,-2.144134641E-1,-7.709461451E-2,5.461788177E-2,2.343071193E-1
2.214949027E0,-1.480656862E-1,-9.002763033E-2,4.916286469E-2,1.801260917E-1
2.224949027E0,-4.584085941E-2,-1.459071636E-1,1.012477875E-1,1.834159188E-1
2.234949027E0,-4.644715786E-2,-7.229220867E-2,1.653575897E-1,1.863508368E-1
2.244949493E0,9.797990322E-2,1.354974508E-2,2.485265732E-1,2.674866625E-1
2.254949959E0,1.539056301E-1,3.275531530E-2,2.572212219E-1,3.015337637E-1
2.264949959E0,2.156299353E-1,5.936861038E-3,3.135137558E-1,3.805553710E-1
2.274949959E0,2.201089859E-1,-8.207321167E-3,2.978754044E-1,3.704660340E-1
2.284949959E0,1.839616299E-1,3.523552418E-2,2.151479721E-1,2.852579067E-1
2.294949492E0,1.296933889E-1,1.913905144E-2,1.633405685E-1,2.094440731E-1
2.304949492E0,-7.634663582E-2,-1.340979338E-1,2.404212952E-1,2.856807026E-1
2.314949492E0,-2.242254615E-1,-2.251419425E-1,2.931823730E-1,4.323446030E-1
2.324949492E0,-5.576973557E-1,-2.588030696E-1,2.928323746E-1,6.809964530E-1
2.334949492E0,-7.093606591E-1,-2.230722904E-1,3.182458878E-1,8.088474742E-1
2.344949492E0,-8.246684074E-1,-1.774994731E-1,3.313121796E-1,9.062846162E-1
2.354949492E0,-8.113675714E-1,-2.084408998E-1,3.681068420E-1,9.150232739E-1
2.364949492E0,-7.756165862E-1,-2.278700471E-1,3.665351868E-1,8.876113397E-1
2.374949492E0,-7.069270611E-1,-1.983642578E-1,3.217802048E-1,8.016462740E-1
2.384949992E0,-6.109797955E-1,-1.682931781E-1,2.411785126E-1,6.780752017E-1
2.394949992E0,-5.668463111E-1,-9.224522114E-2,2.351713181E-1,6.205880035E-1
2.404949992E0,-4.199445844E-1,-2.942901850E-2,2.679023743E-1,4.989901835E-1
2.414949992E0,-3.676772118E-1,-4.391282797E-2,2.771892548E-1,4.625459452E-1
2.424949992E0,-4.173678756E-1,-5.945628881E-2,3.325138092E-1,5.369324233E-1
2.434949492E0,-4.246287942E-1,-8.885002136E-2,3.428831100E-1,5.529672380E-1
2.444949492E0,-4.489200711E-1,-8.975243568E-2,4.424018860E-1,6.366350279E-1
2.454949492E0,-4.305102229E-1,-1.050881147E-1,4.227809906E-1,6.124755749E-1
2.464949492E0,-3.902580142E-1,-1.341857314E-1,3.463659286E-1,5.387731291E-1
2.474949492E0,-4.232772589E-1,-9.743773937E-2,2.609329224E-1,5.066988661E-1
2.484949492E0,-5.016710758E-1,-3.750920296E-3,1.255445480E-1,5.171550747E-1
2.494949492E0,-5.522218347E-1,-1.504725218E-2,1.865663528E-1,5.830800790E-1
2.504949492E0,-5.004805923E-1,-2.267509699E-2,1.924886703E-1,5.366999827E-1
2.514949492E0,-4.373803139E-1,-6.171351671E-2,1.692543030E-1,4.730297202E-1
2.524949492E0,-3.304919004E-1,-1.435622573E-1,1.573390961E-1,3.931801230E-1
2.534949492E0,-2.557073832E-1,-2.270881534E-1,1.257743835E-1,3.643823414E-1
2.544949025E0,-1.957246065E-1,-1.850175261E-1,8.881759644E-2,2.835986107E-1
2.554948558E0,-2.352884412E-1,-1.222637892E-1,8.484840393E-2,2.784031903E-1
2.564948558E0,-3.780117035E-1,-1.223200560E-1,8.285331726E-2,4.058567681E-1
2.574948558E0,-5.032541156E-1,-1.712636352E-1,1.141872406E-1,5.437229658E-1
2.584948558E0,-7.311669588E-1,-3.127223849E-1,3.051567078E-2,7.958213479E-1
2.594948558E0,-7.768514752E-1,-3.828797340E-1,-9.855270386E-2,8.716695135E-1
2.604948558E0,-8.400407434E-1,-3.750150204E-1,-2.489023209E-1,9.530252260E-1
2.614948558E0,-7.808052301E-1,-3.198422790E-1,-2.815628052E-1,8.895130713E-1
2.624948558E0,-6.569753289E-1,-2.064158916E-1,-2.996311188E-1,7.510012720E-1
2.634949058E0,-5.643578172E-1,-2.011680603E-1,-3.320007324E-1,6.849765110E-1
2.644949058E0,-3.767937422E-1,-2.575347424E-1,-2.233839035E-1,5.081319081E-1
2.654949058E0,-2.929748297E-1,-3.444879055E-1,-6.477069855E-2,4.568384958E-1
2.664949058E0,-1.121249795E-1,-2.848868370E-1,-1.175689697E-2,3.063833311E-1
2.674949024E0,-1.885080338E-2,-2.030440569E-1,4.552745819E-2,2.089377689E-1
2.684948524E0,1.921786070E-1,-9.475338459E-2,1.335592270E-1,2.524854213E-1
2.694948524E0,2.373121977E-1,-1.121093035E-1,1.305170059E-1,2.931215856E-1
2.704948524E0,9.439146519E-2,-1.130132675E-1,1.896591187E-1,2.401089932E-1
2.714948524E0,1.181781292E-2,-1.772093773E-1,2.584733963E-1,3.136101413E-1
2.724948524E0,-1.692050695E-1,-1.182713509E-1,2.868089676E-1,3.533806048E-1
2.734948524E0,-2.198846936E-1,-3.872871399E-2,2.577104568E-1,3.409748837E-1
2.744948990E0,-2.334765196E-1,6.840181351E-2,3.148536682E-1,3.978981348E-1
2.754948990E0,-1.629262567E-1,5.432343483E-2,3.290863037E-1,3.712058674E-1
2.764948990E0,4.727339745E-2,4.065537453E-2,3.315601349E-1,3.373718373E-1
2.774948990E0,2.334771752E-1,4.339528084E-2,4.206399918E-1,4.830452820E-1
2.784948990E0,5.736368895E-1,7.208800316E-2,5.749473572E-1,8.153652094E-1
2.794948990E0,6.956261396E-1,3.110206127E-2,5.048599243E-1,8.600852327E-1
2.804948990E0,5.629127622E-1,-2.284154892E-1,4.307804108E-1,7.447255708E-1
2.814948990E0,3.566907048E-1,-3.677617311E-1,3.170719147E-1,6.025043974E-1
2.824948990E0,-1.541045904E-1,-5.040967464E-1,1.444768906E-1,5.465668545E-1
2.834948990E0,-4.515986443E-1,-5.307826996E-1,1.213045120E-1,7.073799505E-1
2.844948990E0,-7.205401659E-1,-5.210182667E-1,2.731952667E-1,9.302009561E-1
2.854948990E0,-7.675398588E-1,-5.911552906E-1,3.029222488E-1,1.015058570E0
2.864948990E0,-7.824943066E-1,-5.368038416E-1,1.450366974E-1,9.599434086E-1
2.874948990E0,-8.053331375E-1,-6.028962135E-1,1.800012589E-1,1.021981291E0
2.884949490E0,-7.123786807E-1,-5.802308321E-1,2.048664093E-1,9.413402408E-1
2.894949490E0,-6.259607673E-1,-5.434323549E-1,1.742467880E-1,8.470581737E-1
2.904949490E0,-4.320796728E-1,-3.916577101E-1,2.390480042E-1,6.302638763E-1
2.914949490E0,-3.220182657E-1,-2.624891996E-1,2.747631073E-1,4.980874507E-1
2.924949490E0,-1.676697731E-1,-1.596003771E-1,2.765197754E-1,3.606225442E-1
2.934948990E0,-2.015661001E-1,-2.143307924E-1,3.998994827E-1,4.964737431E-1
2.944948990E0,-3.311095834E-1,-3.941482306E-1,4.799346924E-1,7.037923648E-1
2.954948990E0,-3.388502896E-1,-4.097856283E-1,4.135799408E-1,6.736409632E-1
2.964948990E0,-3.152308166E-1,-3.520940542E-1,2.445135117E-1,5.320973108E-1
2.974948490E0,-2.926471829E-1,-3.601390123E-1,1.716041565E-1,4.947630427E-1
2.984948490E0,-3.415145278E-1,-3.254165649E-1,1.037950516E-1,4.830129669E-1
2.994948956E0,-3.530443609E-1,-2.968744040E-1,1.319026947E-1,4.797635390E-1
3.004949389E0,-3.132889867E-1,-2.831501961E-1,1.671581268E-1,4.541650164E-1
3.014949389E0,-2.799578607E-1,-3.143490553E-1,2.020034790E-1,4.669016362E-1
3.024949389E0,-2.157834768E-1,-2.585977316E-1,2.171325684E-1,4.007266498E-1
3.034949389E0,-1.313153505E-1,-1.931723356E-1,2.149620056E-1,3.174396579E-1
3.044948922E0,-6.628060341E-2,-1.787064075E-1,2.532043457E-1,3.169251318E-1
3.054948922E0,-9.346276522E-2,-2.395216227E-1,2.577667236E-1,3.640735915E-1
3.064948922E0,5.157208443E-2,-2.322533131E-1,3.291950226E-1,4.061657842E-1
3.074948922E0,1.625435352E-1,-1.912835836E-1,3.024740219E-1,3.930653179E-1
3.084948922E0,4.168907404E-1,-1.413881779E-1,2.735233307E-1,5.182697355E-1
3.094948922E0,4.836229086E-1,-1.793497801E-1,2.569417953E-1,5.762608329E-1
3.104948922E0,4.160869122E-1,-2.560832500E-1,8.532714844E-2,4.959714424E-1
3.114948922E0,3.365623951E-1,-3.596465588E-1,2.901077271E-3,4.925731512E-1
3.124948922E0,3.899556398E-2,-4.890537262E-1,-1.868524551E-1,5.249838484E-1
3.134949422E0,-4.469513893E-3,-4.848173857E-1,-2.208757401E-1,5.327794727E-1
3.144949422E0,5.376666784E-2,-3.579339981E-1,-2.429418564E-1,4.359224096E-1
3.154949422E0,1.267843246E-1,-2.584969997E-1,-2.747163773E-1,3.979498106E-1
3.164949422E0,3.160395026E-1,-1.001203060E-1,-1.534862518E-1,3.653259810E-1
3.174949422E0,4.920316637E-1,-4.132652283E-2,-2.071609497E-1,5.354612018E-1
3.184948922E0,8.305559158E-1,-8.234548569E-2,-3.327932358E-1,8.985294910E-1
3.194948922E0,1.004878998E0,-1.417057514E-1,-4.107503891E-1,1.094795964E0
3.204948922E0,1.303813934E0,-2.216869593E-1,-5.260496140E-1,1.423307444E0
3.214948922E0,1.439618230E0,-3.527370691E-1,-5.207738876E-1,1.571028176E0
3.224948922E0,1.382801294E0,-5.784479380E-1,-4.378499985E-1,1.561555013E0
3.234948922E0,1.141370654E0,-6.606451273E-1,-3.391561508E-1,1.361692274E0
3.244949388E0,4.546145201E-1,-7.187310457E-1,-7.819175720E-2,8.540272998E-1
3.254949388E0,7.803967595E-2,-6.728855371E-1,4.366683960E-2,6.788018341E-1
3.264949388E0,-3.822505772E-1,-5.389198065E-1,4.457073212E-1,7.969975394E-1
3.274949388E0,-4.967235625E-1,-4.740959406E-1,6.278638840E-1,9.304377009E-1
3.284949388E0,-6.010277867E-1,-3.891450167E-1,9.304704666E-1,1.174071349E0
3.294948921E0,-5.419999957E-1,-3.694987297E-1,1.088177681E0,1.270599847E0
3.304948487E0,-4.612296522E-1,-2.758537531E-1,1.182923317E0,1.299282748E0
3.314948487E0,-4.836449623E-1,-3.587728739E-1,1.131324768E0,1.281610766E0
3.324948487E0,-6.152291894E-1,-5.924105644E-1,8.339328766E-1,1.193692287E0
3.334948487E0,-6.497104168E-1,-6.210020781E-1,6.343717575E-1,1.100088512E0
3.349751386E0,-5.157642365E-1,-5.930137634E-1,-6.643104553E-2,7.887275544E-1
3.359751386E0,-3.494599462E-1,-6.672732830E-1,-3.906793594E-1,8.485318203E-1
3.369751386E0,-4.541404843E-1,-7.451579571E-1,-6.867914200E-1,1.110489268E0
3.379751386E0,-6.351256371E-1,-7.738637924E-1,-6.949863434E-1,1.218710696E0
3.389751886E0,-9.277707338E-1,-7.474114895E-1,-4.089412689E-1,1.259609237E0
3.399751886E0,-9.374126792E-1,-6.736469269E-1,-1.714553833E-1,1.167021706E0
3.409751886E0,-7.557612658E-1,-5.868403912E-1,2.594757080E-1,9.914052545E-1
3.419751886E0,-6.627066135E-1,-5.799295902E-1,4.539308548E-1,9.907328632E-1
3.429751886E0,-6.798010468E-1,-6.300106049E-1,5.904493332E-1,1.098941873E0
3.439751386E0,-6.552027464E-1,-5.916615725E-1,5.864286423E-1,1.059836123E0
3.449751386E0,-6.593809128E-1,-5.816800594E-1,5.007591248E-1,1.011876762E0
3.459751919E0,-5.773272514E-1,-5.658411980E-1,4.117212296E-1,9.071920345E-1
3.469751919E0,-3.810513616E-1,-4.565899372E-1,1.250743866E-1,6.077154870E-1
3.479751919E0,-3.580415547E-1,-4.311995506E-1,7.361125946E-2,5.652834907E-1
3.489751919E0,-1.874788105E-1,-3.461360931E-1,1.492881775E-2,3.939306652E-1
3.499752385E0,-6.252387166E-2,-2.832881212E-1,2.525615692E-2,2.912031381E-1
3.509752385E0,-1.074215770E-2,-3.038653135E-1,9.723854065E-2,3.192254008E-1
3.519752385E0,-5.443871021E-3,-3.244097233E-1,1.447620392E-1,3.552848889E-1
3.529752385E0,-1.474508643E-2,-3.394052982E-1,1.514492035E-1,3.719546145E-1
3.539752385E0,1.478710771E-2,-3.359770775E-1,1.607437134E-1,3.727436070E-1
3.549751918E0,-3.069144487E-2,-3.491648436E-1,2.902059555E-1,4.550577429E-1
3.559751918E0,6.478819251E-2,-2.766215801E-1,3.291473389E-1,4.348045298E-1
3.569751918E0,2.229308188E-1,-2.022018433E-1,4.021120071E-1,5.022726368E-1
3.579751918E0,2.351056039E-1,-1.960244179E-1,4.113340378E-1,5.127337594E-1
3.589751918E0,3.128803074E-1,-6.941115856E-2,2.536754608E-1,4.087336971E-1
3.599751918E0,3.684306145E-1,-9.345924854E-2,1.805887222E-1,4.208182926E-1
3.609751918E0,2.524069250E-1,-2.014279366E-1,-1.395416260E-2,3.232293119E-1
3.619751918E0,6.691980362E-2,-2.584552765E-1,-6.439495087E-2,2.746344839E-1
3.629751918E0,2.554339170E-2,-3.593969345E-1,-7.640457153E-2,3.683154625E-1
3.639752051E0,1.126837730E-2,-3.457385302E-1,-7.179737091E-2,3.532944523E-1
3.649752051E0,1.030194759E-1,-2.919027805E-1,9.069824219E-2,3.225622682E-1
3.659752051E0,2.594007850E-1,-2.762541771E-1,8.764839172E-2,3.889567819E-1
3.669752051E0,4.607946575E-1,-3.062934875E-1,7.009029388E-2,5.577275914E-1
3.679752051E0,5.523756146E-1,-3.661826849E-1,7.180786133E-2,6.666070412E-1
3.689751551E0,5.184561610E-1,-4.397015572E-1,-1.253223419E-2,6.799200741E-1
3.699751551E0,4.439623654E-1,-5.066317320E-1,-8.950519562E-2,6.795509354E-1
3.709751551E0,1.957759261E-1,-4.774839878E-1,-3.200120926E-1,6.072288788E-1
3.719751551E0,1.142302155E-1,-5.473804474E-1,-3.403778076E-1,6.546227526E-1
3.729751551E0,-1.471726894E-1,-6.150660515E-1,-4.499950409E-1,7.761839892E-1
3.739751551E0,-1.284326315E-1,-6.179008484E-1,-4.478034973E-1,7.738374322E-1
3.749752017E0,-2.573376298E-1,-4.458910227E-1,-2.933845520E-1,5.925503820E-1
3.759751483E0,-2.387904525E-1,-3.774540424E-1,-2.237663269E-1,4.995636130E-1
3.769751483E0,-1.645846963E-1,-4.550055265E-1,8.699321747E-2,4.916156744E-1
3.779751483E0,-1.044186354E-1,-5.353369713E-1,1.891717911E-1,5.772996542E-1
3.789751483E0,-9.748172760E-2,-5.690209866E-1,2.294559479E-1,6.212387644E-1
3.799751016E0,-1.242642403E-1,-5.607843399E-1,1.748685837E-1,6.004162713E-1
3.809751016E0,-1.554825306E-1,-4.726790190E-1,-1.494579315E-1,5.195555270E-1
3.819751016E0,-1.703171134E-1,-4.861329794E-1,-1.477241516E-1,5.358690304E-1
3.829751016E0,-2.742338181E-1,-4.275932312E-1,-1.155309677E-1,5.209487142E-1
3.839751016E0,-1.680185795E-1,-3.299735785E-1,7.117843628E-2,3.770665396E-1
3.849751016E0,8.129394054E-2,-2.855739594E-1,2.784996033E-1,4.070911692E-1
3.859751016E0,7.606071234E-2,-2.684067488E-1,3.608169556E-1,4.560880290E-1
3.869751016E0,-1.861600876E-1,-3.680151701E-1,4.336090088E-1,5.984208520E-1
3.879751016E0,-3.124886155E-1,-3.865393400E-1,3.056888580E-1,5.835301827E-1
3.889751516E0,-3.776974082E-1,-4.802349806E-1,1.066217422E-1,6.202009067E-1
3.899751516E0,-4.036437273E-1,-5.232391357E-1,9.486293793E-2,6.676124840E-1
3.909751516E0,-4.367955327E-1,-4.629637003E-1,5.452442169E-2,6.388259839E-1
3.919751516E0,-5.119847059E-1,-4.379105568E-1,6.184196472E-2,6.765489069E-1
3.929751516E0,-6.578371525E-1,-3.513582945E-1,2.193584442E-1,7.773805357E-1
3.939751382E0,-6.576005816E-1,-2.419894934E-1,4.336671829E-1,8.240538001E-1
3.949751382E0,-3.725517392E-1,-1.484704018E-2,6.664171219E-1,7.636275357E-1
3.959751382E0,-2.147559524E-1,7.204747200E-2,6.600313187E-1,6.978196751E-1
3.969751382E0,-2.615504265E-1,-9.133577347E-3,6.594085693E-1,7.094446484E-1
3.979751382E0,-4.424928427E-1,-7.091784477E-2,6.338901520E-1,7.763027639E-1
3.989751382E0,-8.520559072E-1,-1.398291588E-1,4.902734756E-1,9.929348134E-1
3.999751382E0,-8.940840960E-1,-1.474211216E-1,3.168659210E-1,9.599600875E-1
4.009751382E0,-7.224126458E-1,-3.221261501E-1,1.253089905E-1,8.008418262E-1
4.019751382E0,-4.198096991E-1,-4.648970366E-1,6.605625153E-2,6.298673403E-1
4.029751382E0,2.737503648E-1,-5.492358208E-1,9.301853180E-2,6.206864718E-1
4.039751382E0,4.705840349E-1,-4.834560156E-1,1.789932251E-1,6.980097618E-1
4.049750915E0,2.597804070E-1,-2.378975153E-1,4.046802521E-1,5.365139272E-1
4.059750915E0,2.769279480E-2,-1.401093006E-1,5.138683319E-1,5.333462005E-1
4.069750915E0,-2.094369531E-1,-6.261229515E-2,5.168066025E-1,5.611356353E-1
4.079750915E0,-2.101595998E-1,-1.293330193E-1,4.795494080E-1,5.393159760E-1
4.089750915E0,-1.189879775E-1,-3.584256172E-1,2.685375214E-1,4.633998945E-1
4.099750915E0,-9.122061729E-2,-4.884022474E-1,1.263351440E-1,5.126582926E-1
4.109750915E0,1.841666698E-1,-5.238506794E-1,-2.054586411E-1,5.920727572E-1
4.119750915E0,3.852966726E-1,-5.147848129E-1,-3.754034042E-1,7.445701078E-1
4.129750915E0,5.270377994E-1,-5.290966034E-1,-5.544433594E-1,9.301180013E-1
4.139751415E0,4.394231141E-1,-5.994405746E-1,-6.404991150E-1,9.811527873E-1
4.149751415E0,1.098408103E-1,-6.499562263E-1,-6.748113632E-1,9.433337033E-1
4.159751415E0,-7.312309742E-2,-7.330213785E-1,-7.055339813E-1,1.020022317E0
4.169751415E0,-2.147896886E-1,-6.638365984E-1,-6.945171356E-1,9.844631488E-1
4.179751415E0,-2.006354928E-1,-5.712914467E-1,-5.509500504E-1,8.186418484E-1
4.189750915E0,-2.559370399E-1,-5.747793913E-1,-2.128915787E-1,6.642273265E-1
4.199750915E0,-2.201377749E-1,-4.779903889E-1,-8.981704712E-3,5.263232114E-1
4.209750915E0,-8.644753695E-2,-2.603080273E-1,3.232612610E-1,4.239472710E-1
4.219750915E0,2.687001228E-2,-2.758643627E-1,4.589176178E-1,5.361236090E-1
4.229750915E0,1.148682237E-1,-4.431068897E-1,4.131307602E-1,6.166161282E-1
4.239750915E0,9.575271606E-2,-5.485250950E-1,2.917308807E-1,6.286137679E-1
4.249751381E0,-4.002386332E-2,-6.600538492E-1,3.010940552E-2,6.619513349E-1
4.259751381E0,-8.045148849E-2,-7.058825493E-1,-8.711528778E-2,7.157734898E-1
4.269751381E0,-1.221268177E-1,-6.621837616E-1,-2.182140350E-1,7.078274216E-1
4.279751381E0,-1.948367953E-1,-7.631841898E-1,-2.221250534E-1,8.183831766E-1
4.289751381E0,-1.252724528E-1,-7.830183506E-1,-3.910255432E-2,7.939395031E-1
4.299751381E0,-8.103489876E-3,-7.277218103E-1,9.842300415E-2,7.343921211E-1
4.309751381E0,1.680838466E-1,-6.151424646E-1,2.046546936E-1,6.697282844E-1
4.319751381E0,1.715051532E-1,-7.345149517E-1,1.290512085E-1,7.652322826E-1
4.329751381E0,-2.340489626E-2,-9.137700796E-1,2.037239075E-2,9.142967690E-1
4.339751381E0,-8.080404997E-2,-9.332680702E-1,-1.740407944E-1,9.527899997E-1
4.349751381E0,-1.560397744E-1,-9.883093834E-1,-3.395280838E-1,1.056590350E0
4.359751381E0,-1.601571441E-1,-9.265073538E-1,-4.144067764E-1,1.027520882E0
4.369751381E0,-1.544073820E-1,-7.294726372E-1,-3.728904724E-1,8.336781588E-1
4.379751381E0,-2.204287648E-1,-6.303913593E-1,-2.297563553E-1,7.062365674E-1
4.389751881E0,-2.684169412E-1,-4.513857365E-1,1.609477997E-1,5.492730938E-1
4.399751881E0,-2.327653766E-1,-3.078160286E-1,3.492965698E-1,5.205175517E-1
4.409751881E0,-1.343451738E-1,-6.017923355E-2,4.579343796E-1,4.810135776E-1
4.419751881E0,-1.089981794E-1,-6.308579445E-2,5.881843567E-1,6.015158003E-1
4.429751881E0,-4.550457001E-2,-1.267082691E-1,6.829442978E-1,6.960880442E-1
4.439751381E0,1.307964325E-3,-7.093095779E-2,6.038455963E-1,6.079986971E-1
4.449751381E0,-9.986287355E-2,-1.715035439E-1,7.171602249E-1,7.441134640E-1
4.459751381E0,-1.177422404E-1,-2.895171642E-1,7.929420471E-1,8.523147973E-1
4.469751381E0,-1.956695914E-1,-1.806380749E-1,6.250820160E-1,6.794440594E-1
4.479751381E0,-2.516709566E-1,-7.687139511E-2,6.443328857E-1,6.959973775E-1
4.489751381E0,-3.261573911E-1,4.410767555E-1,8.935403824E-1,1.048494999E0
4.499751847E0,-1.150493622E-1,1.273251534E0,1.336832047E0,1.849736669E0
4.509751847E0,3.017565012E-1,-2.001037598E-1,2.000965118E0,2.033460082E0
4.519751847E0,3.345867693E-1,-8.608081341E-1,1.718443871E0,1.950894227E0
4.529751847E0,2.829063535E-1,-8.844237328E-1,6.698837280E-1,1.144982774E0
4.539751847E0,2.224817872E-1,-4.384839535E-1,1.795454025E-1,5.234528390E-1
4.549751380E0,2.309333682E-1,-4.708883762E-1,1.888532639E-1,5.574330800E-1
4.559751380E0,-6.560581923E-2,3.091335297E-2,-3.980369568E-1,4.045901357E-1
4.569751380E0,-7.113438845E-2,-3.931698799E-1,-3.054122925E-1,5.029108510E-1
4.579751380E0,6.493425369E-2,-5.398473740E-1,-2.437725067E-1,5.958831089E-1
4.589751380E0,2.421485782E-1,-3.934457302E-1,-6.174468994E-2,4.660985768E-1
4.599751380E0,3.309241235E-1,-2.462813854E-1,1.236066818E-1,4.306319869E-1
4.609751380E0,5.699206591E-1,9.067630768E-2,7.216539383E-1,9.240217298E-1
4.619751380E0,7.045966387E-1,3.088634014E-1,9.904384613E-1,1.254121752E0
4.629751380E0,7.289350033E-1,3.648931980E-1,1.313648224E0,1.546015828E0
4.639751880E0,6.837476492E-1,2.062764168E-1,1.462471008E0,1.627538712E0
4.649751880E0,7.104213238E-1,-1.080427170E-1,1.186430931E0,1.387079681E0
4.659751880E0,6.840300560E-1,-2.532329559E-1,9.772062302E-1,1.219408079E0
4.669751880E0,4.766131639E-1,-4.554102421E-1,4.086236954E-1,7.755848897E-1
4.679751880E0,2.933964133E-1,-4.924221039E-1,1.694641113E-1,5.977282566E-1
4.689751380E0,-8.042597771E-2,-4.843616486E-1,-1.960659027E-2,4.913847402E-1
4.699751380E0,-2.476848960E-1,-5.590527058E-1,-1.365566254E-2,6.116160664E-1
4.709751380E0,-2.206763625E-1,-6.254889965E-1,8.189868927E-2,6.683127539E-1
4.719751380E0,-8.117234707E-2,-5.632016659E-1,1.788682938E-1,5.964720722E-1
4.729751380E0,-8.139657974E-2,-5.655496120E-1,1.794977188E-1,5.989083385E-1
4.739751380E0,4.925252497E-1,-3.924624920E-1,4.123287201E-1,7.527435836E-1
4.749751846E0,7.068775296E-1,-3.010149002E-1,4.325265884E-1,8.816830846E-1
4.759751846E0,6.836942434E-1,-2.364020348E-1,4.151878357E-1,8.340891316E-1
4.769751846E0,5.669227242E-1,-3.199374676E-1,5.638761520E-1,8.612303253E-1
4.779751846E0,4.281361699E-1,-2.489840984E-1,5.313615799E-1,7.263874929E-1
4.789751846E0,9.838581085E-2,-1.232323647E-1,3.825941086E-1,4.138166688E-1
4.799751379E0,-6.927984953E-2,-1.402995586E-1,3.163375854E-1,3.529208575E-1
4.809751379E0,-2.636801600E-1,-2.309806347E-1,2.579593658E-2,3.514892754E-1
4.819751379E0,-3.475064039E-1,-3.310320377E-1,-9.227085114E-2,4.887298034E-1
4.829751379E0,-1.961084604E-1,-6.187345982E-1,-3.161697388E-1,7.219794560E-1
4.839751379E0,-7.713317871E-2,-7.565778494E-1,-3.802776337E-1,8.502768068E-1
4.849751379E0,4.486680031E-3,-7.183134556E-1,-3.353796005E-1,7.927634119E-1
4.859751379E0,-4.694616795E-2,-5.714902878E-1,-2.465362549E-1,6.241676191E-1
4.869751379E0,-1.664803028E-1,-3.382177353E-1,7.287406921E-2,3.839499416E-1
4.879751379E0,-1.997148991E-1,-2.942857742E-1,2.543582916E-1,4.372508414E-1
4.889751879E0,-1.562412977E-1,-3.434088230E-1,4.375991821E-1,5.777837026E-1
4.899752379E0,-1.820635796E-1,-4.163019657E-1,4.344673157E-1,6.286623275E-1
4.909752379E0,-2.229931355E-1,-2.852423191E-1,2.649145126E-1,4.486299344E-1
4.919752379E0,-3.164182901E-1,-1.874780655E-1,1.685390472E-1,4.045663973E-1
4.929752379E0,-5.407296419E-1,-1.022229195E-1,1.662120819E-1,5.748604414E-1
4.939751879E0,-5.905413628E-1,-9.978795052E-2,1.094913483E-1,6.088391344E-1
4.949751879E0,-4.224098921E-1,-1.622104645E-1,-5.670452118E-2,4.560238529E-1
4.959752379E0,-2.359261513E-1,-2.437031269E-1,-1.194667816E-1,3.596174006E-1
4.969752379E0,1.194914579E-1,-1.860747337E-1,-3.377408981E-1,4.036965808E-1
4.979752379E0,2.262400985E-1,-9.361028671E-2,-3.483324051E-1,4.257733345E-1
4.989752379E0,1.130921841E-1,6.356835365E-2,-1.710472107E-1,2.146809865E-1
4.999752845E0,7.315099239E-2,1.293637753E-1,2.126407623E-2,1.501273292E-1
5.009752845E0,-1.126992702E-2,2.477340698E-1,3.939676285E-1,4.655208619E-1
5.019753345E0,-3.425693512E-2,3.068699837E-1,4.858417511E-1,5.756604308E-1
5.029753345E0,-2.820944786E-2,2.897970676E-1,5.902204514E-1,6.581324293E-1
5.039753345E0,7.696390152E-3,2.491333485E-1,4.517641068E-1,5.159626613E-1
5.049752878E0,4.035973549E-2,1.138880253E-1,2.649469376E-1,2.911979915E-1
5.059752878E0,1.173973083E-1,2.037525177E-2,1.783380508E-1,2.144801606E-1
5.069752878E0,5.644738674E-2,-2.032079697E-1,1.113538742E-1,2.384941754E-1
5.079752878E0,4.079735279E-2,-2.813763618E-1,1.116743088E-1,3.054639623E-1
5.089752878E0,-4.429984093E-2,-2.903411388E-1,4.412651062E-3,2.937344452E-1
5.099752878E0,-3.912222385E-2,-3.057785034E-1,9.790420532E-3,3.084264805E-1
5.109752878E0,-2.005422115E-2,-5.570089817E-1,-1.066226959E-1,5.674764989E-1
5.119752878E0,-1.394808292E-2,-5.735807419E-1,-1.007013321E-1,5.825205359E-1
5.129752878E0,-3.123700619E-2,-8.046860695E-1,-3.053188324E-1,8.612287794E-1
5.139752944E0,-1.125791073E-1,-8.016865253E-1,-4.070930481E-1,9.061457334E-1
5.149752944E0,-3.192267418E-1,-6.644072533E-1,-4.539947510E-1,8.657100813E-1
5.159752944E0,-3.777488470E-1,-6.093347073E-1,-4.754571915E-1,8.602572393E-1
5.169752944E0,-3.964319229E-1,-5.974848270E-1,-3.903684616E-1,8.164152889E-1
5.179752944E0,-3.338061571E-1,-5.575892925E-1,-3.256893158E-1,7.269153321E-1
5.189752444E0,-6.691753864E-2,-3.448245525E-1,-2.853126526E-1,4.525320306E-1
5.199751944E0,9.158563614E-2,-2.174334526E-1,-2.592439651E-1,3.505319793E-1
5.209751944E0,8.763015270E-2,-2.360751629E-1,-3.093433380E-1,3.988782107E-1
5.219751944E0,3.789043427E-2,-3.224332333E-1,-3.297739029E-1,4.627631165E-1
5.229751944E0,1.511666775E-1,-6.516914368E-1,-5.334177017E-1,8.556211414E-1
5.239751944E0,3.174476624E-1,-9.467135668E-1,-7.931566238E-1,1.275200779E0
5.249752410E0,4.213842154E-1,-1.363357902E0,-1.262587070E0,1.905370183E0
5.259751910E0,4.471517801E-1,-1.395609617E0,-1.466116428E0,2.072961239E0
5.269751910E0,5.366711617E-1,-1.167463064E0,-1.604065418E0,2.055240085E0
5.279751910E0,6.461607814E-1,-9.328145981E-1,-1.484108925E0,1.868220043E0
5.289751910E0,8.601647019E-1,-5.460488796E-1,-8.513250351E-1,1.327707426E0
5.299751443E0,9.582212567E-1,-4.547295570E-1,-3.498334885E-1,1.116848430E0
5.309751443E0,1.089938879E0,-2.363808155E-1,3.078794479E-1,1.156992828E0
5.319750943E0,1.021833658E0,-1.011295319E-1,5.845298767E-1,1.181544068E0
5.329750943E0,7.093833089E-1,2.238092422E-1,7.683620453E-1,1.069436996E0
5.339750943E0,7.075447440E-1,2.511320114E-1,7.594661713E-1,1.067930577E0
5.349750943E0,1.538408995E-1,1.473591328E-1,7.999286652E-1,8.278089186E-1
5.359750943E0,3.189778328E-2,2.100348473E-2,7.486019135E-1,7.495755064E-1
5.369750943E0,-1.208333969E-1,-4.103493690E-2,6.651058197E-1,6.772372754E-1
5.379750943E0,-1.644704342E-1,-1.817107201E-2,6.900539398E-1,7.096162001E-1
5.389751443E0,-1.541942358E-1,1.302578449E-1,7.819662094E-1,8.075977471E-1
5.399751443E0,-1.304783821E-1,1.793684959E-1,8.997163773E-1,9.266537784E-1
5.409751443E0,-4.026663303E-2,2.466113567E-1,1.218101501E0,1.243466860E0
5.419751443E0,8.327066898E-2,3.510415554E-1,1.359289169E0,1.406353876E0
5.429751443E0,2.246768475E-1,4.464929104E-1,1.439332008E0,1.523650956E0
5.439751376E0,2.213816643E-1,4.151160717E-1,1.530232430E0,1.600919262E0
5.449751376E0,1.638897657E-1,2.930290699E-1,1.524434090E0,1.560969309E0
5.459751376E0,2.737545967E-2,2.287266254E-1,1.443662643E0,1.461925823E0
5.469751376E0,-1.545188427E-1,3.335547447E-2,1.285449982E0,1.295133320E0
5.479751376E0,-1.462916136E-1,-7.196545601E-2,1.121162415E0,1.132954290E0
5.489751376E0,-3.685166836E-1,-1.392126083E-1,8.929147720E-1,9.759515800E-1
5.499751376E0,-4.797238111E-1,-1.657800674E-1,8.372154236E-1,9.790544577E-1
5.509751376E0,-5.114760399E-1,-2.090597153E-1,7.908191681E-1,9.647324295E-1
5.519751376E0,-4.141080379E-1,-2.645702362E-1,7.321701050E-1,8.817913243E-1
5.529751376E0,-1.611893177E-1,-4.555065632E-1,7.023096085E-1,8.524711206E-1
5.539751376E0,-1.575289965E-1,-4.673876762E-1,7.064743042E-1,8.616104498E-1
5.549750909E0,3.667410612E-1,-4.535784721E-1,4.603700638E-1,7.430834623E-1
5.559750909E0,4.376168251E-1,-3.754730225E-1,4.301452637E-1,7.193840588E-1
5.569750909E0,3.877810240E-1,-2.476933002E-1,4.215602875E-1,6.240506146E-1
5.579750909E0,3.509758711E-1,-2.453699112E-1,5.180778503E-1,6.721570608E-1
5.589750909E0,3.389039040E-1,-3.414480686E-1,5.880918503E-1,7.597990945E-1
5.599750909E0,2.669284344E-1,-4.311668873E-1,4.835653305E-1,7.007075728E-1
5.609750909E0,1.872123480E-1,-6.510064602E-1,2.075824738E-1,7.084831387E-1
5.619750909E0,2.171692848E-1,-7.395694256E-1,4.057979584E-2,7.718627814E-1
5.629750909E0,3.362797499E-1,-7.597024441E-1,-2.883472443E-1,8.794179933E-1
5.639751409E0,4.306391478E-1,-7.675285339E-1,-4.733638763E-1,9.993115057E-1
5.649751409E0,5.723646283E-1,-7.204964161E-1,-5.461483002E-1,1.070044073E0
5.659751409E0,7.261406183E-1,-7.264950275E-1,-5.528583527E-1,1.166502285E0
5.669751409E0,9.149715900E-1,-7.600262165E-1,-5.536623001E-1,1.312004117E0
5.679751909E0,8.976400495E-1,-8.078503609E-1,-5.417432785E-1,1.323580615E0
5.689751409E0,8.971325755E-1,-8.206105232E-1,-5.374965668E-1,1.329342337E0
5.699751409E0,8.431816101E-1,-7.190089226E-1,-5.719118118E-1,1.247001275E0
5.709751409E0,8.519232869E-1,-8.229141235E-1,-4.631729126E-1,1.271805838E0
5.719751409E0,7.109100819E-1,-9.286613464E-1,-4.482717514E-1,1.252498544E0
5.729751409E0,3.986927271E-1,-1.013314724E0,-4.837446213E-1,1.191541640E0
5.739751409E0,2.672756910E-1,-9.608349800E-1,-5.527544022E-1,1.140253298E0
5.749751875E0,1.983752251E-1,-8.741869926E-1,-6.027727127E-1,1.080227092E0
5.759751875E0,2.843451500E-1,-9.413957596E-1,-6.942071915E-1,1.203744892E0
5.769751875E0,3.981739283E-1,-1.004242659E0,-6.595468521E-1,1.265720287E0
5.779751875E0,4.068652391E-1,-9.307889938E-1,-7.169761658E-1,1.243367321E0
5.789751875E0,3.703513145E-1,-6.505391598E-1,-5.627775192E-1,9.365254031E-1
5.799751875E0,3.468589783E-1,-4.685015678E-1,-3.808832169E-1,6.963310238E-1
5.809751875E0,3.578203917E-1,-2.309987545E-1,-8.842849731E-2,4.349890302E-1
5.819751875E0,4.837294817E-1,-2.075362206E-1,7.628250122E-2,5.318688883E-1
5.829751875E0,4.889681339E-1,-1.822879314E-1,6.870841980E-2,5.263454882E-1
5.839751875E0,6.010159850E-1,-5.964000225E-1,1.292829514E-1,8.565204508E-1
5.849751875E0,2.902458906E-1,-6.521351337E-1,5.465316772E-2,7.158979525E-1
5.859752408E0,1.531049013E-1,-5.194396973E-1,1.163196564E-2,5.416585756E-1
5.869752408E0,-1.691569090E-1,-2.677574158E-1,7.570266724E-2,3.256362808E-1
5.879752408E0,-3.148734570E-1,-2.060012817E-1,2.102155685E-1,4.310132332E-1
5.889752908E0,-2.443138361E-1,-1.845259666E-1,4.365930557E-1,5.332472027E-1
5.899752908E0,-1.587655544E-1,-1.799054146E-1,5.806159973E-1,6.282415107E-1
5.909752908E0,3.732156754E-2,-1.865959167E-1,7.652797699E-1,7.885835794E-1
5.919752908E0,2.400854826E-1,-2.417850494E-1,7.122240067E-1,7.895340935E-1
5.929752908E0,5.067599416E-1,-3.489398956E-1,6.635313034E-1,9.048969443E-1
5.939752408E0,5.259703398E-1,-3.377270699E-1,5.951051712E-1,8.630495564E-1
5.949752408E0,2.833485603E-1,-2.513394356E-1,4.391889572E-1,5.799524624E-1
5.959752408E0,1.508194208E-1,-2.234144211E-1,4.460659027E-1,5.211864261E-1
5.969752408E0,1.361846924E-3,-2.480278015E-1,5.742874146E-1,6.255602924E-1
5.979751908E0,-6.435894966E-2,-2.463383675E-1,6.347904205E-1,6.839470328E-1
5.989751908E0,-3.204065561E-1,-2.365064621E-1,8.504867554E-1,9.391077621E-1
5.999752374E0,-4.739587307E-1,-1.752173901E-1,9.152784348E-1,1.045501136E0
6.009752374E0,-6.810849905E-1,-1.533770561E-1,1.021300316E0,1.237115848E0
6.019752374E0,-7.525950670E-1,-1.555120945E-1,1.097088814E0,1.339472736E0
6.029752374E0,-8.404985666E-1,-2.634961605E-1,9.849452972E-1,1.321357372E0
6.039752874E0,-8.407199383E-1,-3.936688900E-1,7.980175018E-1,1.224180192E0
6.049752407E0,-7.220129967E-1,-5.512051582E-1,3.368091583E-1,9.687983810E-1
6.059752407E0,-5.164496899E-1,-6.290698051E-1,3.774929047E-2,8.147847021E-1
6.069752407E0,-2.370096445E-1,-7.539592981E-1,-1.699047089E-1,8.083908739E-1
6.079752407E0,-9.860527515E-2,-7.560319901E-1,-2.396354675E-1,7.992074371E-1
6.089752407E0,2.465200424E-1,-6.481478214E-1,-3.086757660E-1,7.590444376E-1
6.099752407E0,4.482650757E-1,-5.110871792E-1,-2.240715027E-1,7.157930714E-1
6.109752407E0,6.626955867E-1,-3.513464928E-1,-1.176223755E-1,7.592396340E-1
6.119752407E0,6.242160201E-1,-3.291060925E-1,-4.124546051E-2,7.068646602E-1
6.129752407E0,4.628756046E-1,-3.702402115E-1,1.851720810E-1,6.209833646E-1
6.139752907E0,3.743155003E-1,-4.224052429E-1,2.890472412E-1,6.341029811E-1
6.149752907E0,1.673471928E-1,-4.503228664E-1,3.930978775E-1,6.207428681E-1
6.159752373E0,-1.048219204E-2,-5.024940968E-1,4.235115051E-1,6.572459118E-1
6.169752373E0,-2.467445135E-1,-7.224175930E-1,3.017721176E-1,8.208754136E-1
6.179752373E0,-2.400766611E-1,-8.447912931E-1,1.309022903E-1,8.879439970E-1
6.189751873E0,-2.222528458E-1,-1.018001199E0,-3.500585556E-1,1.099210517E0
6.199751873E0,-2.690162659E-1,-1.117965579E0,-5.191135406E-1,1.261624213E0
6.209751873E0,-4.977531433E-1,-1.337446451E0,-6.407976151E-1,1.564334614E0
6.219751873E0,-5.530112982E-1,-1.397089720E0,-6.631402969E-1,1.642387358E0
6.229751873E0,-5.158976316E-1,-1.278837919E0,-6.606979370E-1,1.529084221E0
6.239751873E0,-4.596251249E-1,-1.060441852E0,-5.881567001E-1,1.296811659E0
6.249752339E0,-1.998088360E-1,-6.223707199E-1,-3.068675995E-1,7.221056762E-1
6.259752339E0,5.721688271E-2,-4.873759747E-1,-1.206293106E-1,5.053321115E-1
6.269752339E0,4.844467044E-1,-4.978160858E-1,1.582908630E-1,7.124362863E-1
6.279752339E0,5.407755375E-1,-5.159659386E-1,2.628068924E-1,7.922919250E-1
6.289752339E0,3.707792759E-1,-5.543153286E-1,4.395332336E-1,7.987065910E-1
6.299751872E0,1.876664162E-1,-5.239732265E-1,5.679407120E-1,7.951875742E-1
6.309751872E0,-2.003211975E-1,-4.069387913E-1,8.726778030E-1,9.835112150E-1
6.319751872E0,-3.959856033E-1,-3.728210926E-1,1.073765755E0,1.203649891E0
6.329751872E0,-6.638318300E-1,-4.241471291E-1,1.365633011E0,1.576555424E0
6.339751372E0,-6.639237404E-1,-4.085888863E-1,1.370808601E0,1.576976802E0
6.349751372E0,-5.569201708E-1,-4.737085104E-1,1.102182388E0,1.322635946E0
6.359751372E0,-3.002429008E-1,-3.659298420E-1,7.833213806E-1,9.152282962E-1
6.369751372E0,5.260801315E-2,-1.843526363E-1,2.081537247E-1,2.829866970E-1
6.379751372E0,2.419686317E-1,-1.933553219E-1,1.872110367E-1,3.619158348E-1
6.389751872E0,5.062298775E-1,-2.256219387E-1,3.337402344E-1,6.469594208E-1
6.399751872E0,5.995924473E-1,-2.535276413E-1,5.392055511E-1,8.452987603E-1
6.409751872E0,7.445232272E-1,-1.728925705E-1,8.108129501E-1,1.114281974E0
6.419751872E0,7.415509820E-1,-6.323623657E-2,9.406843185E-1,1.199493088E0
6.429751872E0,6.205765009E-1,5.789923668E-2,1.097077370E0,1.261763159E0
6.439751372E0,4.728338122E-1,8.552694321E-2,1.098273277E0,1.198787247E0
6.449751372E0,2.045098543E-1,-9.036064148E-5,1.064085007E0,1.083559500E0
6.459751372E0,1.065764427E-1,-6.927585602E-2,1.061611176E0,1.069194075E0
6.469751372E0,-1.472339630E-1,-2.225158215E-1,1.009294510E0,1.043966732E0
6.479751372E0,-2.855063677E-1,-3.233243227E-1,1.026880264E0,1.113793329E0
6.489751372E0,-2.356394529E-1,-4.114918709E-1,7.529287338E-1,8.898051415E-1
6.499751838E0,-1.043987274E-1,-5.185852051E-1,5.396213531E-1,7.556592579E-1
6.509751838E0,1.003969908E-1,-7.740699053E-1,2.097072601E-1,8.082332021E-1
6.519751838E0,2.203519344E-1,-8.884680271E-1,3.851604462E-2,9.161953372E-1
6.529751838E0,3.960621357E-1,-8.694432974E-1,-3.737802505E-1,1.025918388E0
6.539751838E0,4.831510782E-1,-7.047249079E-1,-5.365228653E-1,1.008924648E0
6.549751371E0,5.940852165E-1,-4.011991024E-1,-5.134353638E-1,8.817674507E-1
6.559751371E0,6.322065592E-1,-2.609121799E-1,-3.628511429E-1,7.742229982E-1
6.569751371E0,6.586468220E-1,-1.981327534E-1,-1.527881622E-2,6.879721406E-1
6.579751371E0,6.933609247E-1,-2.135102749E-1,1.851406097E-1,7.487409798E-1
6.589751371E0,6.533913016E-1,-2.666735649E-1,4.140100479E-1,8.181927053E-1
6.599718037E0,6.660469174E-1,-2.884293795E-1,4.589815140E-1,8.587630834E-1
6.609685203E0,7.074256539E-1,-4.471869469E-1,4.354343414E-1,9.434141651E-1
6.619651869E0,6.979520321E-1,-5.567269325E-1,2.885627747E-1,9.382698926E-1
6.629618535E0,4.418144226E-1,-5.494853258E-1,1.115159988E-1,7.138416668E-1
6.639585201E0,3.070962429E-1,-4.424188137E-1,1.837825775E-2,5.388694364E-1
6.649551867E0,1.468760967E-1,-2.409374714E-1,-3.781318665E-3,2.822016146E-1
6.659518533E0,4.674565792E-2,-1.922028065E-1,1.614475250E-2,1.984634183E-1
6.669485199E0,-1.840372086E-1,-1.387979984E-1,5.910778046E-2,2.379670318E-1
6.679451865E0,-2.896227837E-1,-1.051886082E-1,9.903430939E-2,3.236569087E-1
6.689418031E0,-2.861356735E-1,2.709007263E-2,9.726333618E-2,3.034265187E-1
6.699384697E0,-2.685778141E-1,1.030476093E-1,9.741592407E-2,3.037148569E-1
6.709351363E0,-2.799022198E-2,3.067014217E-1,2.145986557E-1,3.753688821E-1
6.719318029E0,1.735163927E-1,3.683621883E-1,2.574539185E-1,4.817480259E-1
6.729284695E0,8.536386490E-1,3.632085323E-1,4.370841980E-1,1.025505718E0
6.739251361E0,1.231955528E0,2.772188187E-1,5.548877716E-1,1.379298784E0
6.749218027E0,1.686441660E0,-1.622707844E-1,7.378349304E-1,1.847922527E0
6.759184693E0,1.735502124E0,-3.710689545E-1,7.657871246E-1,1.932896715E0
6.769151359E0,1.507660747E0,-6.051212549E-1,5.430345535E-1,1.712921243E0
6.779118025E0,1.474364996E0,-6.187487841E-1,5.415000916E-1,1.688142336E0
6.789084691E0,3.880134225E-1,-9.237570763E-1,-1.794672012E-1,1.017885076E0
6.799050891E0,-2.204382420E-2,-1.089835167E0,-5.036916733E-1,1.200804698E0
6.809017557E0,-4.135679007E-1,-1.069417834E0,-9.935607910E-1,1.517186857E0
6.818984223E0,-4.537695646E-1,-9.781607389E-1,-1.150185585E0,1.576588763E0
6.828950889E0,-2.768137455E-1,-6.896923780E-1,-1.134797096E0,1.356490279E0
6.838917555E0,-7.941329479E-2,-5.318983793E-1,-9.556360245E-1,1.096568543E0
6.848884221E0,1.541088223E-1,-4.173841476E-1,-5.007238388E-1,6.698383526E-1
6.858851387E0,1.938075423E-1,-5.022006035E-1,-9.113788605E-2,5.459605516E-1
6.868818053E0,1.754594445E-1,-5.262095928E-1,5.196781158E-1,7.600972940E-1
6.878784719E0,2.734231949E-2,-4.633694887E-1,7.339849472E-1,8.684427375E-1
6.888751385E0,-2.308430672E-1,-3.293842077E-1,7.758035660E-1,8.738727888E-1
6.898751385E0,-3.192870617E-1,-3.140501976E-1,7.969446182E-1,9.141621732E-1
6.908750885E0,-3.890504837E-1,-4.053790569E-1,7.304563522E-1,9.215524625E-1
6.918750885E0,-4.028295279E-1,-4.009660482E-1,5.908994675E-1,8.198826630E-1
6.928750885E0,-2.297759056E-1,-2.358326912E-1,3.494215012E-1,4.801139558E-1
6.938751418E0,-1.155213118E-1,-2.171602249E-1,3.052787781E-1,3.920444734E-1
6.948751418E0,-1.206371784E-1,-2.979886532E-1,4.317922592E-1,5.383262221E-1
6.958751418E0,-1.306449175E-1,-3.112124205E-1,4.323015213E-1,5.484577198E-1
6.968751418E0,1.314691305E-1,-2.086863518E-1,5.201816559E-1,5.756935650E-1
6.978751418E0,3.843511343E-1,-1.292231083E-1,4.508743286E-1,6.063926668E-1
6.988751418E0,4.377642274E-1,-1.738306284E-1,3.557748795E-1,5.902799090E-1
6.998751418E0,3.145887852E-1,-2.231793404E-1,2.896175385E-1,4.823416220E-1
7.008751418E0,-1.628625393E-2,-2.149511576E-1,1.802940369E-1,2.810252336E-1
7.018751418E0,-7.043111324E-2,-1.661481857E-1,2.165813446E-1,2.819099859E-1
7.028751418E0,-1.173429489E-1,-1.279022694E-1,3.668355942E-1,4.058284260E-1
7.038751418E0,-1.031801701E-1,-1.974210739E-1,4.130525589E-1,4.692905756E-1
7.048751418E0,1.104247570E-2,-1.740002632E-1,5.352020264E-1,5.628847457E-1
7.058751418E0,1.291190386E-1,-9.487831593E-2,4.704914093E-1,4.970269481E-1
7.068751418E0,3.090476990E-1,1.027026176E-1,2.939004898E-1,4.386750572E-1
7.078751418E0,4.397910237E-1,1.139397621E-1,1.542034149E-1,4.797677637E-1
7.088751418E0,7.157515287E-1,-2.183055878E-2,-1.543350220E-1,7.325272167E-1
7.098751418E0,9.123561382E-1,-2.191820145E-1,-3.012332916E-1,9.854826099E-1
7.108751951E0,1.000687242E0,-4.310451746E-1,-6.459856033E-1,1.266677661E0
7.118751951E0,9.144574404E-1,-4.535224438E-1,-7.057971954E-1,1.240993432E0
7.128751951E0,7.263753414E-1,-2.446986437E-1,-8.647842407E-1,1.155573600E0
7.138751951E0,6.479188800E-1,-1.456447840E-1,-8.602991104E-1,1.086796134E0
7.148751951E0,3.809623718E-1,-1.692262888E-1,-4.799365997E-1,6.356956861E-1
7.158751451E0,3.087464571E-1,-1.841119528E-1,-2.053165436E-1,4.139764112E-1
7.168751451E0,1.371256113E-1,-2.035659552E-1,3.255424500E-1,4.077013835E-1
7.178751451E0,1.230868101E-1,-2.574772835E-1,5.130958557E-1,5.871220244E-1
7.188751451E0,5.111765862E-2,-3.427159786E-1,5.489406586E-1,6.491556852E-1
7.198751451E0,8.196461201E-2,-3.065816164E-1,5.467252731E-1,6.321542608E-1
7.208751451E0,-6.283605099E-2,-6.037150621E-1,-1.158113480E-1,6.179259777E-1
7.218751451E0,-1.631360054E-1,-7.642338276E-1,-3.091707230E-1,8.403887407E-1
7.228751451E0,-2.098450661E-1,-7.733228207E-1,-5.496530533E-1,9.716900821E-1
7.238750917E0,-2.067687511E-1,-6.164357662E-1,-6.091260910E-1,8.909438619E-1
7.248750917E0,-1.632547379E-1,-2.812303305E-1,-6.322412491E-1,7.109652630E-1
7.258750917E0,-1.633063555E-1,-2.239835262E-1,-6.327657700E-1,6.908184316E-1
7.268750917E0,-1.537725925E-1,-3.870397806E-1,-5.044269562E-1,6.541348149E-1
7.278750917E0,-1.266560555E-1,-4.402129650E-1,-3.691253662E-1,5.882879796E-1
7.288750917E0,-8.963525295E-2,-2.754361629E-1,-1.029472351E-1,3.074047684E-1
7.298751450E0,-1.469547749E-1,-9.224820137E-2,7.570075989E-2,1.893040981E-1
7.308751450E0,-2.371103764E-1,1.154854298E-1,3.991222382E-1,4.783897742E-1
7.318751450E0,-1.246460676E-1,2.074207067E-1,5.645647049E-1,6.142420515E-1
7.328751450E0,2.084466219E-1,1.365394592E-1,5.873327255E-1,6.380068562E-1
7.338751450E0,3.696324825E-1,-1.342999935E-2,4.731063843E-1,6.005315877E-1
7.348751450E0,5.297439098E-1,-3.325703144E-1,1.593303680E-2,6.256880099E-1
7.358751516E0,3.069601059E-1,-5.068482161E-1,-2.677555084E-1,6.502404425E-1
7.368751516E0,-3.205038309E-1,-7.044286132E-1,-3.576774597E-1,8.525699630E-1
7.378751516E0,-6.429880857E-1,-7.483503222E-1,-3.602809906E-1,1.050363878E0
7.388751516E0,-9.700971842E-1,-6.886217594E-1,-1.344547272E-1,1.197232871E0
7.398751516E0,-9.423705339E-1,-4.281222820E-1,-1.031970978E-2,1.035112268E0
7.408750982E0,-6.349309683E-1,1.327631474E-1,7.244682312E-2,6.526958939E-1
7.418750982E0,-4.159766436E-1,1.859760284E-1,2.343053818E-1,5.123696547E-1
7.428750982E0,5.381238461E-2,1.212996244E-1,3.711462021E-1,3.941559018E-1
7.438750982E0,2.792598009E-1,6.145477295E-2,3.464498520E-1,4.492106694E-1
7.448750982E0,5.553718805E-1,1.214599609E-2,1.549177170E-1,5.767017860E-1
7.458750982E0,5.991829634E-1,-7.027482986E-2,1.404752731E-1,6.194288318E-1
7.468750982E0,5.505416393E-1,-2.838599682E-2,1.081571579E-1,5.617827269E-1
7.478750982E0,4.814157486E-1,7.095909119E-2,1.413307190E-1,5.067254560E-1
7.488750982E0,4.279440641E-1,1.146512032E-1,3.235597610E-1,5.486090952E-1
7.498750982E0,4.660662413E-1,1.444740295E-1,3.035268784E-1,5.746468936E-1
7.508750982E0,4.906420708E-1,1.926703453E-1,3.218688965E-1,6.176172683E-1
7.518750982E0,5.322055817E-1,2.644864321E-1,2.280683517E-1,6.365618799E-1
7.528750982E0,6.161903739E-1,2.945816517E-1,1.446342468E-1,6.981317868E-1
7.538750982E0,5.343316197E-1,2.758061886E-1,1.194162369E-1,6.130575594E-1
7.548750982E0,4.944260120E-1,2.325817347E-1,1.138372421E-1,5.581310441E-1
7.558750982E0,4.571683407E-1,2.531545162E-1,1.538925171E-1,5.447687653E-1
7.568750982E0,3.271960020E-1,3.410125971E-1,2.965602875E-1,5.579380066E-1
7.578750982E0,2.044795752E-1,3.118598461E-1,4.267797470E-1,5.667533968E-1
7.588750982E0,1.460007429E-1,3.292933702E-1,7.051696777E-1,7.918425443E-1
7.598750448E0,1.185528040E-1,3.057062626E-1,8.255481720E-1,8.882797254E-1
7.608750981E0,2.713478804E-1,2.033363581E-1,8.529796600E-1,9.179050316E-1
7.618750981E0,3.195538521E-1,5.342090130E-2,7.567453384E-1,8.231840404E-1
7.628750981E0,7.962465286E-3,-3.095618486E-1,5.563039780E-1,6.366836380E-1
7.638750981E0,-2.240707874E-1,-3.794906139E-1,4.549989700E-1,6.334389525E-1
7.648750981E0,-4.565947056E-1,-2.423226833E-1,3.159360886E-1,6.058173158E-1
7.658751447E0,-5.561066866E-1,-1.569240093E-1,3.087186813E-1,6.551236645E-1
7.668751447E0,-4.982503653E-1,-1.378130913E-1,2.247438431E-1,5.636982079E-1
7.678751447E0,-4.234907627E-1,-2.170925140E-1,1.627845764E-1,5.029636210E-1
7.688751447E0,-2.452005148E-1,-2.450679541E-1,2.237129211E-2,3.473932487E-1
7.698751447E0,-2.535287738E-1,-2.042729855E-1,2.838706970E-2,3.268181718E-1
7.708751447E0,3.825843334E-2,-1.307200193E-1,1.325521469E-1,1.900565780E-1
7.718751447E0,1.189707518E-1,-1.992537975E-1,2.171535492E-1,3.178235037E-1
7.728751447E0,2.399380207E-1,-1.572526693E-1,5.787773132E-1,6.459735553E-1
7.738751447E0,1.366056800E-1,-8.936059475E-2,6.358423233E-1,6.564616423E-1
7.748751447E0,-2.315299511E-1,-2.157200575E-1,6.715068817E-1,7.423360113E-1
7.758751447E0,-4.502157569E-1,-3.433516026E-1,5.116424561E-1,7.631268267E-1
7.768751447E0,-8.796868324E-1,-6.446621418E-1,1.781854630E-1,1.105073871E0
7.778751447E0,-9.912845492E-1,-7.617452145E-1,4.228687286E-2,1.250875297E0
7.788751447E0,-8.917385936E-1,-6.557919979E-1,-1.334514618E-1,1.114930561E0
7.798751447E0,-6.858667731E-1,-5.370049477E-1,-1.631746292E-1,8.862355804E-1
7.808751447E0,-1.130813360E-1,-5.376751423E-1,-1.049032211E-1,5.593627025E-1
7.818751447E0,1.556128860E-1,-7.114528418E-1,-4.982280731E-2,7.299745396E-1
7.828751447E0,4.280228019E-1,-9.470661879E-1,9.440422058E-3,1.039339696E0
7.838751447E0,3.210464120E-1,-1.017356396E0,3.263473511E-2,1.067309637E0
7.848751447E0,-6.895732880E-2,-9.094337225E-1,2.809934616E-1,9.543490631E-1
7.858751947E0,-2.148243785E-1,-7.138117552E-1,4.839429855E-1,8.887505548E-1
7.868751947E0,-1.725148559E-1,-3.275314569E-1,7.753896713E-1,8.592248676E-1
7.878751947E0,7.213607430E-2,-1.600694656E-1,9.132738113E-1,9.299972589E-1
7.888751947E0,5.708190203E-1,-1.343700886E-1,8.067054749E-1,9.973281294E-1
7.898751947E0,6.680527925E-1,-2.215836048E-1,5.424757004E-1,8.886358720E-1
7.908751413E0,5.977188349E-1,-5.666395426E-1,-1.658916473E-1,8.401596369E-1
7.918751413E0,4.158647656E-1,-7.274441719E-1,-6.019554138E-1,1.031730995E0
7.928751413E0,1.633197069E-2,-9.052902460E-1,-1.127532005E0,1.446079384E0
7.938751413E0,-1.832121015E-1,-9.309669733E-1,-1.246593475E0,1.566608270E0
7.948751413E0,-2.011957169E-1,-8.843281269E-1,-1.094478607E0,1.421407533E0
7.958750879E0,-2.915734053E-2,-9.112646580E-1,-9.065866470E-1,1.285749889E0
7.968750879E0,3.899607658E-1,-8.136050701E-1,-3.308830261E-1,9.609922924E-1
7.978750879E0,5.335232615E-1,-6.128627062E-1,-6.833934784E-2,8.154250632E-1
7.988750879E0,5.907887816E-1,-2.858852148E-1,1.525802612E-1,6.738267408E-1
7.998750879E0,6.037243009E-1,-1.364595890E-1,2.464590073E-1,6.662179021E-1
8.008750879E0,6.328860521E-1,1.506490707E-1,2.160978317E-1,6.855203647E-1
8.018750879E0,5.608874559E-1,2.149074078E-1,2.195224762E-1,6.395076620E-1
8.028750879E0,4.132368267E-1,3.062722683E-1,3.164148331E-1,6.038921458E-1
8.038750879E0,2.168230563E-1,3.149797916E-1,3.127450943E-1,4.939979766E-1
8.048750879E0,-1.067003310E-1,8.997917175E-4,1.922693253E-1,2.198937555E-1
8.058750879E0,-1.155365407E-1,-2.454483509E-1,1.205015182E-1,2.968403630E-1
8.068750879E0,2.306306362E-2,-5.106755495E-1,2.846717834E-2,5.119880878E-1
8.078750879E0,6.062537432E-2,-4.136209488E-1,-7.941246033E-2,4.255162325E-1
8.088750879E0,-9.732216597E-3,-7.420086861E-2,-1.391754150E-1,1.580198756E-1
8.098750879E0,-8.121201396E-2,-3.448581696E-2,-3.378868103E-3,8.829541060E-2
8.108751412E0,-9.674715996E-2,2.360534668E-2,3.514652252E-1,3.653012865E-1
8.118751412E0,-1.398107708E-1,2.406263351E-2,6.404447556E-1,6.559691661E-1
8.128751412E0,-2.296551764E-1,1.282532215E-1,7.783679962E-1,8.216125160E-1
8.138751412E0,-2.072754800E-1,1.373097897E-1,7.497787476E-1,7.899273848E-1
8.148751412E0,-1.830050647E-1,-1.763319969E-2,4.498329163E-1,4.859541501E-1
8.158750912E0,-2.398299426E-1,-9.418487549E-2,2.782249451E-1,3.792074791E-1
8.168750912E0,-3.303404450E-1,-2.978705168E-1,2.574920654E-4,4.448052615E-1
8.178750912E0,-3.749519587E-1,-3.788203001E-1,-4.313468933E-2,5.347470360E-1
8.188750912E0,-4.923748970E-1,-4.352470636E-1,-5.817413330E-3,6.571962324E-1
8.198750912E0,-5.264332891E-1,-4.233273268E-1,8.804893494E-2,6.812419896E-1
8.208750912E0,-4.757356048E-1,-3.464716673E-1,2.721900940E-1,6.484245748E-1
8.218750912E0,-4.190679789E-1,-3.066829443E-1,3.147087097E-1,6.072182237E-1
8.228750912E0,-2.639170587E-1,-2.243179083E-1,3.621015549E-1,5.010870921E-1
8.238750912E0,-1.307972968E-1,-1.583139896E-1,3.285531998E-1,3.874512321E-1
8.248750912E0,1.087234765E-1,-1.783475876E-1,2.596397400E-1,3.332288267E-1
8.258750912E0,1.077531800E-1,-1.902406216E-1,2.629251480E-1,3.419530309E-1
8.268750912E0,4.771889746E-2,-8.991217613E-2,2.256069183E-1,2.475071195E-1
8.278750912E0,-3.314086795E-2,-4.347729683E-2,2.598686218E-1,2.655565723E-1
8.288750912E0,-7.196831703E-2,-4.312825203E-2,2.985315323E-1,3.100976629E-1
8.298750912E0,2.481652796E-2,-4.995727539E-2,2.720584869E-1,2.777182200E-1
8.308750912E0,1.259981543E-1,-9.685945511E-2,1.880054474E-1,2.461774506E-1
8.318750912E0,1.096823886E-1,-1.752445698E-1,9.206295013E-2,2.263105662E-1
8.328750912E0,1.366882026E-2,-3.999236822E-1,5.362987518E-2,4.037350019E-1
8.338750912E0,-1.166128516E-1,-5.271308422E-1,3.344535828E-3,5.398857915E-1
8.348750912E0,-3.061114550E-1,-5.531452894E-1,-4.897689819E-2,6.340920049E-1
8.358751445E0,-3.506082296E-1,-5.427533388E-1,-1.708316803E-2,6.463738486E-1
8.368751445E0,-1.392374337E-1,-3.813561201E-1,1.009597778E-1,4.183448697E-1
8.378751445E0,5.854790285E-2,-2.868955135E-1,2.064685822E-1,3.582822463E-1
8.388751445E0,2.708075345E-1,-1.981785297E-1,3.853454590E-1,5.109819695E-1
8.398751445E0,2.905908227E-1,-2.232149839E-1,4.365396500E-1,5.699428228E-1
8.408750911E0,3.301429451E-1,-1.774215698E-1,4.419565201E-1,5.794810983E-1
8.418750911E0,3.510504067E-1,-1.345584393E-1,2.847146988E-1,4.715981566E-1
8.428750911E0,1.764467061E-1,-1.935318708E-1,2.235517502E-1,3.443303793E-1
8.438750911E0,1.370448172E-1,-1.665034294E-1,2.893419266E-1,3.608648284E-1
8.448750911E0,1.379085183E-1,-1.293642521E-1,4.675588608E-1,5.043462674E-1
8.458750911E0,1.219302490E-1,-1.212205887E-1,5.428981781E-1,5.694733080E-1
8.468750911E0,2.304306626E-1,-6.894063950E-2,5.754547119E-1,6.236980259E-1
8.478750911E0,2.690148354E-1,-4.924488068E-2,5.053777695E-1,5.746309510E-1
8.488750911E0,2.813486457E-1,-1.669770479E-1,3.445110321E-1,4.751065630E-1
8.498750911E0,2.574523091E-1,-1.895529032E-1,3.106613159E-1,4.457829604E-1
8.508750911E0,2.003009766E-1,-2.454233170E-1,1.426744461E-1,3.474321276E-1
8.518750911E0,1.246180981E-1,-3.102211952E-1,4.397487640E-2,3.371952700E-1
8.528750911E0,-4.821224511E-2,-5.352735519E-1,1.008768082E-1,5.468256819E-1
8.538750911E0,-6.483004987E-2,-5.783009529E-1,5.961513519E-2,5.849691375E-1
8.548750911E0,-1.430235207E-1,-6.185050011E-1,-5.677223206E-3,6.348514745E-1
8.558750911E0,-1.713296622E-1,-6.485447884E-1,7.255840302E-2,6.747065418E-1
8.568750911E0,-9.811076522E-2,-6.227084398E-1,1.506109238E-1,6.481320650E-1
8.578750911E0,-2.730718255E-2,-5.517548323E-1,2.095890045E-1,5.908524587E-1
8.588750911E0,1.197483018E-1,-4.155008793E-1,2.665605545E-1,5.079716190E-1
8.598750911E0,2.461280078E-1,-3.253862858E-1,2.715473175E-1,4.900950692E-1
8.608751444E0,4.221004248E-1,-1.763149500E-1,2.174377441E-1,5.064927470E-1
8.618751444E0,4.749690294E-1,-1.309976578E-1,1.521043777E-1,5.156468821E-1
8.628751444E0,5.570755005E-1,-2.751129866E-1,-2.033519745E-2,6.216379886E-1
8.638751444E0,5.590794086E-1,-2.480289936E-1,-1.206512451E-1,6.234138993E-1
8.648751444E0,6.241707206E-1,-2.633121014E-1,-8.941745758E-2,6.833138612E-1
8.658750910E0,5.685822368E-1,-3.189177513E-1,-8.513927460E-2,6.574518904E-1
8.668750910E0,5.780284405E-1,-3.596673012E-1,-9.110832214E-2,6.868611009E-1
8.678751443E0,5.525363684E-1,-3.305395842E-1,-1.618547440E-1,6.638899105E-1
8.688751443E0,5.215008259E-1,-3.321392536E-1,-3.141412735E-1,6.935159226E-1
8.698751443E0,5.075088143E-1,-3.693047762E-1,-3.659801483E-1,7.265622364E-1
8.708751443E0,4.783178568E-1,-3.906717300E-1,-3.487329483E-1,7.092439933E-1
8.718751443E0,4.804574251E-1,-4.101213217E-1,-3.391141891E-1,7.169639246E-1
8.728751443E0,4.129095674E-1,-4.538079500E-1,-3.203973770E-1,6.921635974E-1
8.738751443E0,3.396728635E-1,-4.772815704E-1,-2.827615738E-1,6.504840192E-1
8.748751443E0,3.279235959E-1,-4.618443251E-1,-3.625717163E-1,6.725268135E-1
8.758751443E0,2.987996340E-1,-4.412637949E-1,-3.945999146E-1,6.631018402E-1
8.768751443E0,2.232060581E-1,-4.193382263E-1,-4.389181137E-1,6.467724507E-1
8.778751443E0,1.446009278E-1,-3.951859474E-1,-3.975410461E-1,5.788957114E-1
8.788751443E0,1.190335304E-2,-3.826421499E-1,-4.597225189E-1,5.982486934E-1
8.798751443E0,7.489338517E-3,-3.459393978E-1,-4.740457535E-1,5.868982310E-1
8.808751443E0,1.843786985E-2,-3.831135035E-1,-3.998317719E-1,5.540589836E-1
8.818718109E0,1.154576987E-2,-3.858505487E-1,-3.281927109E-1,5.066797867E-1
8.828685275E0,-3.159634769E-3,-2.194957733E-1,-2.520742416E-1,3.342600800E-1
8.838651941E0,6.915703416E-4,-7.541108131E-2,-3.223752975E-1,3.310787549E-1
8.848618607E0,1.257840693E-1,1.664025784E-1,-5.104436874E-1,5.514201739E-1
8.858585273E0,2.542317510E-1,2.395553589E-1,-5.551481247E-1,6.559039514E-1
8.868551939E0,2.598017454E-1,3.909695148E-1,-4.397640228E-1,6.432312992E-1
8.878518605E0,2.571925521E-1,5.154590607E-1,-4.994888306E-1,7.624533716E-1
8.888485271E0,1.944609731E-2,3.181781769E-1,-4.804468155E-1,5.765801293E-1
8.898418604E0,-1.828463376E-1,1.176848412E-1,-3.653812408E-1,4.251893180E-1
8.908351404E0,-5.595148802E-1,-1.065748930E-1,-8.217430115E-2,5.754717410E-1
8.918284737E0,-6.669321656E-1,-9.501409531E-2,-2.243442535E-1,7.100398129E-1
8.928218070E0,-7.709308267E-1,-2.213193178E-1,-3.269147873E-1,8.661350115E-1
8.938151903E0,-7.479239106E-1,-2.821244001E-1,-3.305168152E-1,8.650004152E-1
8.948085236E0,-5.396718979E-1,-2.845706940E-1,-2.739362717E-1,6.687804708E-1
8.958018569E0,-3.106771708E-1,-2.880752087E-1,-1.414699554E-1,4.466781599E-1
8.967951902E0,8.843801916E-2,-3.525550365E-1,2.010030746E-1,4.153535519E-1
8.977884702E0,2.223828435E-1,-3.431725502E-1,3.180646896E-1,5.180604937E-1
8.987818035E0,3.149243295E-1,-1.703648567E-1,5.691308975E-1,6.723923678E-1
8.997751368E0,2.673626840E-1,-9.563660622E-2,7.555961609E-1,8.071893976E-1
9.007684701E0,9.398630261E-2,-4.732775688E-2,8.128118515E-1,8.195952950E-1
9.017618034E0,1.735448837E-3,-8.563649654E-2,8.341522217E-1,8.385383416E-1
9.027551367E0,-8.444835991E-2,-3.283448219E-1,7.694263458E-1,8.408083903E-1
9.037484700E0,-3.527778387E-2,-4.454954863E-1,7.336359024E-1,8.590299108E-1
9.047418300E0,-3.504121304E-2,-4.354580641E-1,7.317476273E-1,8.522360015E-1
9.057351633E0,1.740719378E-1,-4.781209230E-1,6.728944778E-1,8.436158100E-1
9.067284966E0,4.032957554E-1,-3.489679098E-1,6.553735733E-1,8.449500512E-1
9.077218299E0,5.250433683E-1,-2.665785551E-1,6.338901520E-1,8.651886439E-1
9.087151632E0,8.450268507E-1,-1.151765585E-1,5.441856384E-1,1.011668932E0
9.097084965E0,9.924688339E-1,-6.983518600E-2,5.581951141E-1,1.140812485E0
9.107018298E0,1.142924190E0,3.992974758E-2,5.058612823E-1,1.250506187E0
9.116984964E0,1.119640946E0,6.619429588E-2,4.492931366E-1,1.208239155E0
9.126951130E0,1.097478032E0,7.396435738E-2,2.949781418E-1,1.138833114E0
9.136917796E0,1.053847194E0,2.085745335E-2,1.696205139E-1,1.067614191E0
9.146884462E0,7.669067979E-1,-1.728516817E-1,-2.053642273E-2,7.864130500E-1
9.156851128E0,6.379447579E-1,-2.945966721E-1,-9.398555756E-2,7.089386422E-1
9.166817794E0,5.263291001E-1,-4.929956198E-1,-2.044649124E-1,7.495818189E-1
9.176784994E0,5.355825424E-1,-6.219768524E-1,-1.747560501E-1,8.391921959E-1
9.186752160E0,8.335609436E-1,-4.397571087E-1,-2.417984009E-1,9.729730870E-1
9.196752160E0,9.069462419E-1,-3.792167902E-1,-1.752061844E-1,9.985259469E-1
9.206752160E0,8.430045843E-1,-2.657653093E-1,-1.182708740E-1,8.917824446E-1
9.216752160E0,8.123370409E-1,-1.969428062E-1,4.357528687E-2,8.370046252E-1
9.226752160E0,6.711389422E-1,-5.018031597E-2,3.557758331E-1,7.612634152E-1
9.236751660E0,5.919041038E-1,-3.013098240E-2,4.904241562E-1,7.692686118E-1
9.246751660E0,4.462841153E-1,-4.122459888E-2,6.704835892E-1,8.064844837E-1
9.256751660E0,3.936170936E-1,-2.608060837E-2,6.329383850E-1,7.458053457E-1
9.266751660E0,3.997942209E-1,2.604365349E-2,4.449014664E-1,5.987077799E-1
9.276751660E0,3.512114286E-1,7.188224792E-2,3.409156799E-1,4.947120637E-1
9.286751660E0,2.719863057E-1,1.441979408E-1,1.891193390E-1,3.612972751E-1
9.296751926E0,2.063466907E-1,1.739083529E-1,1.686573029E-1,3.182268966E-1
9.306751926E0,2.117761970E-1,1.818220615E-1,1.668586731E-1,3.251926144E-1
9.316751926E0,2.273508310E-1,9.114456177E-2,3.083324432E-1,3.937824616E-1
9.326751926E0,2.258808613E-1,1.032820940E-1,2.702932358E-1,3.670800836E-1
9.336751926E0,1.107875705E-1,1.656098366E-1,2.423591614E-1,3.137490508E-1
9.346751659E0,-1.591330469E-1,1.194704771E-1,1.935405731E-1,2.775868782E-1
9.356751659E0,-3.425059319E-1,-2.131140232E-2,1.479015350E-1,3.736834935E-1
9.366751659E0,-4.908177555E-1,-7.425010204E-2,2.626132965E-2,4.970963731E-1
9.376751659E0,-4.469503760E-1,-6.211650372E-2,-8.309364319E-2,4.588329241E-1
9.386751659E0,-3.419024646E-1,-1.704312563E-1,-2.450704575E-1,4.538762359E-1
9.396751659E0,-3.380856812E-1,-3.314079046E-1,-2.802562714E-1,5.501606172E-1
9.406751659E0,-5.362078547E-1,-5.296089649E-1,-4.019241333E-1,8.541355444E-1
9.416751659E0,-6.742570400E-1,-6.468213797E-1,-3.539667130E-1,9.991460790E-1
9.426751659E0,-7.658458948E-1,-7.443233728E-1,-4.022264481E-1,1.141193819E0
9.436752159E0,-7.584452629E-1,-7.670773268E-1,-3.312044144E-1,1.128425100E0
9.446752159E0,-7.681189179E-1,-7.170140743E-1,-1.935901642E-1,1.068453558E0
9.456752159E0,-7.281254530E-1,-6.390037537E-1,-6.847667694E-2,9.711753332E-1
9.466752159E0,-3.530178666E-1,-5.013831854E-1,5.387783051E-2,6.155562796E-1
9.476751625E0,-2.058705091E-1,-4.485137463E-1,1.423625946E-1,5.136286163E-1
9.486751125E0,-1.550876498E-1,-3.782416582E-1,2.306480408E-1,4.693798567E-1
9.496751125E0,-1.459877789E-1,-3.291629553E-1,2.374067307E-1,4.313034181E-1
9.506751125E0,-1.155966520E-2,-2.394852638E-1,2.297935486E-1,3.321022319E-1
9.516751125E0,1.470597982E-1,-2.033156157E-1,2.989501953E-1,3.903012210E-1
9.526751125E0,2.573117614E-1,-8.428561687E-2,4.042310715E-1,4.865348568E-1
9.536751125E0,2.595166564E-1,-1.495742798E-2,4.763345718E-1,5.426483612E-1
9.546751391E0,3.488959074E-1,-6.027698517E-2,4.074831009E-1,5.398186238E-1
9.556751391E0,3.461431265E-1,-1.123367548E-1,3.435401917E-1,5.004542674E-1
9.566751391E0,2.146386504E-1,-2.257102728E-1,3.546428680E-2,3.134845979E-1
9.576751391E0,1.953778863E-1,-2.678538561E-1,-1.629447937E-2,3.319393269E-1
9.586751391E0,3.284340501E-1,-2.251172066E-1,-1.283264160E-2,3.983859418E-1
9.596751124E0,3.860911131E-1,-1.404983997E-1,2.429866791E-2,4.115781496E-1
9.606751124E0,5.246124268E-1,-1.492918730E-1,1.982173920E-1,5.803416202E-1
9.616751124E0,5.983533263E-1,-1.502361298E-1,1.977910995E-1,6.478571732E-1
9.626751124E0,5.753486156E-1,-1.370385885E-1,8.278846741E-2,5.972097911E-1
9.636751124E0,5.525143147E-1,-1.641577482E-1,-2.964019775E-2,5.771467539E-1
9.646751124E0,6.858205199E-1,-2.107843161E-1,-1.062698364E-1,7.253089628E-1
9.656751124E0,7.232690454E-1,-1.984357834E-1,-6.595897675E-2,7.528913990E-1
9.666751124E0,8.155094981E-1,-1.258922815E-1,7.310867310E-3,8.252018280E-1
9.676751124E0,8.795445561E-1,-1.202013493E-1,6.084632874E-2,8.898029368E-1
9.686751657E0,7.594851851E-1,-2.325761318E-1,6.609153748E-2,7.970429693E-1
9.696751657E0,7.255506516E-1,-2.653369904E-1,1.688003540E-3,7.725479375E-1
9.706751657E0,7.031125426E-1,-3.419682980E-1,-3.381633759E-2,7.825938341E-1
9.716751657E0,7.592058778E-1,-3.448963165E-1,-5.948638916E-2,8.359938185E-1
9.726751657E0,8.857250810E-1,-3.075473309E-1,-3.698062897E-2,9.383292848E-1
9.736751157E0,9.144194722E-1,-2.976232767E-1,-4.278469086E-2,9.625866796E-1
9.746751157E0,8.101287484E-1,-3.123842478E-1,6.809234619E-3,8.682965351E-1
9.756717823E0,7.270410061E-1,-3.351132870E-1,1.119709015E-2,8.006340703E-1
9.766684489E0,5.728523731E-1,-3.897774220E-1,-2.488613129E-2,6.933293587E-1
9.776651155E0,5.396876335E-1,-3.635586500E-1,-4.165935516E-2,6.520530160E-1
9.786617821E0,6.136988401E-1,-2.574803829E-1,-3.437995911E-3,6.655330449E-1
9.796584987E0,6.454442739E-1,-2.115824223E-1,4.641151428E-2,6.808226354E-1
9.806551653E0,6.674232483E-1,-1.844871044E-1,1.388320923E-1,7.062319972E-1
9.816518319E0,6.639745235E-1,-1.952905655E-1,1.827640533E-1,7.158234923E-1
9.826484985E0,6.138494611E-1,-2.253670692E-1,1.758766174E-1,6.771514316E-1
9.836451651E0,5.404509306E-1,-2.394754887E-1,1.518297195E-1,6.103179350E-1
9.846418051E0,3.584558368E-1,-2.111870050E-1,1.801500320E-1,4.533702373E-1
9.856384717E0,2.718549967E-1,-1.367521286E-1,1.557655334E-1,3.418613539E-1
9.866351383E0,1.988403797E-1,-1.192681789E-1,2.175960541E-1,3.179786752E-1
9.876318049E0,1.864486933E-1,-8.246397972E-2,2.915201187E-1,3.557350177E-1
9.886284715E0,2.087016702E-1,-9.884631634E-2,4.326734543E-1,4.904419430E-1
9.896251381E0,1.824437380E-1,-7.329595089E-2,4.878664017E-1,5.259958553E-1
9.906218547E0,9.490740299E-2,5.956053734E-3,5.001125336E-1,5.090731145E-1
9.916185213E0,5.487072468E-2,6.402730942E-3,4.359207153E-1,4.394071705E-1
9.926151879E0,-8.980917931E-2,-6.255948544E-2,2.665042877E-1,2.881039973E-1
9.936118545E0,-1.300191879E-1,-8.133602142E-2,1.713953018E-1,2.299932327E-1
9.946085211E0,2.675580978E-2,-7.747447491E-2,1.050062180E-1,1.332083835E-1
9.956052411E0,3.623992205E-2,-7.334423065E-2,1.079673767E-1,1.354609263E-1
9.966019077E0,-1.636672020E-2,-1.737320423E-2,1.538505554E-1,1.556910118E-1
9.975952410E0,-1.840609312E-2,-2.620935440E-2,2.044000626E-1,2.068939344E-1
9.985885210E0,-1.771173477E-1,-1.069235802E-2,2.358322144E-1,2.951299963E-1
9.995818543E0,-1.878734231E-1,4.566311836E-3,2.507257462E-1,3.133379551E-1
1.000575188E1,-8.097317815E-2,9.989666939E-2,3.066120148E-1,3.324859813E-1
1.001568528E1,-3.825742006E-2,1.188187599E-1,3.054132462E-1,3.299375378E-1
1.002561861E1,1.581364870E-2,5.131447315E-2,3.069534302E-1,3.116145936E-1
1.003555194E1,5.479210615E-2,1.656544209E-2,2.849597931E-1,2.906521503E-1
1.004548528E1,-5.515676737E-2,-5.011975765E-2,1.723775864E-1,1.877985393E-1
1.005545194E1,-1.959079504E-1,-1.006342173E-1,1.894111633E-1,2.904888285E-1
1.006541861E1,-2.979441881E-1,-1.528354287E-1,9.887504578E-2,3.491499423E-1
1.007538527E1,-2.602335811E-1,-2.054561973E-1,6.101322174E-2,3.371296174E-1
1.008535194E1,-2.742490768E-1,-2.385448217E-1,1.827144623E-2,3.639368542E-1
1.009531810E1,-2.896714807E-1,-2.013624907E-1,1.717567444E-3,3.527879950E-1
1.010528477E1,-3.232367337E-1,-1.578984261E-1,2.563953400E-2,3.606539680E-1
1.011525144E1,-3.418847322E-1,-1.433797479E-1,9.955787659E-2,3.838680672E-1
1.012521857E1,-3.743371367E-1,-9.253942966E-2,1.803064346E-1,4.256785740E-1
1.013518524E1,-2.896556556E-1,-4.571437836E-2,2.011222839E-1,3.555845558E-1
1.014515190E1,-5.726584792E-2,-4.406094551E-3,2.148818970E-1,2.224253148E-1
1.015511857E1,8.047759533E-3,-3.165495396E-2,1.403293610E-1,1.440802974E-1
1.016508523E1,6.459951401E-3,-1.015232801E-1,3.864288330E-3,1.018019651E-1
1.017505190E1,-9.765177965E-3,-1.200981140E-1,-1.737785339E-2,1.217411413E-1
1.018501857E1,1.391595602E-2,-1.243156195E-1,-2.538681030E-3,1.251178324E-1
1.019498523E1,6.937372684E-2,-9.881722927E-2,4.819583893E-2,1.300015295E-1
1.020495140E1,1.595879197E-1,-4.801082611E-2,7.489585876E-2,1.827094229E-1
1.021491806E1,1.998657584E-1,-6.104457378E-2,1.110687256E-1,2.366622555E-1
1.022488473E1,2.702804208E-1,-8.359766006E-2,1.184291840E-1,3.067010698E-1
1.023485140E1,3.279355764E-1,-2.536594868E-2,1.138067245E-1,3.480476177E-1
1.024481806E1,3.900128007E-1,1.274859905E-2,1.403083801E-1,4.146793376E-1
1.025478420E1,4.743505716E-1,-1.252734661E-2,1.070470810E-1,4.864406200E-1
1.026475136E1,7.870180607E-1,-1.028490067E-2,1.402187347E-2,7.872101498E-1
1.027475136E1,8.983003497E-1,2.210044861E-2,-1.901626587E-2,8.987733677E-1
1.028475136E1,8.657566309E-1,2.534127235E-2,-1.847553253E-2,8.663244596E-1
1.029475136E1,7.538989186E-1,-6.890773773E-3,8.498573303E-2,7.587052373E-1
1.030475136E1,4.210481644E-1,-3.112900257E-2,2.171249390E-1,4.747565804E-1
1.031475129E1,2.351697683E-1,-9.461879730E-3,3.132514954E-1,3.918173636E-1
1.032475129E1,-4.177755117E-2,-8.428227901E-2,2.872219086E-1,3.022338351E-1
1.033475129E1,-1.095240712E-1,-2.160812616E-1,3.019371033E-1,3.871080574E-1
1.034475129E1,-1.412244141E-1,-4.036772847E-1,2.187223434E-1,4.803531502E-1
1.035475129E1,-5.644243956E-2,-4.513292313E-1,4.489803314E-2,4.570554204E-1
1.036475129E1,3.281673789E-1,-4.523929358E-1,-2.914228439E-1,6.303018887E-1
1.037475129E1,4.794969559E-1,-5.534023046E-1,-3.739366531E-1,8.221922294E-1
1.038475129E1,6.422218084E-1,-5.387351513E-1,-3.559703827E-1,9.107136366E-1
1.039475129E1,5.889064670E-1,-4.445156455E-1,-2.999458313E-1,7.964750389E-1
1.040475129E1,4.238827825E-1,-3.442056179E-1,-1.689052582E-2,5.462960832E-1
1.041475129E1,3.143914342E-1,-3.177185059E-1,1.532287598E-1,4.725103974E-1
1.042475083E1,3.136192560E-1,-3.118935227E-1,5.672578812E-1,7.193164193E-1
1.043475083E1,4.256906509E-1,-2.161582708E-1,6.914281845E-1,8.402439305E-1
1.044475083E1,5.989355445E-1,-1.886172295E-1,7.438659668E-1,9.734663950E-1
1.045475083E1,5.253240466E-1,-2.703127265E-1,6.434392929E-1,8.735264436E-1
1.046475083E1,3.051189184E-1,-4.554163814E-1,2.227210999E-1,5.916978309E-1
1.047475083E1,1.487202644E-1,-4.468467832E-1,-1.040897369E-1,4.823115570E-1
1.048475083E1,9.762161970E-2,-4.667364955E-1,-4.210491180E-1,6.361252209E-1
1.049475083E1,1.241927743E-1,-5.356779099E-1,-5.275068283E-1,7.619961432E-1
1.050475083E1,3.124957085E-1,-4.763962626E-1,-4.525156021E-1,7.275832166E-1
1.051475133E1,3.765052557E-1,-4.186137915E-1,-2.967796326E-1,6.364525625E-1
1.052475133E1,5.155546665E-1,-1.828780770E-1,6.662082672E-2,5.510710841E-1
1.053475133E1,5.094047785E-1,-4.356956482E-2,2.474842072E-1,5.680140563E-1
1.054475133E1,4.338245392E-1,-8.937072754E-2,4.948635101E-1,6.641391055E-1
1.055475226E1,4.329858422E-1,-9.318804741E-2,5.359172821E-1,6.952467799E-1
1.056475176E1,3.733662963E-1,-5.283010006E-2,6.823129654E-1,7.795796261E-1
1.057475176E1,3.125857711E-1,-3.761518002E-2,7.093830109E-1,7.761114753E-1
1.058475176E1,2.761170268E-1,-7.550716400E-4,5.909433365E-1,6.522692769E-1
1.059475176E1,2.985751629E-1,7.406222820E-2,4.993085861E-1,5.864651786E-1
1.060475176E1,3.035862446E-1,-4.198431969E-3,3.218469620E-1,4.424564404E-1
1.061475176E1,2.871690392E-1,-8.262193203E-2,2.356777191E-1,3.805738142E-1
1.062475223E1,7.988560200E-2,-1.342109442E-1,7.064151764E-2,1.714191091E-1
1.063475223E1,-7.128220797E-2,-1.599858999E-1,-3.936100006E-2,1.795158201E-1
1.064475223E1,-1.154139638E-1,-1.923186183E-1,-1.447772980E-1,2.669593602E-1
1.065475223E1,-5.222249031E-2,-1.851896048E-1,-1.736536026E-1,2.591870983E-1
1.066475223E1,1.935345531E-1,-1.531674266E-1,-1.066942215E-1,2.688857391E-1
1.067475223E1,2.646720409E-1,-9.403860569E-2,-6.594657898E-2,2.885194966E-1
1.068475223E1,5.448971391E-1,-1.319999099E-1,-5.998611450E-3,5.606896216E-1
1.069475223E1,5.819634199E-1,-1.086053848E-1,2.020454407E-2,5.923552780E-1
1.070475223E1,5.598543882E-1,-4.085916281E-2,8.454895020E-2,5.676750234E-1
1.071475223E1,4.373471141E-1,1.840716600E-2,1.033010483E-1,4.497581890E-1
1.072475223E1,4.769539833E-2,1.147562861E-1,2.176399231E-1,2.506212129E-1
1.073475223E1,-1.701878905E-1,1.687116623E-1,3.197994232E-1,3.996238408E-1
1.074475223E1,-3.296514750E-1,1.433301568E-1,4.432477951E-1,5.706857600E-1
1.075475223E1,-2.827246189E-1,1.283770800E-2,4.203710556E-1,5.067640884E-1
1.076475273E1,-6.797456741E-2,-1.959396005E-1,3.040370941E-1,3.680372582E-1
1.077475273E1,2.272573113E-1,-1.756964326E-1,1.375875473E-1,3.185050316E-1
1.078475273E1,7.319200039E-1,-7.992357016E-2,-2.534809113E-1,7.786830174E-1
1.079475273E1,8.449526429E-1,-7.977432013E-2,-3.494939804E-1,9.178534487E-1
1.080475273E1,6.635205746E-1,-1.274288297E-1,-3.083868027E-1,7.426978387E-1
1.081475223E1,4.803870916E-1,-5.794513226E-2,-2.211961746E-1,5.320311493E-1
1.082475223E1,2.176599503E-1,7.280451059E-2,-1.873588562E-2,2.302767555E-1
1.083475223E1,1.100711226E-1,8.441084623E-2,1.861009598E-1,2.321086173E-1
1.084475223E1,-1.500633955E-1,4.670619965E-3,2.999238968E-1,3.354030131E-1
1.085475129E1,-1.272522211E-1,-4.642319679E-2,2.435207367E-1,2.786585548E-1
1.086475129E1,1.375306845E-1,-1.144940853E-1,8.160972595E-2,1.966818042E-1
1.087475176E1,3.504634500E-1,-1.043874621E-1,-3.018569946E-2,3.669230825E-1
1.088475176E1,3.598034382E-1,-1.649272442E-2,-2.715330124E-1,4.510661824E-1
1.089475176E1,2.505349517E-1,-8.081138134E-2,-2.953662872E-1,3.956507109E-1
1.090475176E1,-1.814621687E-2,-1.153390408E-1,-1.472072601E-1,1.878892146E-1
1.091475176E1,-9.876674414E-2,-9.721016884E-2,-7.603168488E-2,1.580680353E-1
1.092475129E1,-2.083421350E-1,-1.510648727E-1,1.072406769E-1,2.787967069E-1
1.093475129E1,-2.891724110E-1,-1.446417570E-1,2.184143066E-1,3.901880707E-1
1.094475129E1,-4.657366574E-1,-2.076764107E-1,2.290515900E-1,5.590212487E-1
1.095475129E1,-5.293561816E-1,-2.412624359E-1,2.183065414E-1,6.213559978E-1
1.096475129E1,-5.044777393E-1,-2.386618257E-1,1.192226410E-1,5.706761732E-1
1.097475182E1,-4.485174716E-1,-2.477626801E-1,1.065797806E-1,5.233674785E-1
1.098475182E1,-4.170612395E-1,-2.501246333E-1,7.514476776E-2,4.920865227E-1
1.099475182E1,-3.095014989E-1,-1.644029617E-1,8.692359924E-2,3.610750944E-1
1.100475182E1,-6.681799889E-2,-9.396630526E-2,1.273956299E-1,1.718253707E-1
1.101475232E1,6.412738562E-2,-1.128851771E-1,1.175422668E-1,1.751330046E-1
1.102475232E1,2.041682005E-1,-1.713885069E-1,1.796035767E-1,3.214282488E-1
1.103475282E1,2.160551548E-1,-1.875433326E-1,2.297649384E-1,3.669390391E-1
1.104475282E1,1.374766231E-1,-2.057157755E-1,1.293277740E-1,2.791853780E-1
1.105475282E1,2.470183372E-2,-2.149710655E-1,1.958656311E-2,2.172702765E-1
1.106475232E1,-2.538680136E-1,-2.321066856E-1,-3.481292725E-2,3.457375041E-1
1.107475232E1,-3.917492628E-1,-2.706471086E-1,-2.677154541E-2,4.769004696E-1
1.108475232E1,-4.648517370E-1,-2.669643164E-1,9.379768372E-2,5.442013314E-1
1.109475232E1,-4.387162626E-1,-1.704020500E-1,1.256790161E-1,4.871386176E-1
1.110475232E1,-3.260160387E-1,-1.433765888E-2,2.243690491E-1,3.960220904E-1
1.111475232E1,-2.409986854E-1,5.947935581E-2,3.084678650E-1,3.959426522E-1
1.112475279E1,-1.250325441E-1,7.130992413E-2,3.229541779E-1,3.535783412E-1
1.113475279E1,-1.086821556E-1,6.066989899E-2,2.989969254E-1,3.238700495E-1
1.114475279E1,-3.174024820E-2,9.561419487E-3,1.313829422E-1,1.355003380E-1
1.115475279E1,1.777696609E-2,-5.821901560E-2,4.993534088E-2,7.873380830E-2
1.116475279E1,9.182327986E-2,-1.353496313E-1,-1.919145584E-1,2.521551807E-1
1.117475232E1,1.844334602E-1,-1.611092091E-1,-2.589702606E-1,3.564231676E-1
1.118475232E1,1.618534327E-1,-1.598579288E-1,-2.686138153E-1,3.520006716E-1
1.119475232E1,1.174682379E-1,-1.396858692E-1,-2.399845123E-1,3.015020649E-1
1.120475232E1,1.379916072E-1,-1.408250928E-1,-3.670310974E-2,2.005505140E-1
1.121475232E1,2.236983180E-1,-1.438754201E-1,6.105327606E-2,2.728893118E-1
1.122475232E1,2.394915819E-1,-1.675721407E-1,7.495212555E-2,3.017523178E-1
1.123475232E1,2.081047893E-1,-1.771353483E-1,4.837799072E-2,2.775337185E-1
1.124475232E1,8.967757225E-3,-2.123343349E-1,2.678298950E-2,2.142046194E-1
1.125475232E1,-7.307648659E-2,-2.055731416E-1,-6.646156311E-3,2.182765696E-1
1.126475282E1,-1.407601237E-1,-1.365290284E-1,2.935504913E-2,1.982808789E-1
1.127475229E1,-1.223254800E-1,-1.478572488E-1,6.525325775E-2,2.026901002E-1
1.128475229E1,-7.190251350E-2,-1.484713554E-1,1.201219559E-1,2.040661636E-1
1.129475229E1,3.495573997E-2,-1.798027754E-1,1.126003265E-1,2.150111051E-1
1.130475229E1,2.097428441E-1,-1.810550094E-1,-7.405281067E-3,2.771783095E-1
1.131475179E1,2.599899769E-1,-2.390496731E-1,4.036903381E-2,3.554844486E-1
1.132475179E1,1.992318034E-1,-2.019286752E-1,-3.862285614E-2,2.862869651E-1
1.133475129E1,2.079826593E-1,-1.395075321E-1,-1.959800720E-2,2.512035429E-1
1.134475129E1,1.449236870E-1,-1.102176309E-1,1.547613144E-1,2.389599666E-1
1.135475129E1,1.331193447E-1,-1.413653493E-1,2.162485123E-1,2.906343768E-1
1.136475129E1,2.920372486E-1,-9.265869856E-2,2.656307220E-1,4.055010105E-1
1.137475176E1,3.013025522E-1,-8.275640011E-2,3.031854630E-1,4.353771637E-1
1.138475176E1,1.531264186E-1,-1.011836529E-2,2.429037094E-1,2.873191491E-1
1.139475176E1,1.813554764E-2,-5.297309160E-2,2.332906723E-1,2.399157859E-1
1.140475176E1,-5.423164368E-2,-2.566106319E-1,3.031167984E-1,4.008364767E-1
1.141475176E1,-1.402592063E-1,-3.692277670E-1,3.828859329E-1,5.500940161E-1
1.142475129E1,-3.237941265E-1,-2.940718532E-1,3.190965652E-1,5.414272889E-1
1.143475129E1,-2.973255515E-1,-2.053565383E-1,3.556575775E-1,5.070168674E-1
1.144475129E1,-5.989474058E-2,-1.244429350E-1,3.657522202E-1,3.909579396E-1
1.145475129E1,1.284706593E-1,-1.334168315E-1,3.661451340E-1,4.103255054E-1
1.146475129E1,5.578923225E-1,-2.259775996E-1,3.640909195E-1,7.034713333E-1
1.147475129E1,6.504309773E-1,-2.737990618E-1,2.234678268E-1,7.402460754E-1
1.148475129E1,4.876497388E-1,-3.439701796E-1,3.313064575E-2,5.976749885E-1
1.149475129E1,2.620075941E-1,-3.569129705E-1,-3.695392609E-2,4.442976936E-1
1.150475129E1,-1.969534159E-2,-4.134867787E-1,-1.066970825E-1,4.274850759E-1
1.151475142E1,-1.817950606E-1,-4.974139333E-1,-8.061122894E-2,5.356941621E-1
1.152475142E1,-4.086334109E-1,-6.172598600E-1,-5.459308624E-2,7.422744805E-1
1.153475142E1,-4.847058058E-1,-6.050138474E-1,-3.844738007E-2,7.761827586E-1
1.154475142E1,-4.815663993E-1,-4.030864835E-1,-2.024936676E-2,6.283271019E-1
1.155475142E1,-4.272551239E-1,-3.052092791E-1,2.244949341E-3,5.250758847E-1
1.156475092E1,-1.869432330E-1,-2.344675064E-1,1.247091293E-1,3.247693811E-1
1.157475092E1,-3.810173273E-2,-2.128961682E-1,1.556377411E-1,2.664575518E-1
1.158475092E1,4.684972763E-2,-1.722323298E-1,1.980419159E-1,2.666073384E-1
1.159475092E1,6.521105766E-3,-2.028521299E-1,1.995735168E-1,2.846420560E-1
1.160475092E1,-5.253517628E-2,-1.244457960E-1,1.916379929E-1,2.344607029E-1
1.161475092E1,-4.575198889E-2,-1.231167316E-1,1.910276413E-1,2.318243599E-1
1.162475139E1,-2.288460732E-2,-9.339618683E-2,2.409439087E-1,2.594234378E-1
1.163475139E1,-3.239434958E-2,-6.444036961E-2,2.648553848E-1,2.745001457E-1
1.164475139E1,-6.752079725E-2,-3.457283974E-2,2.892122269E-1,2.989950693E-1
1.165475139E1,-6.353926659E-2,2.959609032E-3,2.949132919E-1,3.016949576E-1
1.166475139E1,1.557726264E-1,2.159571648E-2,2.651386261E-1,3.082693257E-1
1.167475092E1,2.719853520E-1,1.348757744E-2,2.287101746E-1,3.556209927E-1
1.168475092E1,4.038148522E-1,-4.522502422E-2,1.520175934E-1,4.338445417E-1
1.169475092E1,3.772162795E-1,-6.081187725E-2,1.211709976E-1,4.008398890E-1
1.170475092E1,3.944489360E-1,-8.962559700E-2,2.821636200E-2,4.054859724E-1
1.171475092E1,3.009809852E-1,-9.418725967E-2,2.611064911E-2,3.164530918E-1
1.172475092E1,1.046659350E-1,-2.047603130E-1,6.433010101E-2,2.387888307E-1
1.173475092E1,4.476308823E-2,-2.787627578E-1,8.794403076E-2,2.957136482E-1
1.174475092E1,-1.607424021E-2,-3.596711159E-1,7.532882690E-2,3.678262157E-1
1.175475092E1,-6.108611822E-2,-3.068770766E-1,-4.047393799E-2,3.155046650E-1
1.176475142E1,-5.083119869E-2,-3.213708997E-1,-9.675788879E-2,3.394483097E-1
1.177475142E1,8.264958858E-3,-3.664863110E-1,-1.533451080E-1,3.973603501E-1
1.178475142E1,2.188894749E-1,-3.675488830E-1,-3.275909424E-1,5.388140766E-1
1.179475142E1,3.094173074E-1,-3.840463758E-1,-2.962312698E-1,5.753117886E-1
1.180475142E1,2.841746807E-1,-3.558374643E-1,-3.440132141E-1,5.707194071E-1
1.181475129E1,2.497376800E-1,-3.644463420E-1,-2.936687469E-1,5.305010631E-1
1.182475129E1,1.711702943E-1,-4.200016260E-1,-1.785535812E-1,4.874238575E-1
1.183471795E1,1.285406947E-1,-5.138129592E-1,-6.789302826E-2,5.339812080E-1
1.184468462E1,6.763070822E-2,-5.121334195E-1,-1.532478333E-1,5.388315604E-1
1.185465128E1,9.379816055E-2,-4.961633682E-1,-1.977806091E-1,5.423037454E-1
1.186461795E1,7.833057642E-2,-3.531236649E-1,-1.704406738E-1,3.998525043E-1
1.187458462E1,2.531534433E-2,-2.611762285E-1,-1.575679779E-1,3.060744299E-1
1.188455128E1,4.073297977E-2,-2.368081808E-1,-6.185531616E-3,2.403654529E-1
1.189451795E1,1.215165257E-1,-1.965106726E-1,8.489894867E-2,2.461514614E-1
1.190448461E1,3.368245959E-1,-2.078982592E-1,1.682882309E-1,4.301086180E-1
1.191445128E1,4.168752432E-1,-1.787295341E-1,2.417011261E-1,5.139539368E-1
1.192441748E1,3.413820267E-1,-7.618212700E-2,1.568870544E-1,3.833522564E-1
1.193438415E1,2.368348837E-1,-1.325426102E-1,1.222076416E-1,2.976457850E-1
1.194435081E1,-6.387329102E-2,-3.886639476E-1,4.445457458E-2,3.963781914E-1
1.195431748E1,-1.799597740E-1,-4.711620212E-1,-3.788566589E-2,5.057810733E-1
1.196428414E1,-2.726661265E-1,-5.263022780E-1,-1.367044449E-1,6.083000984E-1
1.197425081E1,-2.304070592E-1,-5.086210370E-1,-1.680040359E-1,5.831021594E-1
1.198421801E1,-1.279539466E-1,-5.138257742E-1,-1.892509460E-1,5.623211353E-1
1.199418468E1,-1.284403205E-1,-5.562173724E-1,-2.004461288E-1,6.050234143E-1
1.200415134E1,-1.182844937E-1,-6.114892364E-1,-1.513051987E-1,6.409395999E-1
1.201411801E1,-3.166699409E-2,-6.377254725E-1,-1.954345703E-1,6.677508877E-1
1.202408467E1,2.356249094E-2,-7.322195768E-1,-1.726741791E-1,7.526732836E-1
1.203405134E1,4.461902380E-2,-7.464178801E-1,-9.499359131E-2,7.537601020E-1
1.204401801E1,-1.176660657E-1,-6.318286657E-1,2.797794342E-2,6.433004983E-1
1.205398467E1,-2.633008957E-1,-5.917364955E-1,1.171236038E-1,6.581773168E-1
1.206395084E1,-5.037102103E-1,-5.758424401E-1,3.327903748E-1,8.343068532E-1
1.207391750E1,-4.901680946E-1,-6.082519293E-1,3.732414246E-1,8.657622835E-1
1.208388417E1,-2.854406238E-1,-7.355946898E-1,2.624855042E-1,8.315494798E-1
1.209385084E1,-1.459928155E-1,-7.919208407E-1,2.210664749E-1,8.350586246E-1
1.210381750E1,4.519939423E-2,-6.555482745E-1,1.270923615E-1,6.692824470E-1
1.211378417E1,5.677726865E-2,-4.883301258E-1,9.303188324E-2,5.003447824E-1
1.212375083E1,-3.724405169E-2,-2.431389093E-1,2.189750671E-1,3.293231371E-1
1.213375083E1,-3.040063381E-2,-2.360594273E-1,2.175874710E-1,3.224787734E-1
1.214375083E1,-1.196345985E-1,-1.112855673E-1,6.204500198E-1,6.416035706E-1
1.215375083E1,-2.156406492E-1,-2.314121723E-1,6.282386780E-1,7.033749495E-1
1.216375083E1,-4.000040591E-1,-4.070167542E-1,4.569940567E-1,7.311015342E-1
1.217375137E1,-3.865756392E-1,-3.866690397E-1,2.077941895E-1,5.849205897E-1
1.218375137E1,-3.051387668E-1,-4.524868131E-1,-2.247323990E-1,5.902191408E-1
1.219375137E1,-2.539964318E-1,-5.322897434E-1,-2.949657440E-1,6.594325959E-1
1.220375137E1,-1.000344455E-1,-5.043473840E-1,-2.835493088E-1,5.871740666E-1
1.221375137E1,-2.193295956E-2,-4.463005066E-1,-1.910085678E-1,4.859521271E-1
1.222375137E1,3.016480803E-2,-2.774764299E-1,6.343841553E-3,2.791833253E-1
1.223375187E1,-4.923492670E-2,-2.328771353E-1,1.480484009E-1,2.803108402E-1
1.224375187E1,-2.197996527E-1,-2.103369236E-1,4.065361023E-1,5.077648188E-1
1.225375187E1,-2.475787103E-1,-2.407315969E-1,4.686813354E-1,5.821590107E-1
1.226375187E1,-2.529586256E-1,-2.402561903E-1,4.688415527E-1,5.844001239E-1
1.227375187E1,-4.335568249E-1,-4.350143671E-1,3.113489151E-1,6.885834495E-1
1.228375133E1,-5.632747412E-1,-4.336744547E-1,1.565227509E-1,7.279088804E-1
1.229375133E1,-6.102417111E-1,-4.160890579E-1,8.552074432E-2,7.435313362E-1
1.230375133E1,-6.066590548E-1,-4.207218885E-1,8.607578278E-2,7.432705810E-1
1.231375133E1,-4.459528327E-1,-5.088825226E-1,2.371034622E-1,7.169751757E-1
1.232375133E1,-2.100598812E-1,-4.294676781E-1,3.064222336E-1,5.678575750E-1
1.233375133E1,-1.101564765E-1,-2.843958139E-1,3.996095657E-1,5.026959651E-1
1.234375133E1,-1.344313025E-1,-5.971038342E-2,6.101121902E-1,6.275938095E-1
1.235375133E1,-1.089402139E-1,-6.684422493E-3,8.110523224E-1,8.183633187E-1
1.236375133E1,-8.678308129E-2,2.878248692E-2,8.804759979E-1,8.852105499E-1
1.237375133E1,-1.235343516E-1,1.648628712E-2,8.834266663E-1,8.921744271E-1
1.238375133E1,-2.014050782E-1,-7.961010933E-2,7.265043259E-1,7.580965048E-1
1.239375133E1,-2.194023877E-1,-1.151508093E-1,4.933948517E-1,5.521191867E-1
1.240375133E1,-1.801489741E-1,-1.676275730E-1,6.647109985E-2,2.548942196E-1
1.241375133E1,-1.441660374E-1,-2.506456375E-1,-1.088876724E-1,3.089718550E-1
1.242375133E1,-1.425239593E-1,-3.826754093E-1,-4.036941528E-1,5.742146958E-1
1.243375133E1,-8.622965217E-2,-4.042993784E-1,-4.542541504E-1,6.141989689E-1
1.244375133E1,4.607844353E-2,-2.105845213E-1,-4.906530380E-1,5.359192731E-1
1.245375133E1,9.737774730E-2,-1.190861464E-1,-4.842796326E-1,5.081246879E-1
1.246375133E1,2.349705696E-1,-1.477020979E-1,-3.492422104E-1,4.460910219E-1
1.247375080E1,2.795481682E-1,-1.918640137E-1,-2.362718582E-1,4.132594452E-1
1.248375130E1,3.221486509E-1,-2.150801420E-1,-1.450767517E-1,4.136260203E-1
1.249375130E1,3.191338480E-1,-1.883828640E-1,-6.810283661E-2,3.767924000E-1
1.250375130E1,2.458931804E-1,-9.551024437E-2,-5.560302734E-2,2.695873877E-1
1.251375130E1,2.822039127E-1,-5.362999439E-2,-3.107261658E-2,2.889303241E-1
1.252375130E1,3.883332610E-1,-2.114820480E-2,5.307197571E-3,3.889448991E-1
1.253375133E1,4.797988832E-1,-1.270076036E-1,7.931709290E-3,4.963877635E-1
1.254375133E1,4.681876004E-1,-3.673563004E-1,-1.906356812E-1,6.248937858E-1
1.255371800E1,4.492186904E-1,-4.297268391E-1,-3.722972870E-1,7.246156622E-1
1.256368466E1,3.284798265E-1,-4.028224945E-1,-6.135282516E-1,8.041031489E-1
1.257365133E1,2.559251189E-1,-4.161891937E-1,-5.913686752E-1,7.670906214E-1
1.258361800E1,9.588527679E-2,-4.627496004E-1,-6.102523804E-1,7.718414000E-1
1.259358516E1,3.392295539E-2,-5.132596493E-1,-4.979238510E-1,7.159011076E-1
1.260355183E1,3.278422356E-2,-4.713448286E-1,-2.472801208E-1,5.332806118E-1
1.261351849E1,1.848475337E-1,-4.309536219E-1,-2.245273590E-1,5.199059240E-1
1.262348516E1,6.049214602E-1,-4.079416990E-1,-1.525497437E-2,7.297801840E-1
1.263345183E1,6.491131783E-1,-3.894301653E-1,1.294460297E-1,7.679583624E-1
1.264341849E1,3.986681700E-1,-3.601797819E-1,1.524381638E-1,5.584829262E-1
1.265338516E1,1.987877488E-1,-3.254779577E-1,1.926231384E-1,4.272658932E-1
1.266335182E1,-8.138872683E-2,-1.938002110E-1,4.989833832E-1,5.414490404E-1
1.267331849E1,-2.892575264E-1,-8.090257645E-2,6.905584335E-1,7.530511892E-1
1.268328516E1,-4.559569657E-1,-5.961525440E-2,1.059482574E0,1.154969289E0
1.269325182E1,-3.781941831E-1,-1.442238092E-1,1.055270195E0,1.130232955E0
1.270321902E1,-2.927826643E-1,-2.927498817E-1,9.005403519E-1,9.911594761E-1
1.271318569E1,-3.979760110E-1,-4.192423820E-1,7.316551208E-1,9.324528386E-1
1.272315235E1,-9.489195347E-1,-4.983013868E-1,2.897605896E-1,1.110276432E0
1.273311902E1,-1.112718701E0,-5.918051004E-1,1.060085297E-1,1.264758472E0
1.274308569E1,-1.207456350E0,-7.853399515E-1,-1.934337616E-1,1.453315622E0
1.275305235E1,-1.072354674E0,-8.655310273E-1,-3.119382858E-1,1.412938074E0
1.276301902E1,-8.703504801E-1,-8.401849270E-1,-4.319210052E-1,1.284514081E0
1.277298568E1,-8.127262592E-1,-6.679787040E-1,-4.399118423E-1,1.140281522E0
1.278295185E1,-1.020242214E0,-4.193109274E-1,-1.681470871E-1,1.115790873E0
1.279291852E1,-1.008927464E0,-3.132903576E-1,8.181285858E-2,1.059612580E0
1.280288518E1,-6.800262928E-1,-1.388854980E-1,4.825983047E-1,8.453555845E-1
1.281285185E1,-5.308224559E-1,-1.353299618E-2,6.275205612E-1,8.220326492E-1
1.282281851E1,-3.500445485E-1,2.362072468E-2,7.468891144E-1,8.251863267E-1
1.283278465E1,-2.091789097E-1,-2.530097961E-2,7.907934189E-1,8.183826655E-1
1.284275181E1,2.560693324E-1,6.627094746E-2,4.696178436E-1,5.389844715E-1
1.285275181E1,4.204376936E-1,7.407927513E-2,3.242902756E-1,5.361154503E-1
1.286275181E1,4.804976881E-1,1.788213253E-1,1.172370911E-1,5.259274001E-1
1.287275181E1,3.513283432E-1,1.308586597E-1,6.810283661E-2,3.810427665E-1
1.288275181E1,-1.651456952E-2,-9.272456169E-3,1.524591446E-1,1.536310523E-1
1.289275131E1,-2.064450383E-1,-9.132993221E-2,1.928443909E-1,2.969001001E-1
1.290275131E1,-3.420597911E-1,-1.812305450E-1,2.257623672E-1,4.481272784E-1
1.291275131E1,-2.835002840E-1,-1.802508831E-1,2.251787186E-1,4.044357145E-1
1.292275131E1,-5.823942274E-2,-1.971398592E-1,2.726640701E-1,3.414698370E-1
1.293275131E1,4.991672933E-3,-1.237739325E-1,2.723951340E-1,2.992390552E-1
1.294275131E1,1.315717995E-1,-1.027922630E-1,4.085683823E-1,4.413677727E-1
1.295275138E1,1.498810649E-1,-1.032878160E-1,4.992456436E-1,5.313933752E-1
1.296275138E1,5.215141922E-2,-6.327116489E-2,4.965648651E-1,5.032888595E-1
1.297275138E1,-6.633015722E-2,-7.695090771E-2,4.173965454E-1,4.295823647E-1
1.298275138E1,-5.701221526E-2,-7.800948620E-2,4.174852371E-1,4.285204731E-1
1.299275138E1,-1.525175571E-1,-4.166482687E-1,1.162519455E-1,4.586631660E-1
1.300275085E1,-9.971973300E-2,-3.142887354E-1,-1.946067810E-2,3.303031219E-1
1.301275085E1,-1.399795562E-1,-2.117521763E-1,1.482772827E-2,2.542697816E-1
1.302275085E1,-2.060260624E-1,-6.127321720E-2,2.594556808E-1,3.369249113E-1
1.303275084E1,-1.918837130E-1,-1.118766069E-1,3.480863571E-1,4.129162706E-1
1.304275084E1,-6.617657840E-2,-1.736910343E-1,4.030752182E-1,4.438665863E-1
1.305275084E1,-4.952478781E-2,-2.109253407E-1,3.841123581E-1,4.410039768E-1
1.306275084E1,-3.415814415E-2,-2.855331898E-1,1.526575089E-1,3.255768669E-1
1.307275085E1,-1.317198202E-2,-3.302100897E-1,2.950954437E-2,3.317876092E-1
1.308275085E1,1.402792037E-1,-3.723089695E-1,-2.393255234E-1,4.642940123E-1
1.309275134E1,2.542066574E-1,-4.078155756E-1,-2.710189819E-1,5.517117517E-1
1.310275135E1,1.850008965E-1,-4.038203955E-1,-1.616249084E-1,4.726720370E-1
1.311275135E1,1.472070962E-1,-3.922843933E-1,-1.340637207E-1,4.399205106E-1
1.312275135E1,6.804338843E-2,-2.149245739E-1,-4.233169556E-2,2.293783940E-1
1.313275134E1,1.462539472E-2,-1.954184771E-1,5.618572235E-2,2.038605375E-1
1.314275084E1,9.781156480E-2,-2.625174522E-1,2.433681488E-1,3.710937493E-1
1.315275085E1,2.039271891E-1,-2.571089268E-1,2.608289719E-1,4.191933340E-1
1.316275085E1,2.750740647E-1,-2.752771378E-1,1.283359528E-2,3.893686490E-1
1.317275085E1,2.241839617E-1,-2.975540161E-1,-1.032209396E-1,3.865894510E-1
1.318275085E1,2.253302634E-1,-3.096504211E-1,-3.630399704E-1,5.276884791E-1
1.319275084E1,1.076789498E-1,-3.687518835E-1,-4.893007278E-1,6.220835234E-1
1.320275138E1,-1.072786897E-1,-5.210055113E-1,-4.702930450E-1,7.100218365E-1
1.321275138E1,-1.624655277E-1,-5.530253649E-1,-3.994369507E-1,7.012716873E-1
1.322275138E1,-2.970516384E-1,-5.611590147E-1,-2.479124069E-1,6.816154907E-1
1.323275138E1,-3.311868906E-1,-5.375349522E-1,-1.567029953E-1,6.505262562E-1
1.324275138E1,-3.723100722E-1,-4.934519529E-1,-5.370521545E-2,6.204787425E-1
1.325275131E1,-2.779132724E-1,-4.446731806E-1,-8.117675781E-3,5.244386724E-1
1.326275131E1,-1.226568073E-1,-4.182924032E-1,9.511661530E-2,4.461618512E-1
1.327275131E1,-6.240202487E-2,-4.095187187E-1,2.105083466E-1,4.646647799E-1
1.328275131E1,1.096363664E-1,-4.256197214E-1,2.542800903E-1,5.077702674E-1
1.329275131E1,1.650518179E-1,-4.666845798E-1,2.839384079E-1,5.706641912E-1
1.330275131E1,-5.200293660E-2,-4.341782331E-1,2.515544891E-1,5.044746818E-1
1.331275131E1,-2.775438130E-2,-4.227230549E-1,2.503242493E-1,4.920643419E-1
1.332275131E1,-5.379878879E-1,-4.001103640E-1,1.986398697E-1,6.992689530E-1
1.333275131E1,-6.670318842E-1,-4.449518919E-1,3.095016479E-1,8.594794882E-1
1.334275181E1,-6.582405567E-1,-4.022756815E-1,4.321146011E-1,8.842111642E-1
1.335275181E1,-6.254556775E-1,-3.545944691E-1,4.589166641E-1,8.529575292E-1
1.336275181E1,-4.309794307E-1,-1.686148643E-1,3.613195419E-1,5.871337612E-1
1.337275181E1,-2.826369107E-1,-1.472668648E-1,2.640838623E-1,4.138978607E-1
1.338275181E1,-2.409124374E-2,-1.890815496E-1,1.195611954E-1,2.250046664E-1
1.339275131E1,9.283760190E-2,-2.366447449E-1,1.839256287E-2,2.548682836E-1
1.340275131E1,8.362674713E-2,-3.293379545E-1,1.279592514E-1,3.630846887E-1
1.341275131E1,-4.603207111E-2,-3.463873863E-1,1.774024963E-1,3.918862318E-1
1.342275131E1,-2.528081536E-1,-2.755723000E-1,3.438663483E-1,5.080316137E-1
1.343275131E1,-3.134895861E-1,-1.549015045E-1,4.214162827E-1,5.475964572E-1
1.344275131E1,-3.997266591E-1,-1.830204725E-1,6.542959213E-1,7.882772659E-1
1.345275184E1,-2.226018608E-1,-8.802914619E-2,7.051248550E-1,7.446487630E-1
1.346275184E1,-1.646258831E-1,-5.835318565E-2,6.244316101E-1,6.483992685E-1
1.347275184E1,-1.980237067E-1,-1.227780581E-1,6.137142181E-1,6.564548587E-1
1.348275184E1,-1.428295076E-1,-1.753957272E-1,3.522596359E-1,4.186296459E-1
1.349275184E1,-3.269302845E-2,-2.760191560E-1,2.255201340E-1,3.579311937E-1
1.350275131E1,7.997465134E-2,-4.554499984E-1,4.435539246E-2,4.645406836E-1
1.351275131E1,1.555633545E-2,-4.678270221E-1,-3.625869751E-2,4.694878223E-1
1.352275131E1,-1.390479207E-1,-3.827747107E-1,4.859924316E-3,4.072768373E-1
1.353275131E1,-9.897297621E-2,-3.952960968E-1,1.053037643E-1,4.208842322E-1
1.354275131E1,-9.723466635E-2,-2.417193055E-1,2.604875565E-1,3.684244428E-1
1.355271798E1,-3.839799762E-2,-1.980010271E-1,3.103132248E-1,3.700987847E-1
1.356268518E1,1.691337526E-1,-2.196005583E-1,2.599401474E-1,3.799993575E-1
1.357265184E1,3.242850006E-1,-2.661854029E-1,1.190824509E-1,4.361147331E-1
1.358261851E1,3.703130186E-1,-3.376268148E-1,-1.864833832E-1,5.346958481E-1
1.359258517E1,3.448773026E-1,-3.441839218E-1,-2.404403687E-1,5.433364490E-1
1.360255184E1,1.671008170E-1,-3.080052137E-1,-2.706718445E-1,4.427788863E-1
1.361251904E1,1.433458328E-1,-2.471714020E-1,-2.487039566E-1,3.788078507E-1
1.362248571E1,1.216805875E-1,-2.910351753E-1,-2.272596359E-1,3.887860347E-1
1.363245237E1,1.214545369E-1,-3.675131202E-1,-1.916866302E-1,4.319269177E-1
1.364241854E1,3.077850938E-1,-5.295438170E-1,-3.978300095E-1,7.303540474E-1
1.365238520E1,4.216114283E-1,-5.676578879E-1,-5.673875809E-1,9.065982247E-1
1.366235187E1,5.818901062E-1,-5.277807713E-1,-8.826112747E-1,1.181588465E0
1.367231880E1,6.158716083E-1,-5.270802379E-1,-9.296360016E-1,1.233423897E0
1.368228547E1,7.456576824E-1,-5.198507905E-1,-1.027263641E0,1.371685391E0
1.369225214E1,8.220292330E-1,-5.456721187E-1,-1.060647964E0,1.448607685E0
1.370221880E1,7.432093024E-1,-7.356744409E-1,-8.933391571E-1,1.375366060E0
1.371218547E1,6.213999987E-1,-8.698058128E-1,-7.839088440E-1,1.325599180E0
1.372215213E1,3.591592908E-1,-8.984520435E-1,-6.508274078E-1,1.166099389E0
1.373211880E1,2.300368696E-1,-7.886706591E-1,-6.544113159E-1,1.050320208E0
1.374208546E1,1.193255186E-2,-6.738038063E-1,-3.637638092E-1,7.658185582E-1
1.375205160E1,-1.571770906E-1,-5.190149546E-1,-2.938547134E-1,6.167914992E-1
1.376201826E1,-2.573093772E-1,-4.214037657E-1,1.442193985E-1,5.143816523E-1
1.377198493E1,-2.451753914E-1,-4.458873868E-1,3.495635986E-1,6.173501792E-1
1.378195160E1,-2.431553602E-1,-4.187607169E-1,3.462791443E-1,5.953102662E-1
1.379191826E1,-1.228230298E-1,-2.389793396E-1,8.315191269E-1,8.738539236E-1
1.380188493E1,-7.711318135E-2,-4.715144634E-2,9.602470398E-1,9.644916169E-1
1.381185213E1,-6.361421943E-2,6.011581421E-2,9.791278839E-1,9.830320916E-1
1.382181879E1,3.853297234E-2,1.115412712E-1,1.051003456E0,1.057607919E0
1.383178546E1,1.722397804E-1,1.170960665E-1,1.080058098E0,1.099956147E0
1.384175213E1,3.931484818E-1,1.723176241E-1,1.138160706E0,1.216416411E0
1.385175213E1,4.040089846E-1,1.741822958E-1,1.136711121E0,1.218882645E0
1.386175159E1,2.015562952E-1,1.446485519E-2,1.128485680E0,1.146435389E0
1.387175159E1,9.306371212E-3,-1.560062766E-1,1.079984665E0,1.091233909E0
1.388175159E1,-4.167709053E-1,-3.325596452E-1,8.906631470E-1,1.038062978E0
1.389175159E1,-6.055067778E-1,-4.241026044E-1,7.855567932E-1,1.078703366E0
1.390175159E1,-7.415668964E-1,-4.400351644E-1,5.898590088E-1,1.044742101E0
1.391175106E1,-7.409337759E-1,-4.136976004E-1,5.115995407E-1,9.908898298E-1
1.392175132E1,-6.457629800E-1,-4.301776290E-1,4.668807983E-1,9.055607648E-1
1.393175132E1,-5.449333787E-1,-5.394183993E-1,3.910684586E-1,8.607317445E-1
1.394175132E1,-4.282633662E-1,-6.387101412E-1,1.644802094E-1,7.863929645E-1
1.395175132E1,-3.789979815E-1,-6.612462997E-1,1.127166748E-1,7.704486925E-1
1.396175132E1,-4.523558021E-1,-6.711744070E-1,1.159410477E-1,8.176449002E-1
1.397175106E1,-4.793989658E-1,-6.978474259E-1,2.720880508E-1,8.892953985E-1
1.398175106E1,-3.372759819E-1,-4.556519985E-1,5.116004944E-1,7.636156740E-1
1.399175106E1,-2.656108737E-1,-3.182321787E-1,5.951204300E-1,7.252511165E-1
1.400175106E1,-2.362424135E-1,-3.139133453E-1,5.612850189E-1,6.851225721E-1
1.401175106E1,-2.039205730E-1,-3.942762017E-1,4.342937469E-1,6.210059436E-1
1.402175106E1,-1.679106504E-1,-6.271666884E-1,8.051490784E-2,6.542283179E-1
1.403175106E1,-2.268640995E-1,-7.585927844E-1,-1.770086288E-1,8.113337087E-1
1.404175106E1,-4.535937905E-1,-8.742552996E-1,-3.911457062E-1,1.059747432E0
1.405175106E1,-7.641905546E-1,-9.608780146E-1,-3.801975250E-1,1.285233022E0
1.406175156E1,-1.302419543E0,-1.114112139E0,-1.370372772E-1,1.719395748E0
1.407175156E1,-1.451176405E0,-1.152705312E0,-5.891799927E-2,1.854215151E0
1.408175156E1,-1.343035460E0,-1.008108258E0,-5.698013306E-2,1.680259873E0
1.409175156E1,-1.019178867E0,-9.275727272E-1,-1.549386978E-1,1.386767006E0
1.410175156E1,9.765278548E-2,-8.684796095E-1,-4.388217926E-1,9.779353068E-1
1.411175102E1,5.537283421E-1,-9.206290841E-1,-6.477661133E-1,1.254501465E0
1.412175102E1,7.975394726E-1,-1.123092175E0,-1.160306931E0,1.801032319E0
1.413175102E1,6.173410416E-1,-1.338003635E0,-1.473869324E0,2.084143583E0
1.414175102E1,1.116672456E-1,-1.573094130E0,-1.840144634E0,2.423474157E0
1.415175102E1,-2.105530053E-1,-1.599741817E0,-1.948793411E0,2.530079486E0
1.416175102E1,-9.625734687E-1,-1.617372990E0,-1.855214119E0,2.642775529E0
1.417175129E1,-1.253112197E0,-1.543849349E0,-1.547951698E0,2.519903857E0
1.418175129E1,-1.167800426E0,-1.109480977E0,-7.471017838E-1,1.775631423E0
1.419175129E1,-9.777973294E-1,-8.240638971E-1,-2.714595795E-1,1.307233425E0
1.420175129E1,-6.528879404E-1,-4.938784242E-1,7.270374298E-1,1.094879895E0
1.421175129E1,-4.682805836E-1,-2.573571205E-1,1.183648109E0,1.298669411E0
1.422175102E1,-1.176252067E-1,5.328416824E-3,1.731119156E0,1.735118905E0
1.423175102E1,-9.781606495E-3,2.808248997E-2,1.910373688E0,1.910605122E0
1.424175102E1,8.714523166E-2,-1.796537638E-1,1.789012909E0,1.800121372E0
1.425175102E1,3.511160612E-4,-2.409231663E-1,1.544599533E0,1.563275987E0
1.426175102E1,-3.359645307E-1,-9.866082668E-2,1.057441711E0,1.113907132E0
1.427175102E1,-5.220333338E-1,-4.451870918E-2,7.848243713E-1,9.436365884E-1
1.428175102E1,-8.255170584E-1,-2.778063416E-1,6.274766922E-1,1.073490464E0
1.429175102E1,-9.358282685E-1,-4.999083877E-1,5.899772644E-1,1.213983574E0
1.430175102E1,-9.411883950E-1,-6.447094083E-1,4.114646912E-1,1.212760903E0
1.431175156E1,-8.801859617E-1,-6.272506118E-1,2.692804337E-1,1.113859331E0
1.432175156E1,-6.528429389E-1,-6.058802605E-1,1.610918045E-1,9.051217390E-1
1.433175156E1,-6.069054604E-1,-6.054407358E-1,1.298313141E-1,8.670345394E-1
1.434175156E1,-3.551222682E-1,-6.276275516E-1,3.546562195E-1,8.036225500E-1
1.435175156E1,-2.798894644E-1,-6.693518162E-1,5.741720200E-1,9.252261748E-1
1.436175106E1,-3.091996908E-1,-7.740043998E-1,1.027474403E0,1.323023397E0
1.437175106E1,-2.440012246E-1,-7.269794345E-1,1.219005585E0,1.440142462E0
1.438175106E1,-2.003914714E-1,-3.992216587E-1,1.038949013E0,1.130906595E0
1.439175106E1,-2.998498678E-1,-4.373284578E-1,9.139938354E-1,1.056669700E0
1.440175106E1,-4.187296927E-1,-8.228619099E-1,5.812578201E-1,1.091007301E0
1.441175106E1,-5.511282682E-1,-1.052489400E0,2.633695602E-1,1.216897625E0
1.442175132E1,-8.521918058E-1,-1.193332553E0,-2.816934586E-1,1.493192774E0
1.443175132E1,-9.640433192E-1,-1.208548427E0,-4.054203033E-1,1.598228533E0
1.444175132E1,-8.808678389E-1,-1.096622348E0,-3.788299561E-1,1.456715778E0
1.445175132E1,-5.956320763E-1,-1.048918247E0,-2.334184647E-1,1.228613544E0
1.446175132E1,7.501754910E-3,-9.291504025E-1,1.960306168E-1,9.496340082E-1
1.447175105E1,1.575067639E-1,-7.976003885E-1,4.286212921E-1,9.190707114E-1
1.448175105E1,7.355251163E-2,-5.280118585E-1,7.544250488E-1,9.237768394E-1
1.449175105E1,1.288603991E-2,-3.888874650E-1,8.577308655E-1,9.418607902E-1
1.450175105E1,-1.804246902E-1,-2.044804096E-1,1.138525963E0,1.170729121E0
1.451175105E1,-3.162350953E-1,-2.581945062E-1,1.192273140E0,1.260231835E0
1.452175105E1,-4.213836789E-1,-4.649141431E-1,1.101157188E0,1.267381757E0
1.453175105E1,-3.543329239E-1,-5.492889881E-1,8.005313873E-1,1.033499258E0
1.454175105E1,-2.987457514E-1,-6.626511812E-1,2.473936081E-1,7.678275908E-1
1.455171772E1,-3.777121902E-1,-6.819812059E-1,8.776664734E-2,7.845175895E-1
1.456168439E1,-3.484424353E-1,-7.012917995E-1,-1.984424591E-1,8.078376869E-1
1.457165105E1,-2.755567133E-1,-6.462473869E-1,-2.287979126E-1,7.388610642E-1
1.458161772E1,-1.433725655E-1,-6.066468954E-1,-8.762359619E-2,6.294871268E-1
1.459158438E1,-1.154377460E-1,-6.060659289E-1,8.856105804E-2,6.232855240E-1
1.460155105E1,-9.732611477E-2,-6.746920347E-1,4.029169083E-1,7.918483121E-1
1.461151718E1,-6.095168740E-2,-5.969044566E-1,5.277652740E-1,7.990908728E-1
1.462148385E1,5.828355625E-2,-4.951380491E-1,6.095581055E-1,7.874768216E-1
1.463145052E1,9.141448140E-2,-4.308030009E-1,6.940031052E-1,8.219416908E-1
1.464141718E1,2.453345209E-1,-3.197935820E-1,7.834453583E-1,8.810468726E-1
1.465138385E1,3.820947409E-1,-2.111948729E-1,7.627811432E-1,8.788826644E-1
1.466135051E1,6.973643899E-1,-1.286087036E-1,5.673112869E-1,9.081296093E-1
1.467131768E1,7.486059070E-1,-2.099373341E-1,4.127330780E-1,8.802460348E-1
1.468128435E1,5.771752000E-1,-4.660094380E-1,1.436071396E-1,7.555918332E-1
1.469125151E1,4.671268761E-1,-5.570845008E-1,-3.411960602E-2,7.278150912E-1
1.470121818E1,2.284774184E-1,-6.692136526E-1,-3.001279831E-1,7.681963615E-1
1.471118484E1,1.053738073E-1,-7.699311972E-1,-3.745088577E-1,8.626439429E-1
1.472115124E1,-3.737550229E-2,-8.101824522E-1,-3.963470459E-1,9.027089868E-1
1.473111791E1,-8.952851593E-2,-8.032301664E-1,-3.490724564E-1,8.803667618E-1
1.474108458E1,-5.871866271E-2,-7.920633554E-1,-3.395843506E-2,7.949625247E-1
1.475105178E1,1.070266962E-2,-7.315074205E-1,1.061630249E-1,7.392484300E-1
1.476101844E1,1.738808751E-1,-5.149758458E-1,3.851966858E-1,6.661915395E-1
1.477095177E1,2.881306410E-1,-3.583531380E-1,5.422849655E-1,7.109917170E-1
1.478088511E1,5.869963169E-1,-1.952726841E-1,6.876783371E-1,9.249851850E-1
1.479081844E1,7.195467353E-1,-1.507031918E-1,6.609592438E-1,9.885980367E-1
1.480075177E1,7.492299080E-1,-3.044698238E-1,6.489009857E-1,1.036879847E0
1.481068511E1,6.781256199E-1,-4.550864697E-1,5.606784821E-1,9.906151682E-1
1.482061844E1,5.205859542E-1,-7.199698091E-1,2.954130173E-1,9.362879431E-1
1.483055177E1,3.625873327E-1,-9.092265964E-1,5.416584015E-2,9.803553007E-1
1.484048510E1,6.137192249E-3,-1.177691460E0,-4.600229263E-1,1.264363845E0
1.485045177E1,-1.698049903E-1,-1.260669708E0,-7.037897110E-1,1.453768140E0
1.486041844E1,-4.113709629E-1,-1.337034583E0,-1.000419617E0,1.719804336E0
1.487038510E1,-3.655225337E-1,-1.290693760E0,-1.127467155E0,1.752335382E0
1.488035177E1,-2.376703322E-1,-1.012474298E0,-1.097184181E0,1.511755443E0
1.489031894E1,-1.804161966E-1,-8.390182853E-1,-8.858175278E-1,1.233358982E0
1.490028560E1,6.238653138E-2,-4.996300936E-1,-5.508432388E-1,7.462912189E-1
1.491025227E1,2.667638063E-1,-3.541264534E-1,-3.650665283E-1,5.743187647E-1
1.492021893E1,8.173689842E-1,-2.179489136E-1,4.062366486E-2,8.469026316E-1
1.493018560E1,1.123033881E0,-8.908283710E-2,1.040468216E-1,1.131356085E0
1.494015226E1,1.404828310E0,8.517670631E-2,4.863357544E-2,1.408248159E0
1.495011893E1,1.301690340E0,9.431099892E-2,1.216888428E-3,1.305102979E0
1.496008560E1,1.061436772E0,-8.033025265E-2,-1.269245148E-1,1.072012502E0
1.497005176E1,8.990219831E-1,-2.333807945E-1,-2.379503250E-1,9.588156646E-1
1.498001843E1,7.569444776E-1,-4.068999290E-1,-4.589424133E-1,9.742487532E-1
1.498998460E1,7.715290785E-1,-4.633340836E-1,-5.722160339E-1,1.066473995E0
1.499995173E1,9.700594544E-1,-3.793466091E-1,-7.552328110E-1,1.286582991E0
1.500991839E1,1.055024981E0,-2.602331638E-1,-7.953205109E-1,1.346600804E0
1.501988506E1,1.176518798E0,-1.501615047E-1,-7.070636749E-1,1.380827288E0
1.502985173E1,1.155139565E0,-1.206545830E-1,-6.269912720E-1,1.319857189E0
1.503981839E1,9.314397573E-1,-2.996180058E-1,-4.663343430E-1,1.083890534E0
1.504978453E1,7.289323211E-1,-3.995718956E-1,-3.827419281E-1,9.151455687E-1
1.505975119E1,4.696503282E-1,-4.342641830E-1,-3.424043655E-1,7.255326050E-1
1.506971786E1,2.726668715E-1,-4.661632776E-1,-3.261098862E-1,6.308748546E-1
1.507968452E1,1.513394415E-1,-5.027103424E-1,-3.601198196E-1,6.366377301E-1
1.508965119E1,2.306810021E-1,-4.947708845E-1,-3.201456070E-1,6.328547721E-1
1.509961786E1,3.839512467E-1,-4.274678230E-1,-1.966323853E-1,6.072986041E-1
1.510958506E1,5.320134759E-1,-3.488154411E-1,-1.475648880E-1,6.530589152E-1
1.511955172E1,7.231606245E-1,-1.994018555E-1,-1.632966995E-1,7.677162242E-1
1.512951839E1,8.332593441E-1,-1.329261065E-1,-2.341737747E-1,8.756870680E-1
1.513948505E1,9.907510877E-1,-1.423755884E-1,-2.260704041E-1,1.026141488E0
1.514945172E1,1.057226062E0,-1.588749886E-1,-2.394247055E-1,1.095578567E0
1.515941838E1,1.099033833E0,-3.224735260E-1,-1.280021667E-1,1.152496896E0
1.516938505E1,9.990695715E-1,-3.442800045E-1,-8.320331573E-2,1.059996001E0
1.517935172E1,6.705651283E-1,-3.076635599E-1,2.899074554E-2,7.383460711E-1
1.518931788E1,5.112181902E-1,-2.641015053E-1,1.341886520E-1,5.908470508E-1
1.519928455E1,4.129837453E-1,-2.933591604E-1,3.087577820E-1,5.932508229E-1
1.520925122E1,4.766764343E-1,-2.597666979E-1,4.159727097E-1,6.839096837E-1
1.521921788E1,9.222980738E-1,-8.603799343E-2,6.452474594E-1,1.128884652E0
1.522918455E1,1.181639314E0,6.391322613E-2,7.572717667E-1,1.404925940E0
1.523915121E1,1.342925668E0,2.227232456E-1,7.616777420E-1,1.559874346E0
1.524911788E1,1.268700838E0,2.523990870E-1,7.854232788E-1,1.513339632E0
1.525908454E1,1.089183092E0,1.203340292E-1,7.951822281E-1,1.353925723E0
1.526905121E1,8.572077155E-1,-1.089239120E-2,7.430648804E-1,1.134490691E0
1.527901788E1,5.658711195E-1,-1.781800985E-1,4.519872665E-1,7.458222044E-1
1.528898454E1,6.184452176E-1,-1.991869211E-1,2.188262939E-1,6.855908865E-1
1.529895074E1,7.305924296E-1,-1.728879213E-1,-6.190681458E-2,7.533179842E-1
1.530891741E1,7.437472343E-1,-6.816875935E-2,-1.629610062E-1,7.644365362E-1
1.531888408E1,8.504960537E-1,-6.796240807E-3,-1.999282837E-2,8.507581557E-1
1.532885074E1,9.145529270E-1,5.589103699E-2,1.460199356E-1,9.278214731E-1
1.533881741E1,9.502694607E-1,4.090499878E-2,4.744701385E-1,1.062923882E0
1.534878407E1,8.372924328E-1,-4.019379616E-3,5.062608719E-1,9.784553356E-1
1.535875127E1,5.769736171E-1,-1.676151752E-1,3.568449020E-1,6.988073310E-1
1.536875127E1,3.651402295E-1,-2.557815313E-1,1.964664459E-1,4.871864564E-1
1.537875127E1,1.523739845E-1,-3.101596832E-1,-2.551317215E-1,4.295451729E-1
1.538875127E1,1.222007573E-1,-4.091462493E-1,-3.326511383E-1,5.412859302E-1
1.539875127E1,3.548216522E-1,-3.782932162E-1,-6.063909531E-1,7.979437012E-1
1.540875074E1,5.821871758E-1,-2.544688582E-1,-6.865901947E-1,9.354690817E-1
1.541875074E1,1.068133712E0,-1.248871088E-1,-6.044626236E-1,1.233645605E0
1.542875074E1,1.180078506E0,-2.754175663E-2,-4.102745056E-1,1.249667556E0
1.543875127E1,1.219983816E0,9.257853031E-2,-1.307868958E-2,1.223561338E0
1.544875127E1,1.022190571E0,2.554979324E-1,-2.135658264E-2,1.053854288E0
1.545875127E1,7.117348909E-1,3.869282007E-1,9.572410583E-2,8.157469534E-1
1.546875127E1,4.236428440E-1,3.402177095E-1,1.378135681E-1,5.605478826E-1
1.547875127E1,1.235643327E-1,1.886293888E-1,2.416982651E-1,3.305559589E-1
1.548875127E1,1.113074720E-1,6.736445427E-2,2.378692627E-1,2.711256335E-1
1.549875127E1,2.757087350E-2,-2.040883303E-1,2.153692245E-1,2.979867489E-1
1.550875127E1,-2.757626772E-2,-2.125104666E-1,6.897735596E-2,2.251200226E-1
1.551875127E1,-3.910231590E-2,-1.124243140E-1,-1.510438919E-1,1.923082806E-1
1.552875127E1,1.401721835E-1,-8.010101318E-2,-2.054405212E-1,2.612857078E-1
1.553875127E1,5.756601691E-1,3.397494555E-2,-6.576538086E-2,5.803998730E-1
1.554875127E1,9.218820930E-1,1.365045309E-1,9.058761597E-2,9.363259029E-1
1.555875127E1,1.211817741E0,3.667891622E-1,8.401584625E-2,1.268895264E0
1.556875127E1,1.092707634E0,2.823089361E-1,-2.783203125E-2,1.128929994E0
1.557875127E1,7.456598282E-1,-1.346831322E-1,-8.401298523E-2,7.623688787E-1
1.558875127E1,4.367904663E-1,-3.363083601E-1,-2.545375824E-1,6.071891018E-1
1.559875127E1,2.681314945E-3,-5.328301191E-1,-4.604835510E-1,7.042444363E-1
1.560875180E1,-5.796049908E-2,-5.117447376E-1,-4.099521637E-1,6.582574515E-1
1.561875180E1,1.408640891E-1,-4.187682867E-1,-2.588129044E-1,5.120485221E-1
1.562875180E1,3.172360659E-1,-3.839099407E-1,-1.388788223E-1,5.170231052E-1
1.563875181E1,5.750551224E-1,-2.798890471E-1,-2.141284943E-2,6.399099801E-1
1.564875181E1,7.619059086E-1,-1.432381868E-1,-2.605056763E-2,7.756909332E-1
1.565875127E1,8.492617011E-1,-7.488840818E-2,2.662363052E-1,8.931603892E-1
1.566875127E1,9.364123344E-1,5.293864012E-2,4.315757751E-1,1.032437993E0
1.567875127E1,1.075527072E0,2.880293131E-1,7.237300873E-1,1.327970108E0
1.568875127E1,1.020951629E0,3.039659858E-1,7.883138657E-1,1.325208021E0
1.569875127E1,9.350810051E-1,3.069945574E-1,1.044202805E0,1.434915204E0
1.570875127E1,9.158554077E-1,3.316915631E-1,9.768190384E-1,1.379487533E0
1.571875127E1,9.133116007E-1,3.889433742E-1,7.130632401E-1,1.222241471E0
1.572875127E1,8.353254795E-1,3.314909935E-1,5.165214539E-1,1.036556486E0
1.573875074E1,5.202430487E-1,1.809203625E-2,1.431093216E-1,5.398707525E-1
1.574875074E1,3.485546708E-1,-1.906231046E-1,-4.806995392E-2,4.001727715E-1
1.575875074E1,1.556005776E-1,-3.910317719E-1,-3.012847900E-1,5.175808257E-1
1.576875074E1,1.376945227E-1,-4.342594147E-1,-3.267869949E-1,5.606520854E-1
1.577875074E1,1.759850979E-1,-2.736684680E-1,-2.515325546E-1,4.112588128E-1
1.578875074E1,2.791482210E-1,-1.979054809E-1,-9.955501556E-2,3.563727119E-1
1.579875074E1,5.448825359E-1,-3.189355135E-2,2.272729874E-1,5.912420717E-1
1.580875074E1,6.480636001E-1,-5.402785540E-2,3.842210770E-1,7.553352070E-1
1.581875074E1,7.569317818E-1,-1.677515507E-1,4.527549744E-1,8.978158897E-1
1.582875074E1,7.471108437E-1,-2.090718150E-1,3.707723618E-1,8.598591633E-1
1.583875074E1,4.782889187E-1,-2.121320367E-1,2.170553207E-1,5.664567971E-1
1.584875074E1,3.288515210E-1,-2.442276478E-1,1.230583191E-1,4.277076299E-1
