"Time (s)","Linear Acceleration x (m/s^2)","Linear Acceleration y (m/s^2)","Linear Acceleration z (m/s^2)","Absolute acceleration (m/s^2)"
0.000000000E0,-1.912315190E-2,-1.655004174E-2,1.031017303E-2,2.731114219E-2
1.000000000E-2,-1.755513251E-2,-1.587075740E-2,1.031208038E-2,2.581477522E-2
2.000000000E-2,-8.382514864E-2,-5.437641591E-2,8.709239960E-2,1.325463550E-1
3.000000000E-2,-8.657657355E-2,-7.315158844E-3,1.037015915E-1,1.352887087E-1
4.000000000E-2,-6.264624000E-2,1.784853637E-3,3.416156769E-2,7.137751603E-2
5.000160000E-2,-8.174167573E-2,-5.696788430E-4,6.528854370E-2,1.046165380E-1
6.000160000E-2,-4.563786834E-2,-1.009689271E-2,5.092144012E-2,6.912130883E-2
7.000160000E-2,-5.509857461E-2,-5.459710956E-4,5.810451508E-2,8.007674869E-2
8.000160000E-2,-5.747868493E-2,-7.798075676E-3,6.049919128E-2,8.381384940E-2
9.000160000E-2,-8.130190521E-2,-1.505081356E-2,5.810546875E-2,1.010582618E-1
1.000016000E-1,-6.926231831E-2,-3.170900047E-3,5.810737610E-2,9.046430513E-2
1.100016000E-1,-6.679840386E-2,1.610306650E-2,5.092239380E-2,8.552441581E-2
1.200016000E-1,-5.948147923E-2,-1.505599916E-2,6.528854370E-2,8.959533147E-2
1.300016000E-1,-8.330383152E-2,-5.443185568E-3,6.768226624E-2,1.074711393E-1
1.400016000E-1,-6.891601533E-2,6.582692266E-3,7.247066498E-2,1.002234817E-1
1.500016000E-1,-5.208368227E-2,8.947379887E-3,5.810546875E-2,7.854305230E-2
1.600007870E-1,-4.490442201E-2,-1.255735010E-2,6.049823761E-2,7.638148278E-2
1.700007870E-1,-5.446725711E-2,-1.730961353E-2,6.768131256E-2,8.858366039E-2
1.800007870E-1,-6.871338934E-2,8.957490325E-3,6.289386749E-2,9.358100809E-2
1.900015760E-1,-6.870253384E-2,-6.451383233E-4,5.571079254E-2,8.845420717E-2
2.000015760E-1,-6.385973841E-2,4.121221602E-3,5.810546875E-2,8.643665979E-2
2.100015760E-1,-5.414094776E-2,-6.827488542E-4,7.247066498E-2,9.046383616E-2
2.200015760E-1,-5.886083096E-2,4.014335573E-3,5.092334747E-2,7.793522714E-2
2.300015760E-1,-6.706378609E-2,-3.113582730E-3,7.486820221E-2,1.005608945E-1
2.400015760E-1,-6.379058957E-2,-3.026701510E-3,5.093097687E-2,8.168454349E-2
2.500015760E-1,-3.936145455E-2,-7.653199136E-3,5.333232880E-2,6.672505418E-2
2.600015760E-1,-4.428604990E-2,-2.244934440E-4,7.009983063E-2,8.291737374E-2
2.700015760E-1,-3.286955506E-2,7.163085043E-3,7.489681244E-2,8.210511525E-2
2.800015760E-1,-2.438857779E-2,-7.286205888E-3,4.378318787E-2,5.064443763E-2
2.900015760E-1,-4.040137678E-2,4.910923541E-3,6.055068970E-2,7.295734671E-2
3.000018420E-1,-4.220688716E-2,1.698127389E-2,5.337905884E-2,7.013635939E-2
3.100018420E-1,-2.012187243E-2,-2.412214875E-3,5.578613281E-2,5.935318984E-2
3.200018420E-1,-1.761322469E-2,-7.331900299E-3,4.143238068E-2,4.561386428E-2
3.300018420E-1,-3.937489167E-2,-2.647124231E-3,4.144287109E-2,5.722675008E-2
3.400018420E-1,-2.994021028E-2,2.381156385E-2,6.060600281E-2,7.166934031E-2
3.500015750E-1,9.527578950E-4,1.392685622E-2,4.625320435E-2,4.831380738E-2
3.600015750E-1,2.406489104E-3,1.344117522E-2,4.626464844E-2,4.823768316E-2
3.700015750E-1,-2.257316187E-2,-1.783458889E-2,4.148483276E-2,5.048377509E-2
3.800015750E-1,-3.072931990E-2,3.876440227E-3,5.825138092E-2,6.597379229E-2
3.900015750E-1,-9.979642928E-3,1.552820206E-3,5.586433411E-2,5.676995991E-2
4.000015750E-1,-1.089102775E-2,-7.880479097E-4,6.784439087E-2,6.871751507E-2
4.100015750E-1,-1.196677610E-2,-3.168217838E-3,4.869842529E-2,5.024716868E-2
4.200015750E-1,-8.385099471E-3,6.412923336E-3,5.109882355E-2,5.217782332E-2
4.300015750E-1,-7.412984967E-3,1.567684114E-3,5.589389801E-2,5.640512224E-2
4.400016410E-1,-6.524510682E-3,-8.282959461E-4,6.308174133E-2,6.342366596E-2
4.500016410E-1,-1.562087983E-2,1.836293936E-2,5.590152740E-2,6.087848713E-2
4.600020740E-1,-2.220107988E-2,1.568096131E-2,4.872608185E-2,5.579436842E-2
4.700020740E-1,1.602768898E-4,-1.579068601E-3,5.591678619E-2,5.593930751E-2
4.800020740E-1,5.827672780E-3,-1.878111809E-2,4.874515533E-2,5.256217590E-2
4.900015740E-1,-6.515383720E-4,4.891306162E-4,4.395866394E-2,4.396621301E-2
5.000015740E-1,-5.930289626E-4,5.288571119E-4,4.395866394E-2,4.396584480E-2
5.100015740E-1,9.056732059E-3,4.992932081E-4,4.874897003E-2,4.958564075E-2
5.200015740E-1,1.998126507E-3,-6.586052477E-3,5.353736877E-2,5.397794413E-2
5.300015740E-1,-7.524728775E-3,-6.608448923E-3,4.874897003E-2,4.976700935E-2
5.400015740E-1,-5.177564919E-3,7.797546685E-3,4.874897003E-2,4.963940967E-2
5.500018400E-1,2.370841801E-3,-1.108223200E-2,2.959442139E-2,3.169016463E-2
5.600018400E-1,-2.213478088E-3,6.335809827E-3,4.395580292E-2,4.446520642E-2
5.700018400E-1,3.151223063E-4,3.907725215E-3,4.635143280E-2,4.651693177E-2
5.800018400E-1,-9.207725525E-3,-1.048030704E-2,6.550598145E-2,6.697501512E-2
5.900018400E-1,3.169625998E-3,-5.815848708E-4,5.113983154E-2,5.124126404E-2
6.000015730E-1,1.514776424E-2,8.908063173E-3,5.832386017E-2,6.091371780E-2
6.100015730E-1,5.567044020E-3,4.163019359E-3,4.156398773E-2,4.214128362E-2
6.200015730E-1,5.169503391E-3,-5.506433547E-3,6.071567535E-2,6.118364005E-2
6.300015730E-1,-6.783328950E-3,1.614003628E-2,5.353260040E-2,5.632276297E-2
6.400015730E-1,-1.421301812E-2,-3.464452922E-3,5.113983154E-2,5.319111475E-2
6.500015730E-1,-4.193156958E-3,-8.517839015E-3,5.114459991E-2,5.201832607E-2
6.600015730E-1,-1.788102090E-3,-1.812049747E-2,4.396247864E-2,4.758412829E-2
6.700015730E-1,-1.626989245E-2,-3.728441894E-3,3.438472748E-2,3.822198534E-2
6.800015730E-1,-3.949992359E-3,6.236523390E-3,4.156589508E-2,4.221635107E-2
6.900020730E-1,3.199271858E-3,1.567905396E-2,5.593299866E-2,5.817704369E-2
7.000020730E-1,8.391886950E-3,6.001509726E-3,6.072425842E-2,6.159445954E-2
7.100020730E-1,1.136399806E-3,1.242525876E-3,4.875373840E-2,4.878280725E-2
7.200020730E-1,1.558247581E-2,1.330789179E-2,4.635906219E-2,5.068605512E-2
7.300020730E-1,1.161709428E-3,8.435904980E-3,5.354213715E-2,5.421507643E-2
7.400020060E-1,-1.326975226E-2,-1.093767583E-3,5.832958221E-2,5.982994914E-2
7.500020060E-1,1.106180251E-3,2.042869478E-2,3.917503357E-2,4.419545746E-2
7.600020060E-1,1.089543104E-3,1.950347424E-2,3.918361664E-2,4.378274117E-2
7.700020060E-1,5.892872810E-3,-9.191483259E-3,5.115413666E-2,5.230635728E-2
7.800020060E-1,8.179083467E-3,-4.824690521E-3,3.200340271E-2,3.338252282E-2
7.900020060E-1,2.841532230E-3,-7.631152868E-3,3.679180145E-2,3.768216360E-2
8.000020060E-1,2.157726884E-2,4.404611886E-3,3.199958801E-2,3.884524127E-2
8.100020060E-1,1.440495625E-2,-5.198262632E-3,3.918266296E-2,4.206905960E-2
8.200020060E-1,-1.001838595E-2,-2.735808492E-3,4.636192322E-2,4.751084749E-2
8.300020060E-1,1.108649373E-2,7.000401616E-3,4.635810852E-2,4.817665609E-2
8.400020060E-1,-1.040372252E-2,-1.450857520E-2,5.114650726E-2,5.417288438E-2
8.500017390E-1,-1.997004449E-2,9.408615530E-3,4.396343231E-2,4.919459426E-2
8.600017390E-1,2.313312143E-2,4.532322288E-3,4.875278473E-2,5.415272173E-2
8.700017390E-1,1.115410030E-2,-9.851709008E-3,5.354213715E-2,5.557185055E-2
8.800017390E-1,3.487542272E-3,1.420316100E-2,4.156589508E-2,4.406377614E-2
8.900017390E-1,-3.684759140E-3,-4.976809025E-3,5.593204498E-2,5.627379260E-2
9.000017390E-1,-9.172916412E-3,-1.221375912E-2,4.874610901E-2,5.108327956E-2
9.100017390E-1,-1.155640930E-2,-2.662226558E-3,3.677463531E-2,3.863951150E-2
9.200019720E-1,-1.389609277E-2,9.286925197E-3,4.874610901E-2,5.153184954E-2
9.300019720E-1,1.472245529E-2,1.405815780E-2,5.353450775E-2,5.727413038E-2
9.400024720E-1,5.321547389E-3,-3.048941493E-3,3.677845001E-2,3.728631513E-2
9.500024720E-1,-4.178881645E-3,4.166200757E-3,5.593204498E-2,5.624245671E-2
9.600024720E-1,-1.370206475E-2,-7.827721536E-3,5.353927612E-2,5.581643029E-2
9.700024720E-1,-1.614365727E-2,6.578147411E-3,5.593204498E-2,5.858569236E-2
9.800029380E-1,-1.811634004E-2,4.075527191E-3,5.354213715E-2,5.667073450E-2
9.900024380E-1,1.441337168E-3,1.580387354E-3,3.917980194E-2,3.923814416E-2
1.000002438E0,-3.447905183E-4,-1.758834720E-2,4.636669159E-2,4.959172236E-2
1.010002438E0,1.228522509E-2,1.161636412E-2,3.918361664E-2,4.267578334E-2
1.020002438E0,5.160406232E-3,4.472814500E-3,5.115509033E-2,5.160890552E-2
1.030002438E0,3.790631890E-4,1.167367399E-2,3.918361664E-2,4.088733503E-2
1.040002438E0,-2.018608153E-3,-7.436804473E-3,5.115509033E-2,5.173223469E-2
1.050002704E0,-1.888328046E-2,-5.508095026E-3,4.397487640E-2,4.817371842E-2
1.060002704E0,-9.309552610E-3,-3.070101142E-3,4.158115387E-2,4.272102115E-2
1.070002704E0,2.672582865E-3,1.692891121E-3,6.073474884E-2,6.081708885E-2
1.080002704E0,-1.707851887E-3,-1.260611415E-2,3.439998627E-2,3.667683093E-2
1.090002704E0,-1.182757318E-3,7.266096771E-3,4.397392273E-2,4.458588294E-2
1.100002704E0,-6.084568799E-3,4.854053259E-3,6.312847137E-2,6.360650681E-2
1.110002704E0,4.081942141E-3,-1.201854646E-2,4.637336731E-2,4.807906932E-2
1.120002704E0,1.622710750E-2,-9.144775569E-3,4.397583008E-2,4.775792677E-2
1.130002704E0,-4.745647311E-4,-1.922465861E-3,5.594730377E-2,5.598233548E-2
1.140003037E0,-5.124740303E-3,-4.288561642E-3,2.961158752E-2,3.035623231E-2
1.150003037E0,-2.741724253E-3,-1.566278934E-2,4.157829285E-2,4.451510371E-2
1.160003037E0,-7.548913360E-3,-7.181763649E-4,5.354404449E-2,5.407833735E-2
1.170003037E0,6.870813668E-3,1.123066247E-2,3.199672699E-2,3.459951442E-2
1.180003037E0,-7.611460984E-3,-2.536982298E-3,5.593299866E-2,5.650549492E-2
1.190003537E0,1.171275228E-2,1.167445630E-2,7.030105591E-2,7.221994155E-2
1.200003537E0,6.938114762E-3,-9.943537414E-3,3.678226471E-2,3.872914109E-2
1.210003537E0,6.941199303E-3,-9.987339377E-3,3.678226471E-2,3.874096272E-2
1.220003303E0,-2.966672182E-4,-1.246509701E-2,4.157066345E-2,4.340030777E-2
1.230003303E0,-5.136325955E-3,-2.909556031E-3,4.396533966E-2,4.435987435E-2
1.240002803E0,-2.916954458E-3,1.383685321E-2,4.156970978E-2,4.390908677E-2
1.250002803E0,-7.318258286E-4,-9.682528675E-3,4.874801636E-2,4.970569413E-2
1.260002803E0,1.832610741E-2,-9.241655469E-3,4.156017303E-2,4.635194054E-2
1.270002803E0,2.071709558E-2,1.953331381E-2,5.113697052E-2,5.852980567E-2
1.280002336E0,-1.302115619E-3,1.228744537E-2,4.634666443E-2,4.796550972E-2
1.290002336E0,7.862418890E-3,-4.601337016E-3,4.155540466E-2,4.254223301E-2
1.300002602E0,5.062952638E-3,7.651746273E-5,4.634284973E-2,4.661865577E-2
1.310002602E0,-9.780734777E-3,-7.187552750E-3,5.352306366E-2,5.488207386E-2
1.320002602E0,-1.223351806E-2,-1.201581955E-2,4.633998871E-2,4.941086355E-2
1.330002602E0,-1.224111766E-2,5.092024803E-4,4.154682159E-2,4.331561651E-2
1.340002602E0,-2.711117268E-3,1.012664288E-2,3.436374664E-2,3.592723391E-2
1.350002335E0,-2.696327865E-3,-8.991219103E-3,3.197002411E-2,3.331958353E-2
1.360002335E0,2.023890615E-3,-4.111029208E-3,5.351638794E-2,5.371220041E-2
1.370002335E0,2.441510558E-3,-6.103537977E-3,4.872798920E-2,4.916941204E-2
1.380002335E0,-2.464257181E-3,8.182562888E-3,4.633235931E-2,4.711384529E-2
1.390002335E0,2.378806472E-3,9.775459766E-4,5.591011047E-2,5.596923056E-2
1.400002835E0,4.791624844E-3,-1.089581847E-2,3.675556183E-2,3.863482696E-2
1.410002835E0,-1.934795082E-2,-7.094368339E-4,3.914356232E-2,4.366995503E-2
1.420002835E0,6.996460259E-3,-5.479820073E-3,5.111503601E-2,5.188184452E-2
1.430002835E0,2.503022552E-3,1.429539919E-2,3.913974762E-2,4.174378281E-2
1.440003001E0,7.412813604E-3,4.287801683E-3,3.675079346E-2,3.773533978E-2
1.450003001E0,7.423579693E-3,-5.314856768E-3,4.632759094E-2,4.721867131E-2
1.460003001E0,2.870410681E-4,1.129897684E-2,3.675174713E-2,3.845049008E-2
1.470003001E0,3.634765744E-4,8.936792612E-3,5.830097198E-2,5.898306292E-2
1.480003001E0,-1.137703657E-5,-8.327297866E-3,4.872608185E-2,4.943253050E-2
1.490002501E0,9.174682200E-3,1.543548703E-2,4.633045197E-2,4.968842755E-2
1.500002501E0,4.207670689E-3,-6.082899868E-3,3.675174713E-2,3.748862602E-2
1.510002501E0,-5.474090576E-3,-1.315929741E-2,4.872226715E-2,5.076408270E-2
1.520002501E0,1.640103757E-3,-3.490746021E-3,5.590248108E-2,5.603536953E-2
1.530002501E0,1.592755318E-3,-3.450617194E-3,5.590248108E-2,5.603151809E-2
1.540002501E0,-1.767382771E-2,-3.362521529E-3,4.871940613E-2,5.193506783E-2
1.550002767E0,-3.300949931E-3,-1.302663237E-2,4.393005371E-2,4.593951502E-2
1.560002767E0,1.432716846E-3,-3.532759845E-3,5.350780487E-2,5.364343624E-2
1.570002767E0,1.094912738E-2,1.573146135E-2,4.153537750E-2,4.574439693E-2
1.580002767E0,3.777712584E-3,-5.736961961E-3,3.435134888E-2,3.503140041E-2
1.590002767E0,1.318164170E-3,1.107069850E-2,3.913974762E-2,4.069665546E-2
1.600002500E0,-8.310049772E-3,3.866337240E-3,4.871654510E-2,4.957123418E-2
1.610002500E0,-8.295267820E-3,3.902658820E-3,4.871654510E-2,4.957160458E-2
1.620002500E0,-5.846686661E-3,-8.091025054E-3,3.674602509E-2,3.807779919E-2
1.630002500E0,1.092377305E-2,1.103740185E-2,3.435134888E-2,3.769838494E-2
1.640002500E0,-8.223265409E-3,1.478254795E-3,5.350589752E-2,5.415430178E-2
1.650002500E0,3.806620836E-3,1.348934323E-2,5.829429626E-2,5.995563126E-2
1.660002500E0,-1.018352807E-3,1.772078872E-2,4.153919220E-2,4.517264530E-2
1.670002500E0,3.842823207E-3,2.753533423E-3,3.436088562E-2,3.468457434E-2
1.680002500E0,-5.680263042E-3,2.427938581E-2,5.590915680E-2,6.121754469E-2
1.690003000E0,-7.260665298E-4,6.731249392E-3,3.915786743E-2,3.973884086E-2
1.700002500E0,-5.310781300E-3,-7.653839886E-3,5.113124847E-2,5.197297599E-2
1.710002500E0,-7.526785135E-3,-1.304454356E-2,4.634857178E-2,4.873399960E-2
1.720002500E0,1.158408076E-2,-5.759701133E-3,3.198242188E-2,3.449986077E-2
1.730002500E0,4.342503846E-3,3.777459264E-3,2.000999451E-2,2.082129723E-2
1.740002000E0,1.145578176E-2,1.094592363E-2,4.634666443E-2,4.898021522E-2
1.750002000E0,-2.833776176E-3,-8.281484246E-3,4.874324799E-2,4.952289867E-2
1.760002000E0,4.356198013E-3,1.313559711E-3,4.156017303E-2,4.180849056E-2
1.770002000E0,-5.453452468E-4,1.566167921E-2,5.352973938E-2,5.577650576E-2
1.780002000E0,-5.657337606E-3,-3.974959254E-3,4.156017303E-2,4.213138679E-2
1.790002000E0,-1.522812247E-2,1.748571545E-2,5.592727661E-2,6.054342432E-2
1.800002266E0,8.721373975E-3,1.021543890E-2,3.916740417E-2,4.140655873E-2
1.810002266E0,-8.090257645E-3,-1.135495305E-2,4.635047913E-2,4.840200557E-2
1.820002266E0,8.793890476E-3,3.108136356E-3,4.874515533E-2,4.962945889E-2
1.830002266E0,-8.595734835E-4,2.149194479E-4,4.874897003E-2,4.875702140E-2
1.840002266E0,-1.762971282E-2,1.653398573E-2,4.156970978E-2,4.808555115E-2
1.850001999E0,1.134667546E-2,1.835122705E-3,4.636192322E-2,4.776549637E-2
1.860001999E0,6.441481411E-3,-7.715992630E-3,3.917789459E-2,4.044671371E-2
1.870001999E0,1.314446330E-3,-1.541778445E-2,3.918075562E-2,4.212561521E-2
1.880001999E0,-1.543089747E-2,1.378335059E-3,2.960395813E-2,3.341267336E-2
1.890001999E0,-1.296848059E-2,1.286417246E-3,6.791305542E-2,6.915214714E-2
1.900001999E0,-1.769916713E-2,8.403345942E-3,3.439426422E-2,3.958335700E-2
1.910001999E0,-1.284216344E-2,-6.053909659E-3,4.157829285E-2,4.393546882E-2
1.920001999E0,2.070374787E-3,-1.553600281E-2,3.918647766E-2,4.220466641E-2
1.930001999E0,4.841953516E-3,-7.998563349E-3,6.073474884E-2,6.145023390E-2
1.940002499E0,-4.848159850E-3,6.349563599E-3,4.397392273E-2,4.469370752E-2
1.950002499E0,-2.512350678E-3,8.704230189E-3,3.918552399E-2,4.021915985E-2
1.960002499E0,-2.035245299E-3,-3.186739981E-3,3.200626373E-2,3.222884505E-2
1.970002499E0,7.469445467E-3,-7.626637816E-4,4.637050629E-2,4.697444119E-2
1.980002499E0,9.940408170E-3,1.663915813E-3,3.918743134E-2,4.046276196E-2
1.990001999E0,5.162626505E-3,-3.150187433E-3,6.073570251E-2,6.103607092E-2
2.000001999E0,3.664866090E-4,4.014343023E-3,4.397678375E-2,4.416114550E-2
2.010001999E0,3.191307187E-4,4.054464400E-3,4.397487640E-2,4.416254387E-2
2.020002499E0,-2.064384520E-3,-1.033673435E-2,4.637050629E-2,4.755348162E-2
2.030002499E0,-6.798431277E-3,6.400994956E-3,3.918838501E-2,4.028549272E-2
2.040002499E0,7.586076856E-3,1.368214190E-2,3.439903259E-2,3.778945636E-2
2.050002765E0,-9.242482483E-3,4.196509719E-3,5.834007263E-2,5.921653697E-2
2.060002765E0,5.199588835E-3,-7.742777467E-3,5.834102631E-2,5.908182189E-2
2.070002765E0,-2.108317614E-2,6.600461900E-3,3.679275513E-2,4.291588567E-2
2.080002765E0,-9.100794792E-3,1.854649186E-2,2.961063385E-2,3.610521380E-2
2.090002765E0,7.872961462E-3,1.350214332E-2,4.158496857E-2,4.442522940E-2
2.100002498E0,9.002313018E-4,1.271780580E-2,4.638195038E-2,4.810237335E-2
2.110002498E0,1.282028109E-2,1.269613951E-2,3.441047668E-2,3.885398913E-2
2.120002498E0,-1.137416810E-2,-2.287365496E-3,2.962589264E-2,3.181661917E-2
2.130002998E0,7.847376168E-3,3.332404792E-2,-1.586246490E-2,3.773183372E-2
2.140002998E0,5.107709020E-2,-2.984935045E-2,5.358028412E-2,7.981666312E-2
2.150002998E0,3.075566143E-2,-3.883525729E-3,1.526737213E-2,3.455553695E-2
2.160002998E0,-2.263175696E-2,-2.531131357E-2,5.596446991E-2,6.545900175E-2
2.170002998E0,-3.932751715E-3,1.843649894E-2,7.271575928E-2,7.511958917E-2
2.180002998E0,2.140626311E-4,-1.280898601E-2,3.679943085E-2,3.896554961E-2
2.190003498E0,-2.235099673E-3,-5.709379911E-3,5.595302582E-2,5.628795420E-2
2.200003498E0,-2.560395747E-3,-5.259625614E-3,5.594635010E-2,5.625134111E-2
2.210003498E0,4.575327039E-3,-5.219265819E-3,5.115795135E-2,5.162664370E-2
2.220003498E0,-2.614501864E-3,1.162789762E-2,4.636859894E-2,4.787578292E-2
2.230003498E0,2.060562372E-3,-9.938441217E-3,5.594539642E-2,5.685864852E-2
2.240002998E0,-7.755551487E-3,-1.151541620E-2,2.241611481E-2,2.636732054E-2
2.250002998E0,-1.739842445E-2,-1.891002059E-3,2.959918976E-2,3.438594330E-2
2.260002998E0,1.577295363E-3,1.250475645E-2,5.593395233E-2,5.733640918E-2
2.270002998E0,6.252828985E-3,1.488151401E-2,3.438568115E-2,3.798595001E-2
2.280002998E0,-2.024092898E-2,-6.687842309E-3,3.199100494E-2,3.844277355E-2
2.290002998E0,5.979795009E-3,-9.055972099E-3,3.199005127E-2,3.378064474E-2
2.300002998E0,-3.233198076E-2,2.690188587E-2,5.353736877E-2,6.808317192E-2
2.310002998E0,-2.466265857E-2,1.466901600E-2,3.678321838E-2,4.665224446E-2
2.320002498E0,-1.433062926E-2,-2.396853268E-2,5.594444275E-2,6.252709947E-2
2.330002498E0,-4.114843905E-3,-2.380461246E-2,3.679275513E-2,4.401475144E-2
2.340002498E0,1.584417000E-2,-1.736439764E-3,4.158306122E-2,4.453317782E-2
2.350002231E0,-7.787182927E-3,5.743131042E-3,6.791877747E-2,6.860454872E-2
2.360002231E0,-9.845353663E-3,-6.026476622E-3,3.439903259E-2,3.628419563E-2
2.370002231E0,-9.904123843E-3,8.299246430E-3,2.721691132E-2,3.012854829E-2
2.380002231E0,2.552255988E-3,1.318679750E-2,3.679561615E-2,3.917043537E-2
2.390002231E0,1.687556505E-4,-8.387237787E-3,2.721881866E-2,2.848224580E-2
2.400002231E0,-1.425540447E-2,1.551580429E-2,4.876804352E-2,5.312512408E-2
2.410002231E0,5.018994212E-3,-1.208573580E-3,2.961444855E-2,3.006104648E-2
2.420002231E0,-7.007785141E-3,8.284889162E-3,5.834579468E-2,5.934627366E-2
2.430001731E0,-1.591250300E-3,-3.280019760E-2,3.919887543E-2,5.113645348E-2
2.440002197E0,1.739272103E-2,8.056484163E-3,3.201389313E-2,3.731357709E-2
2.450002197E0,-1.397322118E-2,3.302060068E-3,8.229160309E-2,8.353479784E-2
2.460002197E0,-4.689887166E-3,-1.568985730E-2,3.919029236E-2,4.247405889E-2
2.470002197E0,-4.503697157E-3,1.735426486E-3,-1.516342163E-3,5.059079632E-3
2.480002663E0,9.462408721E-3,-7.679015398E-3,7.270145416E-2,7.371570995E-2
2.490002163E0,2.122722566E-3,5.472451448E-5,6.551456451E-2,6.554896726E-2
2.500002163E0,1.839917526E-2,2.561442554E-3,3.677845001E-2,4.120370157E-2
2.510002163E0,3.503166139E-3,1.239663363E-2,4.874420166E-2,5.041771409E-2
2.520002163E0,5.778372288E-4,5.776137114E-4,5.113410950E-2,5.114063636E-2
2.530002163E0,2.158169076E-2,7.996484637E-4,2.718544006E-2,3.471969132E-2
2.540002163E0,8.959494531E-3,-3.766588867E-3,3.675651550E-2,3.801974705E-2
2.550002429E0,1.328741759E-2,1.294516027E-3,6.548309326E-2,6.683013348E-2
2.560002429E0,1.227502152E-2,-5.878359079E-3,5.589962006E-2,5.753258886E-2
2.570002429E0,8.930340409E-3,-9.787753224E-4,4.152679443E-2,4.248745270E-2
2.580002795E0,-1.181583852E-3,8.689023554E-3,2.955150604E-2,3.082509984E-2
2.590002795E0,-1.897639409E-2,1.582701504E-2,4.391098022E-2,5.038622949E-2
2.600002795E0,-2.832673490E-4,-7.843494415E-3,5.348396301E-2,5.405677520E-2
2.610002795E0,-8.241124451E-4,-7.559783757E-3,2.953529358E-2,3.049857470E-2
2.620002795E0,-8.476343006E-3,6.954044104E-3,4.389667511E-2,4.524516776E-2
2.630002795E0,-6.438251585E-3,-7.245570421E-3,5.347061157E-2,5.434202495E-2
2.640002795E0,4.423446953E-4,-1.439035684E-2,3.431415558E-2,3.721208556E-2
2.650002795E0,3.778636456E-4,1.459966600E-2,6.304359436E-2,6.471311937E-2
2.660003295E0,4.934377968E-3,5.180560052E-3,3.909778595E-2,3.974698925E-2
2.670003295E0,1.906355470E-2,-3.542609885E-2,2.472972870E-2,4.722273901E-2
2.680003295E0,1.625327766E-2,-1.578518003E-2,2.711772919E-2,3.533712184E-2
2.690003795E0,-1.529547945E-2,1.820354909E-2,5.823707581E-2,6.290371920E-2
2.700003795E0,-1.558274776E-2,1.348961890E-2,5.105209351E-2,5.505550015E-2
2.710003795E0,-2.300260961E-2,-8.856803179E-4,3.429126740E-2,4.130127720E-2
2.720003795E0,3.094252199E-3,2.309132367E-2,4.147243500E-2,4.756833495E-2
2.730003795E0,1.046985388E-3,8.330084383E-3,3.668975830E-2,3.763807711E-2
2.740003328E0,-3.738667816E-3,-3.685392439E-3,3.668975830E-2,3.706343371E-2
2.750003328E0,3.846094012E-3,-6.497159600E-3,2.711772919E-2,2.814918752E-2
2.760003328E0,1.329876110E-2,5.880817771E-4,3.908920288E-2,4.129368800E-2
2.770003328E0,1.331762969E-2,6.863921881E-4,3.908824921E-2,4.130038282E-2
2.780002861E0,8.529726416E-3,7.920190692E-4,3.669357300E-2,3.768025778E-2
2.790002861E0,-5.890656263E-3,7.996849716E-3,5.345344543E-2,5.436837560E-2
2.800003361E0,-1.167617738E-3,5.650125444E-3,5.345249176E-2,5.376296238E-2
2.810003361E0,-3.609176725E-3,-6.281003356E-3,3.908634186E-2,3.975197202E-2
2.820003361E0,-6.123863161E-3,8.661523461E-4,4.387378693E-2,4.430757384E-2
2.830003361E0,-1.102140173E-2,-1.483745873E-3,4.626750946E-2,4.758524172E-2
2.840003361E0,8.144222200E-3,-1.403689384E-3,3.669071198E-2,3.760993279E-2
2.850003094E0,1.538934559E-2,1.091994345E-3,5.584430695E-2,5.793626694E-2
2.860003094E0,-1.369874924E-3,1.197688282E-3,5.105400085E-2,5.108641716E-2
2.870003094E0,-8.497539908E-3,-3.507427871E-3,3.190040588E-2,3.319858627E-2
2.880002727E0,1.032445580E-3,1.321472228E-3,4.147624969E-2,4.151013757E-2
2.890002727E0,9.893737733E-4,1.423709095E-3,5.823516846E-2,5.826097024E-2
2.900002727E0,-3.806326538E-3,-1.295990497E-2,4.626369476E-2,4.819519386E-2
2.910003227E0,-1.369975507E-3,-7.807590067E-3,2.710628510E-2,2.824156489E-2
2.920003227E0,-1.093227416E-2,-7.771268487E-3,3.428936005E-2,3.681938952E-2
2.930003227E0,-1.044080779E-2,1.436043531E-2,3.907585144E-2,4.292033009E-2
2.940003727E0,1.595070586E-2,-2.739578485E-5,2.231693268E-2,2.743120945E-2
2.950003727E0,-1.504074037E-2,7.121510804E-3,4.625988007E-2,4.916214286E-2
2.960003227E0,-5.462981761E-3,-2.349957824E-3,3.907680511E-2,3.952673993E-2
2.970003227E0,1.663871482E-2,-7.236443460E-3,3.668594360E-2,4.092763618E-2
2.980003227E0,4.655450583E-3,-1.689398289E-2,3.668689728E-2,4.065720489E-2
2.990002727E0,-9.575836360E-3,-1.677721739E-4,3.668785095E-2,3.791732054E-2
3.000002727E0,-9.506963193E-3,6.923750043E-3,5.584335327E-2,5.706838677E-2
3.010002727E0,9.701486677E-3,1.408420503E-2,2.711296082E-2,3.205614324E-2
3.020002293E0,-4.540372640E-3,-7.472321391E-3,5.105590820E-2,5.179919240E-2
3.030002293E0,7.503658533E-3,2.075187862E-3,4.626750946E-2,4.691794676E-2
3.040002293E0,2.602744848E-3,4.557572305E-3,3.429508209E-2,3.469435692E-2
3.050002559E0,7.445603609E-3,1.171809435E-2,4.147911072E-2,4.374091190E-2
3.060002559E0,-7.108226418E-5,4.183858633E-3,5.105686188E-2,5.122804769E-2
3.070002559E0,9.560037404E-3,1.134411246E-2,4.626846313E-2,4.858861887E-2
3.080002559E0,-2.214655280E-3,-1.263608038E-2,3.190517426E-2,3.438772121E-2
3.090002559E0,1.405604556E-2,3.962874413E-3,5.823993683E-2,6.004304316E-2
3.100002059E0,-1.268717274E-2,6.140820682E-3,6.302833557E-2,6.458517721E-2
3.110002059E0,1.750566065E-3,6.005555391E-3,4.387474060E-2,4.431843905E-2
3.120002059E0,-9.984984994E-3,5.909256637E-3,4.387664795E-2,4.538479343E-2
3.130002525E0,7.036451250E-3,1.035206020E-3,4.148578644E-2,4.209101774E-2
3.140002991E0,-2.297118306E-3,9.572058916E-4,2.951622009E-2,2.962094266E-2
3.150002991E0,-4.635907710E-3,1.004610956E-2,1.994419098E-2,2.280760205E-2
3.160002991E0,1.734579727E-2,-1.153054833E-2,3.431129456E-2,4.013844992E-2
3.170002991E0,1.752678677E-2,-1.410441846E-2,3.910255432E-2,4.511244428E-2
3.180002991E0,1.579423994E-2,9.695611894E-3,2.953052521E-2,3.486423417E-2
3.190003491E0,1.587273926E-2,9.472765028E-3,2.953243256E-2,3.484023108E-2
3.200003491E0,-3.508146852E-3,-2.639241517E-3,5.347537994E-2,5.365527887E-2
3.210002991E0,2.544080466E-2,9.243220091E-3,4.150581360E-2,4.955203550E-2
3.220002991E0,8.391391486E-3,1.139507443E-2,5.108356476E-2,5.300748778E-2
3.230002991E0,-8.410863578E-3,-9.402409196E-4,3.193187714E-2,3.303439808E-2
3.240002057E0,-5.811363459E-3,-1.808023453E-2,2.954196930E-2,3.511972061E-2
3.250002057E0,-5.887631327E-3,-1.800711453E-2,2.954101562E-2,3.509404480E-2
3.259969190E0,4.002042115E-3,3.477297723E-3,4.630374908E-2,4.660627769E-2
3.269935856E0,-7.067881525E-4,1.064856350E-2,5.827522278E-2,5.924435031E-2
3.279902522E0,1.127113402E-2,1.056099683E-2,5.348777771E-2,5.567329234E-2
3.289869188E0,-7.519781590E-3,-1.558333635E-3,5.588436127E-2,5.640955019E-2
3.299836321E0,-2.957921475E-3,1.984951645E-2,4.630756378E-2,5.046922890E-2
3.309802987E0,1.398314536E-2,5.409501493E-3,4.630947113E-2,4.867605342E-2
3.319770087E0,6.308116019E-3,-9.539850056E-3,4.391765594E-2,4.538239274E-2
3.329736753E0,-1.266833022E-2,2.401009202E-3,2.476406097E-2,2.791970902E-2
3.339703419E0,-1.480519399E-2,2.253510058E-3,4.152679443E-2,4.414461159E-2
3.349508142E0,4.654236138E-3,1.414274424E-2,5.589485168E-2,5.784387239E-2
3.359474808E0,-9.410023689E-3,4.421710968E-3,4.871654510E-2,4.981367122E-2
3.369441474E0,-1.929827034E-3,-7.755488157E-3,2.717018127E-2,2.832120371E-2
3.379408140E0,-4.124302417E-3,8.923061192E-3,3.914260864E-2,4.035808101E-2
3.389374806E0,-3.885053098E-3,-7.941499352E-4,4.154109955E-2,4.172993246E-2
3.399341472E0,-2.250334248E-2,-1.321692020E-2,4.873085022E-2,5.527913861E-2
3.409308638E0,-1.453032717E-2,-1.228868961E-3,3.676414490E-2,3.955051045E-2
3.419275304E0,-1.655392349E-2,-1.358665526E-3,4.634475708E-2,4.923123870E-2
3.429241504E0,-2.484227717E-2,-8.600689471E-3,5.114078522E-2,5.750209133E-2
3.439207704E0,-2.364350110E-2,-8.517168462E-3,5.114746094E-2,5.698789401E-2
3.449174370E0,-5.793787539E-3,-8.389256895E-3,4.875946045E-2,4.981397985E-2
3.459141036E0,-7.759056985E-3,-8.479490876E-3,7.270526886E-2,7.360815750E-2
3.469107702E0,1.016128808E-2,6.239444017E-3,6.073856354E-2,6.189794454E-2
3.479074368E0,-1.073308289E-2,1.133368909E-2,5.116367340E-2,5.349180360E-2
3.489040534E0,-1.065750420E-2,1.682899892E-3,5.595397949E-2,5.698475558E-2
3.499007200E0,-1.238949597E-2,-7.484927773E-4,2.483367920E-2,2.776277137E-2
3.508973866E0,-7.011897862E-3,-5.650237203E-3,4.638671875E-2,4.725272022E-2
3.518940532E0,7.434524596E-3,8.809700608E-3,3.202056885E-2,3.403233477E-2
3.528907198E0,1.486063749E-2,-8.028469980E-3,5.117702484E-2,5.389232550E-2
3.538874298E0,1.270248741E-2,-3.336101770E-3,3.441905975E-2,3.683957703E-2
3.548841431E0,-6.208181381E-3,3.768712282E-3,3.442192078E-2,3.517972908E-2
3.558840964E0,-3.450877964E-3,-1.074515283E-2,6.555175781E-2,6.651616210E-2
3.568840964E0,-7.872983813E-3,-3.754168749E-3,2.964115143E-2,3.089782379E-2
3.578840964E0,-5.057923496E-3,-6.362520158E-3,5.598258972E-2,5.656955546E-2
3.588840964E0,1.200338453E-2,3.070645034E-3,4.640960693E-2,4.803500512E-2
3.598840497E0,-3.099420667E-2,1.044572890E-2,4.640865326E-2,5.677602660E-2
3.608840497E0,5.217015743E-3,3.056831658E-3,4.401779175E-2,4.443115420E-2
3.618840497E0,-1.111800224E-2,-2.103816718E-2,3.923416138E-2,4.588609671E-2
3.628840497E0,-1.081753522E-2,1.941470802E-2,3.923797607E-2,4.509510752E-2
3.638840497E0,-1.051972061E-2,1.692007482E-2,5.360698700E-2,5.718970632E-2
3.648839997E0,1.636967063E-3,4.936397076E-3,4.882049561E-2,4.909672564E-2
3.658840497E0,4.223652184E-3,2.442575991E-3,5.600452423E-2,5.621665367E-2
3.668840497E0,-2.648279816E-2,-1.005955040E-2,5.840682983E-2,6.491448932E-2
3.678840497E0,1.972466707E-2,-6.473809481E-4,2.968215942E-2,3.564424471E-2
3.688840497E0,5.493566394E-3,-1.025810838E-2,5.841541290E-2,5.956314736E-2
3.698840497E0,3.044113517E-3,-7.375441492E-3,3.925609589E-2,4.005876719E-2
3.708839997E0,3.225743771E-3,9.310483932E-3,2.249813080E-2,2.456127894E-2
3.718839997E0,1.052501053E-2,9.284362197E-3,3.686523438E-2,3.944642865E-2
3.728839997E0,-1.325942576E-3,-2.570822835E-4,4.883670807E-2,4.885538118E-2
3.738839997E0,1.562543958E-2,-5.251042545E-3,3.926277161E-2,4.258277873E-2
3.748839997E0,1.049060374E-2,1.966252923E-3,6.080818176E-2,6.173778330E-2
3.758839997E0,1.026033610E-2,1.869224012E-3,6.080722809E-2,6.169511717E-2
3.768839997E0,5.675256252E-4,4.395350814E-3,4.404544830E-2,4.426785188E-2
3.778839997E0,9.929768741E-3,1.162298769E-2,5.122661591E-2,5.345895928E-2
3.788839997E0,1.010803133E-2,1.159272343E-2,5.122852325E-2,5.348761659E-2
3.798840063E0,2.659551799E-3,1.572534442E-3,5.362510681E-2,5.371404063E-2
3.808840063E0,5.118504167E-3,8.601918817E-3,4.644393921E-2,4.751033131E-2
3.818840063E0,-4.866138101E-3,-8.585527539E-3,2.729034424E-2,2.901988063E-2
3.828840063E0,-4.913493991E-3,-1.362584531E-3,3.686714172E-2,3.721807624E-2
3.838840063E0,9.524814785E-3,-3.786459565E-3,4.405021667E-2,4.522699373E-2
3.848839596E0,-2.688805759E-2,-1.316420734E-3,3.446865082E-2,4.373543750E-2
3.858839596E0,-1.906030625E-2,-2.039472759E-2,4.883861542E-2,5.625344917E-2
3.868839596E0,-4.516392946E-3,1.309484243E-2,4.165649414E-2,4.389915953E-2
3.878839596E0,1.254896075E-2,8.224226534E-3,5.842018127E-2,6.031609982E-2
3.888839596E0,3.101691604E-3,-1.554019749E-3,7.039451599E-2,7.047994998E-2
3.898839596E0,-6.293311715E-3,8.054561913E-3,3.687572479E-2,3.826618375E-2
3.908840062E0,-1.290333271E-2,-4.277586937E-3,4.885482788E-2,5.071082678E-2
3.918840062E0,-1.511556655E-2,-1.142903417E-2,4.406642914E-2,4.796825358E-2
3.928840062E0,-1.264884323E-2,-1.145878434E-2,4.406738281E-2,4.725707568E-2
3.938840062E0,-1.445543766E-2,1.751982421E-2,4.167556763E-2,4.746321581E-2
3.948840062E0,-1.613642275E-2,7.440149784E-4,5.125808716E-2,5.374317814E-2
3.958839562E0,-1.368361712E-2,5.572251976E-3,5.365276337E-2,5.564989116E-2
3.968839562E0,-1.546639949E-2,7.251799107E-4,4.168701172E-2,4.446956651E-2
3.978806728E0,-1.453105360E-2,5.774274468E-4,4.169559479E-2,4.415889000E-2
3.988773394E0,1.911237091E-2,-4.219353199E-3,3.451347351E-2,3.967701497E-2
3.998740060E0,8.060783148E-5,1.232126355E-2,5.127620697E-2,5.273584582E-2
4.008706726E0,-6.916813552E-3,-4.451029003E-3,4.170036316E-2,4.250381461E-2
4.018673859E0,-4.344277084E-3,-2.087026834E-3,4.409599304E-2,4.435859586E-2
4.028640525E0,2.972729504E-3,2.667680383E-3,4.170322418E-2,4.189406338E-2
4.038607191E0,7.560923696E-4,1.376196742E-4,2.255153656E-2,2.256462754E-2
4.048573857E0,1.519414783E-2,1.077577472E-4,4.170703888E-2,4.438863404E-2
4.058540523E0,5.249068141E-3,1.205962151E-2,5.128192902E-2,5.294169841E-2
4.068507189E0,7.789328694E-3,-7.048167288E-3,4.170513153E-2,4.300777022E-2
4.078473855E0,5.503080785E-3,-1.561641693E-5,3.691959381E-2,3.732747713E-2
4.088440521E0,-2.146763355E-2,-2.405837178E-3,4.409599304E-2,4.910299324E-2
4.098407121E0,-2.126783878E-2,-9.670071304E-3,4.409885406E-2,4.990531209E-2
4.108373787E0,-3.829084337E-3,7.300503552E-3,4.410171509E-2,4.486558272E-2
4.118340453E0,-2.274002880E-2,1.679930836E-2,3.931617737E-2,4.842610323E-2
4.128307553E0,1.146597415E-2,4.484839737E-3,4.650783539E-2,4.810988571E-2
4.138274219E0,1.191204041E-2,8.964702487E-3,5.130195618E-2,5.342427636E-2
4.148240885E0,2.045929432E-5,1.374154538E-2,4.651451111E-2,4.850185802E-2
4.158207551E0,2.480648458E-3,-1.310943812E-2,4.891490936E-2,5.070186725E-2
4.168174217E0,-1.409386843E-2,-1.150444150E-3,3.694534302E-2,3.955905737E-2
4.178140883E0,-6.399050355E-3,1.775292307E-2,4.652786255E-2,5.020912384E-2
4.188107549E0,-6.392329931E-3,-1.488730311E-3,4.174041748E-2,4.225329160E-2
4.198074215E0,3.257140517E-3,-8.701428771E-3,4.652976990E-2,4.744832256E-2
4.208040415E0,1.332857460E-2,5.526356399E-3,3.216934204E-2,3.525702885E-2
4.218007081E0,3.432601690E-3,5.211524665E-3,4.653549194E-2,4.695204739E-2
4.227973747E0,-1.839841902E-2,9.336322546E-5,3.695964813E-2,4.128590715E-2
4.237940413E0,3.266543150E-3,-1.190430671E-2,4.174900055E-2,4.353575392E-2
4.247907079E0,5.940057337E-3,7.623344660E-3,4.653644562E-2,4.752936393E-2
4.257873745E0,-1.315588504E-2,5.268499255E-3,6.329631805E-2,6.486338162E-2
4.267840878E0,-1.070372015E-2,-1.863504946E-2,3.935337067E-2,4.483885008E-2
4.277840378E0,-1.024311781E-2,-8.758783340E-3,3.217220306E-2,3.488106074E-2
4.287840378E0,1.381977648E-2,2.479644120E-2,3.456687927E-2,4.472939593E-2
4.297840378E0,4.315055907E-3,-1.570448279E-3,5.132770538E-2,5.153270180E-2
4.307840378E0,1.917213202E-3,-6.315447390E-3,5.132675171E-2,5.174935771E-2
4.317839911E0,9.106501937E-3,7.796436548E-4,4.653930664E-2,4.742829624E-2
4.327839911E0,-1.244535297E-2,-3.965176642E-3,3.696250916E-2,3.920250655E-2
4.337839911E0,-2.857469022E-3,1.037491113E-2,3.935623169E-2,4.080094218E-2
4.347839911E0,-5.368746817E-3,7.185563445E-4,5.611610413E-2,5.637691822E-2
4.357839911E0,-2.217912674E-2,3.196917474E-3,6.090259552E-2,6.489422228E-2
4.367839911E0,1.612995565E-2,-2.542877197E-2,3.217124939E-2,4.406571457E-2
4.377840344E0,1.375019550E-2,1.291567832E-2,2.977657318E-2,3.524949550E-2
4.387840344E0,4.179336131E-3,3.250695765E-3,5.611419678E-2,5.636343632E-2
4.397840344E0,1.133628190E-3,9.732395411E-4,3.695487976E-2,3.698507059E-2
4.407840344E0,-1.329083741E-2,5.721829832E-3,1.780033112E-2,2.293986668E-2
4.417840344E0,1.085311174E-3,9.074583650E-4,4.174327850E-2,4.176724412E-2
4.427839910E0,-8.420132101E-3,1.274348795E-2,4.174518585E-2,4.445172271E-2
4.437839910E0,6.223037839E-3,-1.160924137E-2,3.217411041E-2,3.476599007E-2
4.447839910E0,-8.008331060E-3,-1.164315641E-2,4.175186157E-2,4.407850272E-2
4.457839910E0,1.593110710E-2,-2.022221684E-3,3.456878662E-2,3.811680158E-2
4.467839910E0,-1.297236979E-2,1.035817713E-2,4.174709320E-2,4.492654006E-2
4.477839910E0,-8.590444922E-4,3.159873188E-3,3.935241699E-2,3.948842209E-2
4.487839910E0,-1.026623696E-2,1.258263737E-2,5.132770538E-2,5.383541329E-2
4.497839910E0,4.566229880E-3,-1.182567328E-2,5.373096466E-2,5.520610082E-2
4.507839910E0,-7.350653410E-3,2.406624705E-2,3.457641602E-2,4.276382697E-2
4.517840043E0,-4.653908312E-3,1.159013808E-2,4.895019531E-2,5.051843015E-2
4.527840043E0,-2.131447196E-3,-1.994809508E-2,3.698348999E-2,4.207431635E-2
4.537840043E0,2.594739199E-4,-1.751010120E-2,3.458881378E-2,3.876927920E-2
4.547840043E0,-4.580803216E-3,-1.513772458E-2,4.416465759E-2,4.691110150E-2
4.557840043E0,1.718607545E-2,6.999067962E-3,3.697872162E-2,4.137359054E-2
4.567839576E0,4.149004817E-4,9.418472648E-3,3.937244415E-2,4.048541871E-2
4.577839576E0,2.203910798E-2,-2.322345972E-4,4.176902771E-2,4.722740612E-2
4.587839576E0,-2.493597567E-3,-2.619057894E-3,4.894638062E-2,4.907978880E-2
4.597839576E0,7.098689675E-3,-1.215960830E-2,6.091690063E-2,6.252292581E-2
4.607839576E0,4.065379500E-3,1.219104230E-2,5.611991882E-2,5.757251177E-2
4.617839576E0,-6.167143583E-3,5.063295364E-3,2.738189697E-2,2.852085030E-2
4.627840009E0,-1.812830567E-2,-4.539906979E-3,2.259445190E-2,2.932158725E-2
4.637840009E0,-6.146162748E-3,-2.611395717E-2,4.174900055E-2,4.962552894E-2
4.647840009E0,-1.085594296E-3,1.265478879E-2,4.414081573E-2,4.593183872E-2
4.657840009E0,-3.040820360E-3,5.822129548E-3,5.611228943E-2,5.649542288E-2
4.667840009E0,-5.736872554E-4,-8.467949927E-3,3.217029572E-2,3.327105678E-2
4.677839575E0,1.168027520E-2,-5.744077265E-3,2.259254456E-2,2.607386281E-2
4.687839575E0,-1.013857126E-2,4.260912538E-3,4.413414001E-2,4.548371486E-2
4.697839575E0,1.614300162E-2,4.177212715E-3,4.413414001E-2,4.717910472E-2
4.707839575E0,1.245707273E-3,9.012758732E-3,4.652404785E-2,4.740536505E-2
4.717839575E0,-2.064052969E-2,-1.534298807E-2,5.131340027E-2,5.739776822E-2
4.727839575E0,6.160706282E-3,1.364387572E-2,5.131530762E-2,5.345437720E-2
4.737839575E0,8.671090007E-3,1.645982265E-3,3.934478760E-2,4.032256652E-2
4.747839575E0,1.837244630E-2,4.137620330E-3,5.131626129E-2,5.466283342E-2
4.757839575E0,1.365627348E-2,8.896283805E-3,3.934574127E-2,4.258785070E-2
4.767840041E0,1.087878644E-2,-2.239039540E-2,3.934383392E-2,4.655765317E-2
4.777840041E0,-1.824073493E-3,2.322913706E-2,4.412555695E-2,4.989974778E-2
4.787840041E0,-1.181855798E-2,6.172999740E-3,7.285594940E-2,7.406600841E-2
4.797840041E0,-1.193089783E-2,6.261147559E-3,7.285404205E-2,7.408953864E-2
4.807840041E0,-7.254675031E-3,-1.041064411E-2,3.693962097E-2,3.905825672E-2
4.817839907E0,1.252517849E-2,1.101003587E-2,4.412746429E-2,4.717344689E-2
4.827839907E0,2.726703882E-3,-3.794863820E-3,4.173660278E-2,4.199737989E-2
4.837839907E0,1.709304005E-2,-8.477799594E-3,2.258110046E-2,2.956266568E-2
4.847839907E0,6.945759058E-3,8.493706584E-3,4.651737213E-2,4.779385453E-2
4.857839907E0,-2.915486693E-4,6.121642888E-3,5.369949341E-2,5.404808141E-2
4.867839907E0,-7.843986154E-3,-1.292139292E-3,3.693866730E-2,3.778442648E-2
4.877840340E0,-1.502009481E-2,-3.773875535E-3,2.736186981E-2,3.144069504E-2
4.887840340E0,-7.826782763E-3,-3.799699247E-3,4.412174225E-2,4.497137291E-2
4.897840340E0,6.655298173E-3,5.751259625E-3,5.370044708E-2,5.441606379E-2
4.907840340E0,4.209622741E-3,9.409189224E-4,4.651737213E-2,4.671693657E-2
4.917840340E0,-1.253549755E-2,5.765795708E-3,4.412269592E-2,4.622981067E-2
4.927839906E0,-5.356281996E-3,-3.767848015E-3,4.412269592E-2,4.460603918E-2
4.937839906E0,-1.738236845E-2,-1.571717113E-2,5.130481720E-2,5.640355015E-2
4.947839906E0,1.189336181E-4,1.811470091E-2,4.891395569E-2,5.216063262E-2
4.957839906E0,-1.134075969E-2,1.546926796E-2,3.934288025E-2,4.376954773E-2
4.967839906E0,1.493172348E-2,1.322837174E-2,5.849552155E-2,6.180349687E-2
4.977839906E0,-1.765027642E-3,-8.684717119E-3,4.173946381E-2,4.266992469E-2
4.987839906E0,7.801041007E-3,-8.659429848E-3,2.737236023E-2,2.975042976E-2
4.997839906E0,-6.607368588E-3,1.059730351E-2,5.370998383E-2,5.514274679E-2
5.007839906E0,5.899816751E-4,1.302763075E-2,3.216075897E-2,3.470420232E-2
5.017840372E0,-1.757092774E-3,-6.633557379E-3,4.653072357E-2,4.703402699E-2
5.027840372E0,-4.004783928E-3,-2.264805138E-3,5.850696564E-2,5.868758527E-2
5.037840372E0,-1.117723435E-2,1.036822796E-4,3.695964813E-2,3.861291115E-2
5.047840372E0,-1.137927175E-3,2.436771989E-3,4.414653778E-2,4.422837928E-2
5.057840372E0,-8.477397263E-3,2.161413431E-5,2.499103546E-2,2.638974394E-2
5.067839905E0,-3.740236163E-3,7.182650268E-3,2.977943420E-2,3.086089002E-2
5.077839905E0,-1.099571586E-2,-4.759117961E-3,3.456783295E-2,3.658538022E-2
5.087839905E0,1.338329166E-2,9.534373879E-3,3.457164764E-2,3.827813477E-2
5.097839905E0,1.570799202E-2,-7.239945233E-3,4.175376892E-2,4.519441381E-2
5.107839905E0,-9.829401970E-4,-9.725496173E-3,4.893875122E-2,4.990543876E-2
5.117840405E0,1.345507801E-2,-1.693820953E-2,3.936195374E-2,4.491442383E-2
5.127840838E0,-3.680758178E-3,-2.143859863E-3,4.893207550E-2,4.911712663E-2
5.137840838E0,8.005172014E-3,6.417185068E-4,3.456020355E-2,3.548101254E-2
5.147840838E0,2.934135497E-3,5.672492087E-3,4.652690887E-2,4.696317245E-2
5.157840838E0,-1.420650631E-2,-1.082634926E-2,4.173374176E-2,4.539537268E-2
5.167840838E0,2.633161843E-3,-1.515988261E-2,5.370140076E-2,5.586229520E-2
5.177840404E0,-2.220533788E-3,1.361912489E-2,4.891204834E-2,5.082125349E-2
5.187840404E0,1.839026809E-4,6.876938045E-3,4.172515869E-2,4.228847319E-2
5.197840404E0,2.424418926E-4,6.916612387E-3,4.411888123E-2,4.465841450E-2
5.207840404E0,2.647936344E-3,6.996512413E-3,4.890727997E-2,4.947610319E-2
5.217840404E0,1.267641783E-4,1.137046516E-2,4.172706604E-2,4.324871775E-2
5.227840404E0,-1.435872912E-2,1.291543245E-3,3.933620453E-2,4.189484661E-2
5.237840904E0,2.420926839E-2,5.677752197E-3,3.694820404E-2,4.453644943E-2
5.247840904E0,2.653397620E-3,-3.917507827E-3,3.934192657E-2,3.962542837E-2
5.257840904E0,-9.311221540E-3,-8.793398738E-3,2.976608276E-2,3.240435759E-2
5.267841370E0,-4.395373166E-3,8.369684219E-4,4.892158508E-2,4.912577031E-2
5.277841370E0,-1.629842818E-2,1.511083543E-2,5.131626129E-2,5.592257846E-2
5.287841370E0,-1.156930625E-2,5.997344851E-4,5.131721497E-2,5.260860272E-2
5.297841370E0,2.807095647E-3,5.741715431E-4,3.934574127E-2,3.944992795E-2
5.307841370E0,1.042121649E-2,1.230542362E-2,5.132293701E-2,5.379655256E-2
5.317840903E0,2.005328983E-2,1.238866895E-2,5.371761322E-2,5.866170405E-2
5.327840903E0,5.484692752E-3,4.864603281E-3,3.695869446E-2,3.767879132E-2
5.337840903E0,1.026222110E-2,-4.687212408E-3,4.174709320E-2,4.324468676E-2
5.347840903E0,-4.440791905E-3,4.582270980E-3,3.935241699E-2,3.986640896E-2
5.357840903E0,-7.260538638E-3,-3.020405769E-3,4.893016815E-2,4.955804302E-2
5.367840903E0,-7.307872176E-3,8.991070092E-3,3.695869446E-2,3.873227896E-2
5.377842003E0,-2.446413040E-3,-6.153732538E-4,4.653644562E-2,4.660476791E-2
5.387842003E0,-4.844807088E-3,1.379331946E-2,3.935241699E-2,4.198023988E-2
5.397842003E0,7.145144045E-3,-1.723431796E-2,4.653549194E-2,5.013608291E-2
5.407842003E0,9.541802108E-3,-6.240084767E-4,4.414176941E-2,4.516559731E-2
5.417841503E0,6.618849933E-3,1.135047525E-2,4.413795471E-2,4.605216074E-2
5.427841069E0,6.607562304E-3,-2.990134060E-3,4.892730713E-2,4.946192641E-2
5.437841069E0,8.954472840E-3,-1.970994473E-2,4.413700104E-2,4.916034342E-2
5.447841069E0,-1.732400805E-2,1.878201962E-3,4.174327850E-2,4.523439176E-2
5.457841069E0,-5.535162985E-3,1.846462488E-3,3.216457367E-2,3.268955877E-2
5.467841069E0,-1.030891389E-2,1.882784069E-3,2.258682251E-2,2.489946049E-2
5.477841069E0,6.914816797E-3,-7.544152439E-3,4.892730713E-2,4.998610117E-2
5.487841069E0,1.169211417E-2,-2.730451524E-3,4.653167725E-2,4.805577891E-2
5.497841069E0,9.304016829E-3,-2.818435431E-3,4.174423218E-2,4.286127888E-2
5.507841069E0,-5.918815732E-4,-1.213849336E-2,4.413318634E-2,4.577588319E-2
5.517841535E0,8.777201176E-3,-9.214997292E-3,4.652118683E-2,4.823044951E-2
5.527841535E0,-1.305619627E-2,-1.590102911E-2,3.454303741E-2,4.020607444E-2
5.537841035E0,-1.074992865E-2,-1.065298170E-2,4.890441895E-2,5.119266722E-2
5.547841035E0,-1.069907844E-2,1.617200673E-2,3.214073181E-2,3.753705799E-2
5.557841035E0,3.732956946E-3,1.969553530E-3,3.213882446E-2,3.241478284E-2
5.567840568E0,6.076104939E-3,-5.234800279E-3,4.410934448E-2,4.483253791E-2
5.577840568E0,-5.716957152E-3,-1.005356014E-2,4.890060425E-2,5.024964444E-2
5.587840568E0,-1.767314970E-2,1.954354346E-3,3.932285309E-2,4.315607137E-2
5.597840568E0,-8.593723178E-4,1.931659877E-3,5.847835541E-2,5.851656075E-2
5.607840568E0,-3.251001239E-3,-6.119534373E-4,2.974796295E-2,2.993133468E-2
5.617841068E0,6.337225437E-3,-1.500295848E-2,3.693103790E-2,4.036273962E-2
5.627841501E0,8.811175823E-3,-3.043264151E-3,5.129718781E-2,5.213731632E-2
5.637841501E0,1.621179283E-3,-7.744789124E-3,3.453636169E-2,3.543120461E-2
5.647841501E0,1.123421639E-2,-7.188305259E-3,4.171466827E-2,4.379489582E-2
5.657841501E0,-3.117091954E-3,-9.546682239E-3,4.410839081E-2,4.523721415E-2
5.667841501E0,-7.959961891E-3,3.018721938E-3,3.692054749E-2,3.788931910E-2
5.677840401E0,-1.272991300E-2,-4.066161811E-3,3.931331635E-2,4.152253844E-2
5.687840401E0,-1.260689646E-2,-3.608234227E-3,3.931045532E-2,4.143989732E-2
5.697840401E0,-5.372934043E-3,-3.586716950E-3,3.452205658E-2,3.512129481E-2
5.707840401E0,-1.006381214E-2,1.649156213E-3,3.930759430E-2,4.060895222E-2
5.717840401E0,1.185474545E-2,4.379682243E-3,4.409599304E-2,4.587126779E-2
5.727840401E0,7.076755166E-3,-5.223140121E-3,4.888534546E-2,4.967029955E-2
5.737840901E0,-7.336214185E-3,-1.476012170E-2,3.930759430E-2,4.262356392E-2
5.747840901E0,4.760079086E-3,-1.916363835E-4,4.888439178E-2,4.911597334E-2
5.757840901E0,-1.679600775E-2,-2.099424601E-4,6.803798676E-2,7.008079333E-2
5.767841367E0,-2.353914082E-3,9.399153292E-3,5.127811432E-2,5.218553442E-2
5.777841367E0,-4.755593836E-3,-1.961067319E-4,3.930664062E-2,3.959376375E-2
5.787841367E0,2.398646623E-2,2.611534297E-2,3.451919556E-2,4.948673118E-2
5.797841367E0,1.403354853E-2,1.353432983E-2,4.170417786E-2,4.603647488E-2
5.807841367E0,-7.820367813E-3,-3.609992564E-3,4.649353027E-2,4.728465455E-2
5.817840900E0,-5.480825901E-3,-5.982309580E-3,4.888725281E-2,4.955593776E-2
5.827840900E0,-1.021895558E-2,1.116402447E-3,4.409980774E-2,4.528207648E-2
5.837840900E0,-5.349278450E-3,-1.076059043E-2,3.212833405E-2,3.430211269E-2
5.847840900E0,1.772098243E-3,6.108731031E-3,5.367565155E-2,5.405120254E-2
5.857840900E0,1.659572124E-3,1.098528504E-2,4.649066925E-2,4.779971751E-2
5.867840900E0,1.118896902E-2,-9.461939335E-4,4.170131683E-2,4.318666619E-2
5.877841333E0,8.914925158E-3,-3.305017948E-3,4.409599304E-2,4.510937415E-2
5.887841333E0,-3.107585013E-3,-9.322538972E-4,3.212547302E-2,3.228888662E-2
5.897841333E0,4.064485431E-3,3.881871700E-3,3.451919556E-2,3.497375919E-2
5.907841333E0,-7.834754884E-3,1.457437873E-3,4.409599304E-2,4.481031256E-2
5.917840833E0,-3.045506775E-3,-8.312314749E-4,5.367279053E-2,5.376555124E-2
5.927840399E0,4.082173109E-3,3.874041140E-3,4.649066925E-2,4.683006149E-2
5.937840399E0,4.092670977E-3,8.636750281E-3,3.451919556E-2,3.581784853E-2
5.947840399E0,4.165321589E-3,8.607126772E-3,3.452014923E-2,3.582001170E-2
5.957840399E0,-3.086805344E-3,3.804482520E-3,3.691387177E-2,3.723756683E-2
5.967840399E0,-6.819814444E-4,-3.404073417E-3,3.691387177E-2,3.707676824E-2
5.977840399E0,-9.259283543E-4,3.284797072E-3,4.170513153E-2,4.184453645E-2
5.987840399E0,-8.115187287E-3,-8.598864079E-3,1.776218414E-2,2.133757047E-2
5.997840399E0,4.319734871E-3,-1.266174018E-3,3.691864014E-2,3.719205958E-2
6.007840399E0,1.641585678E-2,-3.562681377E-3,4.170703888E-2,4.496276398E-2
6.017840865E0,4.048995674E-3,8.633509278E-3,4.888534546E-2,4.980671490E-2
6.027840865E0,8.381836116E-3,6.212897599E-3,4.409217834E-2,4.530977228E-2
6.037840365E0,1.191355288E-3,-9.883642197E-4,2.015018463E-2,2.020955546E-2
6.047840365E0,-3.655672073E-3,-8.210748434E-3,3.212165833E-2,3.335537830E-2
6.057840365E0,1.271195710E-3,1.336565614E-2,2.733325958E-2,3.045264819E-2
6.067839898E0,-1.069921255E-2,-8.076921105E-3,5.606365204E-2,5.764410537E-2
6.077839898E0,-3.501206636E-3,-2.240604162E-2,5.127525330E-2,5.606639590E-2
6.087839898E0,8.404940367E-3,-1.038687676E-2,4.409027100E-2,4.607040512E-2
6.097839898E0,-1.164749265E-3,-7.916241884E-4,4.169654846E-2,4.172032434E-2
6.107839898E0,1.778844744E-2,2.044700086E-3,4.887485504E-2,5.205152367E-2
6.117839898E0,5.831047893E-4,1.443045586E-2,3.689575195E-2,3.962164282E-2
6.127840331E0,1.029016823E-2,1.672863215E-2,3.689765930E-2,4.179918609E-2
6.137840331E0,-1.120382547E-2,-5.351006985E-5,4.647541046E-2,4.780682322E-2
6.147840331E0,-1.118901372E-2,1.434846222E-2,4.647541046E-2,4.991028124E-2
6.157840331E0,8.333101869E-4,4.221074283E-3,3.450870514E-2,3.477589114E-2
6.167840331E0,1.281116903E-2,-3.049381077E-3,5.366420746E-2,5.525641989E-2
6.177839897E0,1.041328907E-2,4.176922143E-3,4.648113251E-2,4.781609506E-2
6.187839897E0,-8.849881589E-3,4.221357405E-3,3.929615021E-2,4.050095905E-2
6.197839897E0,3.128193319E-3,-5.443207920E-3,5.126857758E-2,5.165153582E-2
6.207839897E0,-1.847903430E-2,1.127689332E-2,4.408550262E-2,4.911389389E-2
6.217839897E0,-1.848644018E-2,1.125873625E-2,4.408550262E-2,4.911251525E-2
6.227839897E0,-1.777894795E-3,4.054136574E-3,4.408550262E-2,4.430720568E-2
6.237839897E0,-4.096046090E-3,1.605740190E-2,5.126857758E-2,5.388028207E-2
6.247839897E0,5.682036281E-3,3.643989563E-3,3.930282593E-2,3.987826880E-2
6.257839897E0,1.766055822E-2,8.450433612E-3,3.451442719E-2,3.968061024E-2
6.267840363E0,-8.857548237E-3,8.754804730E-4,3.930473328E-2,4.029993405E-2
6.277840363E0,-4.119195044E-3,-1.901142299E-3,4.888534546E-2,4.909540824E-2
6.287840363E0,5.450546741E-3,-6.707757711E-3,4.888629913E-2,4.964446310E-2
6.297840363E0,-8.900016546E-3,-9.065441787E-3,4.409599304E-2,4.588953183E-2
6.307840363E0,1.738587022E-2,-4.298403859E-3,3.691387177E-2,4.102899813E-2
6.317839896E0,-1.614879072E-2,-9.123273194E-3,3.930759430E-2,4.346383008E-2
6.327839896E0,-8.868165314E-3,-8.675999939E-3,4.169940948E-2,4.350583964E-2
6.337839896E0,-8.668899536E-3,-3.502734005E-3,4.648590088E-2,4.741685297E-2
6.347839896E0,-1.791884005E-2,6.512977183E-3,2.733039856E-2,3.332348100E-2
6.357839896E0,8.476711810E-3,1.612973213E-2,4.887962341E-2,5.216551051E-2
6.367839896E0,3.637492657E-3,-7.729172707E-3,3.929996490E-2,4.021764171E-2
6.377840329E0,-5.995064974E-3,-7.812827826E-3,4.887866974E-2,4.986086078E-2
6.387840329E0,-1.551356912E-2,6.592608988E-3,4.648303986E-2,4.944498270E-2
6.397840329E0,-5.987860262E-3,-6.119981408E-4,3.930091858E-2,3.975916515E-2
6.407840329E0,-2.023307979E-2,-5.364947021E-3,3.451251984E-2,4.036426885E-2
6.417840329E0,-7.437564433E-3,2.351742238E-2,4.170036316E-2,4.844901245E-2
6.427839895E0,-1.461417228E-2,-2.907484770E-3,4.649066925E-2,4.882017848E-2
6.437839895E0,5.536124110E-3,4.017367959E-3,4.889583588E-2,4.937196250E-2
6.447839895E0,-8.832767606E-3,8.849591017E-3,4.650020599E-2,4.815186603E-2
6.457839895E0,8.003853261E-3,1.367040724E-2,4.650115967E-2,4.912534531E-2
6.467839895E0,5.852818489E-3,3.443531692E-3,4.650878906E-2,4.700192395E-2
6.477839895E0,1.210764050E-3,7.812246680E-3,6.087875366E-2,6.138989978E-2
6.487839895E0,1.287460327E-3,1.981588453E-2,3.454208374E-2,3.984322255E-2
6.497839895E0,3.648281097E-3,4.849240184E-3,2.975940704E-2,3.037181906E-2
6.507839895E0,-5.830802023E-3,7.224470377E-3,4.652023315E-2,4.743757284E-2
6.517840361E0,-5.794592202E-3,7.209442556E-3,4.652023315E-2,4.743084918E-2
6.527840361E0,1.093625277E-2,2.453811467E-3,3.215408325E-2,3.405154747E-2
6.537840361E0,-3.397338092E-3,-1.732259989E-5,4.652118683E-2,4.664507509E-2
6.547840361E0,1.303747296E-3,1.194735616E-2,5.609607697E-2,5.736905897E-2
6.557840361E0,1.062511653E-2,6.479516625E-3,5.849552155E-2,5.980470950E-2
6.567839894E0,5.855225027E-3,4.183277488E-3,3.934001923E-2,3.999275664E-2
6.577839894E0,-4.203304648E-3,-8.396878839E-3,4.652500153E-2,4.746315530E-2
6.587839894E0,1.019844413E-2,1.313661784E-2,4.652500153E-2,4.940804345E-2
6.597839894E0,-2.132251859E-3,-1.116780192E-2,2.976512909E-2,3.186266165E-2
6.607839894E0,2.565279603E-3,-1.113092154E-2,5.849552155E-2,5.960037009E-2
6.617839894E0,-2.248674631E-3,-1.114162803E-2,5.370712280E-2,5.489669801E-2
6.627840327E0,-9.460359812E-3,8.628293872E-4,3.215885162E-2,3.353259042E-2
6.637840327E0,4.927627742E-3,-9.053647518E-4,4.891300201E-2,4.916892277E-2
6.647840327E0,2.569720149E-3,6.262749434E-3,4.412460327E-2,4.464085691E-2
6.657840327E0,-4.511035979E-3,8.699879050E-3,3.933620453E-2,4.053855360E-2
6.667840327E0,-4.598706961E-3,3.904461861E-3,4.651832581E-2,4.690786250E-2
6.677839893E0,5.093045533E-3,3.561660647E-3,5.131053925E-2,5.168554902E-2
6.687839893E0,-4.517018795E-3,1.071556658E-2,3.694534302E-2,3.873222427E-2
6.697839893E0,-2.111934125E-3,-4.142165184E-3,2.737331390E-2,2.776537614E-2
6.707839893E0,9.833917022E-3,7.818564773E-3,3.934383392E-2,4.130100661E-2
6.717839893E0,1.460205019E-2,1.036980003E-2,3.934192657E-2,4.322660996E-2
6.727839893E0,-2.179600298E-3,3.237962723E-3,3.934192657E-2,3.953507616E-2
6.737839893E0,-4.612930119E-3,-6.175197661E-3,4.652309418E-2,4.715729511E-2
6.747839893E0,-9.361304343E-3,1.054532826E-3,5.609989166E-2,5.688535755E-2
6.757839893E0,-1.417871565E-2,-1.306645572E-3,4.891681671E-2,5.094701421E-2
6.767840359E0,7.282353938E-3,1.081041992E-3,5.131053925E-2,5.183601806E-2
6.777840359E0,9.578116238E-3,-1.815957576E-2,3.933906555E-2,4.437423330E-2
6.787840359E0,-1.438660920E-2,8.228152990E-3,3.933811188E-2,4.268681379E-2
6.797840359E0,-1.441547275E-2,8.261233568E-3,3.933811188E-2,4.270293761E-2
6.807840359E0,-9.586639702E-3,3.519535065E-3,5.130863190E-2,5.231506948E-2
6.817839892E0,-1.390657574E-2,5.764797330E-3,4.891967773E-2,5.118359705E-2
6.827839892E0,-4.358343780E-3,-1.335632056E-2,2.737045288E-2,3.076569762E-2
6.837839892E0,-3.883965313E-3,8.316524327E-3,4.652786255E-2,4.742459021E-2
6.847840358E0,1.763574779E-2,-3.621824086E-3,5.610370636E-2,5.892166899E-2
6.857840824E0,8.037202060E-3,-3.570578992E-3,4.173851013E-2,4.265499829E-2
6.867840824E0,-3.964006901E-3,1.072227210E-2,3.695011139E-2,3.867804547E-2
6.877841257E0,-1.124180853E-2,-1.085127145E-2,5.610370636E-2,5.823876903E-2
6.887841257E0,-2.813649923E-2,-1.240640879E-3,2.497673035E-2,3.764357631E-2
6.897841257E0,-1.839347184E-3,-5.970820785E-3,2.976417542E-2,3.041282685E-2
6.907841257E0,-1.258902252E-3,3.835290670E-3,4.652690887E-2,4.670168668E-2
6.917841257E0,2.740324289E-2,1.339833438E-2,5.131530762E-2,5.969684984E-2
6.927840823E0,-3.813520074E-3,3.753036261E-3,2.258396149E-2,2.320912607E-2
6.937840823E0,2.734519541E-2,-5.795098841E-3,3.934383392E-2,4.826261649E-2
6.947840823E0,-1.619259268E-2,-9.964406490E-4,5.849361420E-2,6.070169564E-2
6.957840823E0,-6.644360721E-3,8.613735437E-3,5.131053925E-2,5.245107630E-2
6.967840823E0,-2.342563123E-2,-2.006635815E-2,4.412746429E-2,5.383913105E-2
6.977840823E0,-1.351192594E-3,-3.055222332E-3,6.088924408E-2,6.098081788E-2
6.987840823E0,-8.617900312E-3,6.576642394E-3,5.131053925E-2,5.244322519E-2
6.997840823E0,-1.446746290E-3,1.367925107E-2,3.934001923E-2,4.167555755E-2
7.007840823E0,1.097841561E-2,3.916807473E-3,4.892253876E-2,5.029196545E-2
7.017841289E0,1.332518458E-2,6.351143122E-3,3.695106506E-2,3.979043569E-2
7.027841289E0,-3.456346691E-3,-7.963590324E-3,2.497863770E-2,2.644423272E-2
7.037841289E0,-1.312851906E-2,6.377041340E-3,3.216171265E-2,3.531855644E-2
7.047841289E0,-1.112647355E-3,-3.090992570E-3,5.370903015E-2,5.380940567E-2
7.057841289E0,-8.324600756E-3,-3.058187664E-3,4.652500153E-2,4.736272011E-2
7.067840822E0,1.274831593E-3,-7.792301476E-3,4.891967773E-2,4.955280040E-2
7.077840822E0,-8.146658540E-3,6.488204002E-3,5.849838257E-2,5.941822616E-2
7.087840822E0,-3.321737051E-3,1.844486594E-2,5.131530762E-2,5.463064902E-2
7.097840822E0,1.612833887E-2,6.056398153E-3,4.174518585E-2,4.516042311E-2
7.107840822E0,-1.022981107E-2,-5.863629282E-3,4.653263092E-2,4.800330117E-2
7.117840822E0,3.934927285E-3,-1.307091117E-2,4.892635345E-2,5.079488590E-2
7.127841255E0,3.840066493E-3,3.664158285E-3,3.456020355E-2,3.496540914E-2
7.137841255E0,-1.061347872E-2,-8.314236999E-3,4.892444611E-2,5.074814178E-2
7.147840788E0,-8.305780590E-3,-3.426708281E-3,5.850028992E-2,5.918625044E-2
7.157840321E0,-5.937278271E-3,8.533768356E-3,4.652881622E-2,4.767606543E-2
7.167840321E0,8.395440876E-3,-3.466419876E-3,5.131626129E-2,5.211389610E-2
7.177839887E0,1.081588864E-2,-9.559839964E-4,4.173946381E-2,4.312864699E-2
7.187839887E0,-2.026949078E-2,1.485191286E-3,4.173946381E-2,4.642457203E-2
7.197839887E0,-3.477536142E-3,3.802612424E-3,3.695106506E-2,3.730863611E-2
7.207839887E0,3.676168621E-3,8.623965085E-3,4.413318634E-2,4.511790250E-2
7.217839887E0,-1.077678800E-2,-9.597614408E-4,5.371093750E-2,5.478982669E-2
7.227839887E0,-3.680907190E-3,1.533277333E-3,3.934288025E-2,3.954443379E-2
7.237839887E0,-6.105028093E-3,8.643291891E-3,4.892158508E-2,5.005296544E-2
7.247839887E0,-1.092316210E-2,1.575358212E-2,5.370998383E-2,5.702852955E-2
7.257839887E0,-9.585618973E-4,3.433622420E-3,4.413795471E-2,4.428168527E-2
7.267840353E0,-6.330534816E-4,-1.699380577E-3,4.175090790E-2,4.179027353E-2
7.277840353E0,-9.674690664E-3,2.428144217E-4,5.133628845E-2,5.224053130E-2
7.287840353E0,-6.756797433E-3,-4.716455936E-3,5.134201050E-2,5.199905105E-2
7.297840353E0,-1.157492399E-2,1.915377378E-2,3.458213806E-2,4.119187042E-2
7.307840353E0,-9.144164622E-3,-4.803739488E-3,4.655361176E-2,4.768574658E-2
7.317839886E0,-8.660480380E-3,7.055200636E-3,4.416561127E-2,4.555634967E-2
7.327839886E0,-1.273024827E-2,-1.720219105E-2,5.135726929E-2,5.563761054E-2
7.337839886E0,-2.484470606E-4,2.061262727E-3,3.460025787E-2,3.466249234E-2
7.347839886E0,-1.411405206E-2,1.177342236E-2,4.896926880E-2,5.230496369E-2
7.357839886E0,3.008872271E-3,-3.462806344E-4,4.657936096E-2,4.667772585E-2
7.367839886E0,-1.326764375E-2,-5.247563124E-3,2.982425690E-2,3.306136097E-2
7.377840319E0,-3.668271005E-3,1.989863813E-3,2.982425690E-2,3.011481479E-2
7.387840319E0,6.361633539E-3,-2.728290856E-3,4.658699036E-2,4.709842484E-2
7.397840785E0,6.977230310E-3,-3.307983279E-4,4.419898987E-2,4.474753486E-2
7.407840785E0,2.159938216E-3,-9.874865413E-3,5.616855621E-2,5.707087705E-2
7.417840785E0,1.643455029E-2,-9.838007390E-3,4.659080505E-2,5.037443745E-2
7.427840351E0,4.441462457E-3,4.578597844E-3,3.940677643E-2,3.991972164E-2
7.437840351E0,4.529416561E-3,4.690736532E-3,3.940677643E-2,3.994261699E-2
7.447840351E0,1.748248935E-3,-1.411448419E-2,4.658317566E-2,4.870592667E-2
7.457840351E0,-1.769764721E-2,-8.846715093E-3,4.657649994E-2,5.060475700E-2
7.467840351E0,-1.028411090E-3,-6.415456533E-3,3.221035004E-2,3.285912904E-2
7.477840351E0,1.826827973E-2,1.324057579E-3,4.178333282E-2,4.562159658E-2
7.487840351E0,3.872908652E-3,-1.143082976E-3,5.136013031E-2,5.151862814E-2
7.497840351E0,2.512127906E-2,-7.879510522E-4,3.938293457E-2,4.671953621E-2
7.507840351E0,-1.299351454E-3,6.449908018E-3,5.614185333E-2,5.652607649E-2
7.517840417E0,5.323037505E-3,4.135698080E-3,5.134773254E-2,5.178830335E-2
7.527840417E0,9.595014155E-3,-2.963364124E-3,3.937053680E-2,4.063108406E-2
7.537840417E0,-3.028422594E-3,1.836732030E-3,4.175949097E-2,4.190942631E-2
7.547840417E0,-5.465559661E-3,1.151616126E-2,6.091213226E-2,6.223168140E-2
7.557840417E0,3.664493561E-3,-8.238404989E-4,4.175853729E-2,4.192711131E-2
7.567839950E0,7.001087070E-4,-1.078709960E-3,3.457260132E-2,3.459651036E-2
7.577839950E0,7.813423872E-3,-1.545862854E-2,6.090831757E-2,6.332331275E-2
7.587839950E0,7.506303489E-3,-3.150038421E-3,4.414367676E-2,4.488798873E-2
7.597839950E0,-2.524085343E-3,4.323601723E-3,4.892635345E-2,4.918183202E-2
7.607839950E0,-5.356922746E-3,-4.926569760E-3,4.652500153E-2,4.709080035E-2
7.617839950E0,8.881635964E-3,1.006257534E-2,4.173088074E-2,4.383611852E-2
7.627840383E0,6.469972432E-3,1.735853404E-2,4.891204834E-2,5.230265500E-2
7.637840383E0,2.080687881E-2,-1.762636006E-3,3.454589844E-2,4.036647359E-2
7.647840383E0,-1.318010688E-2,1.010249555E-2,4.890823364E-2,5.165066265E-2
7.657840383E0,-6.088010967E-3,1.492817700E-2,6.087875366E-2,6.297727363E-2
7.667840383E0,5.793176591E-3,4.921987653E-3,4.412174225E-2,4.477181029E-2
7.677839949E0,-6.079941988E-3,9.691767395E-3,4.651737213E-2,4.790367376E-2
7.687839949E0,1.293875277E-2,4.259489477E-3,3.215694427E-2,3.492311038E-2
7.697839982E0,2.242114395E-2,1.840427518E-3,3.694438934E-2,4.325485838E-2
7.707839982E0,-1.167024672E-2,1.813423634E-2,5.130958557E-2,5.565715370E-2
7.717839982E0,9.519800544E-3,-1.131955534E-2,4.173660278E-2,4.427982551E-2
7.727839982E0,-1.684272289E-2,-4.147388041E-3,3.694820404E-2,4.081725032E-2
7.737839982E0,7.132768631E-3,1.264128834E-2,5.610084534E-2,5.794810960E-2
7.747839982E0,4.761159420E-3,-1.603519917E-2,3.934097290E-2,4.274936725E-2
7.757839982E0,-2.509608865E-3,-4.070945084E-3,3.934001923E-2,3.962963340E-2
7.767840448E0,-1.211583614E-2,-1.643843949E-3,4.891777039E-2,5.042265332E-2
7.777840448E0,4.491180182E-3,7.974192500E-3,3.694438934E-2,3.806108708E-2
7.787840448E0,2.027504146E-3,-8.800044656E-3,4.412651062E-2,4.504109788E-2
7.797840448E0,9.167365730E-3,-1.588048041E-2,3.454780579E-2,3.911241666E-2
7.807840448E0,-2.993673086E-3,-5.781434476E-3,5.369663239E-2,5.408988254E-2
7.817840381E0,-1.989512891E-2,1.156590134E-2,4.890155792E-2,5.404580090E-2
7.827840381E0,-5.562394857E-3,1.153708249E-2,5.129528046E-2,5.287012678E-2
7.837840381E0,-9.983897209E-3,-2.915009856E-3,4.650974274E-2,4.765848986E-2
7.847840381E0,4.818730056E-3,1.137879491E-2,4.890918732E-2,5.044606761E-2
7.857840381E0,4.670165479E-3,1.904793084E-3,5.369567871E-2,5.393203681E-2
7.867840381E0,1.171428710E-2,1.876391470E-3,3.454017639E-2,3.652080438E-2
7.877840381E0,1.128086448E-2,1.569878310E-2,4.411888123E-2,4.816830259E-2
7.887840381E0,6.343692541E-3,-9.581446648E-4,4.172325134E-2,4.221362551E-2
7.897840381E0,-8.438281715E-3,-1.148290932E-3,4.650974274E-2,4.728297093E-2
7.907840381E0,-1.593574882E-3,-8.744165301E-3,4.411602020E-2,4.500247933E-2
7.917840381E0,7.099583745E-4,5.658634007E-3,6.326961517E-2,6.352612363E-2
7.927839947E0,-8.954085410E-3,-1.425422728E-3,4.411315918E-2,4.503530047E-2
7.937839947E0,1.962874830E-2,3.466159105E-3,4.171752930E-2,4.623477338E-2
7.947839947E0,9.976431727E-3,6.039530039E-3,4.889774323E-2,5.026921927E-2
7.957839947E0,-4.413895309E-3,-1.048378646E-3,5.847454071E-2,5.865026412E-2
7.967839947E0,-9.633757174E-3,-1.085199416E-2,3.931808472E-2,4.191046218E-2
7.977839947E0,9.301625192E-3,8.285433054E-3,4.649925232E-2,4.813885228E-2
7.987839947E0,-1.035976410E-2,1.770932972E-2,5.368041992E-2,5.746766530E-2
7.997839447E0,-8.693486452E-4,1.541408896E-2,5.367851257E-2,5.585456667E-2
8.007839447E0,-5.744814873E-3,-4.212900996E-3,4.410457611E-2,4.467622485E-2
8.017839913E0,1.823963970E-2,-2.132073045E-3,6.326293945E-2,6.587434782E-2
8.027839913E0,3.794185817E-3,2.773158252E-3,2.495288849E-2,2.539159106E-2
8.037839913E0,1.418568194E-3,-6.705895066E-3,3.931713104E-2,3.991012601E-2
8.047839913E0,8.513994515E-3,2.864629030E-3,6.086444855E-2,6.152377832E-2
8.057839913E0,-1.154385507E-3,-9.070120752E-3,4.649829865E-2,4.738872728E-2
8.067839446E0,-3.701180220E-3,-6.634689867E-3,4.170799255E-2,4.239427423E-2
8.077839446E0,-1.336189359E-2,-1.136818528E-2,3.452396393E-2,3.872570106E-2
8.087839446E0,-3.719456494E-3,-1.267120242E-3,4.409694672E-2,4.427166882E-2
8.097839446E0,-3.814801574E-3,-1.086947322E-2,4.888534546E-2,5.022424872E-2
8.107839446E0,1.790087670E-2,-8.013740182E-3,3.451633453E-2,3.969935476E-2
8.117839446E0,1.119501889E-3,-5.568228662E-3,6.324768066E-2,6.350218551E-2
8.127839879E0,-1.572726667E-2,2.086751163E-2,4.409122467E-2,5.125266873E-2
8.137839879E0,-1.096757501E-2,4.140675068E-3,3.690814972E-2,3.872524251E-2
8.147839879E0,-6.262421608E-3,-7.775492966E-3,6.324386597E-2,6.402704739E-2
8.157839879E0,-1.114588231E-2,6.565198302E-3,4.648399353E-2,4.825032824E-2
8.167839879E0,1.080026478E-2,-1.010263711E-2,4.169750214E-2,4.424240817E-2
8.177839879E0,2.028229088E-2,-5.339100957E-3,4.409027100E-2,4.882447459E-2
8.187839879E0,-1.092249900E-2,9.143583477E-3,3.451156616E-2,3.733569742E-2
8.197839879E0,8.384063840E-4,-9.903445840E-3,3.690433502E-2,3.821925049E-2
8.207839879E0,5.408823490E-3,1.173377782E-2,4.887294769E-2,5.055197256E-2
8.217839879E0,-9.101681411E-3,-1.214939356E-2,5.126571655E-2,5.346608329E-2
8.227839879E0,5.191378295E-3,-1.451393217E-2,4.408168793E-2,4.669903474E-2
8.237839879E0,-2.071067691E-3,-1.959234476E-3,3.449821472E-2,3.461581633E-2
8.247839879E0,4.966266453E-3,7.676981390E-3,5.604457855E-2,5.678551427E-2
8.257839879E0,1.441295445E-2,-1.804433763E-3,4.167842865E-2,4.413706664E-2
8.267840345E0,7.125124335E-3,-6.486840546E-3,5.843639374E-2,5.922548953E-2
8.277840345E0,-2.586446702E-3,7.297769189E-4,4.406929016E-2,4.415115645E-2
8.287840345E0,6.838388741E-3,-2.556584030E-2,4.646205902E-2,5.347054030E-2
8.297840345E0,-1.029641926E-2,1.806567609E-2,3.687763214E-2,4.233609163E-2
8.307840345E0,-2.013193071E-2,-5.835443735E-3,3.687572479E-2,4.241657832E-2
8.317839878E0,-1.275282353E-2,-5.406670272E-3,5.363273621E-2,5.539257156E-2
8.327839878E0,1.344005018E-2,-4.529431462E-4,3.926467896E-2,4.150367598E-2
8.337839878E0,1.121286303E-2,8.568167686E-6,1.531791687E-2,1.898333343E-2
8.347839878E0,-7.802173495E-4,7.242381573E-3,5.362701416E-2,5.411947411E-2
8.357839878E0,8.640289307E-3,9.615927935E-3,3.925991058E-2,4.133353661E-2
8.367839878E0,3.760725260E-3,7.258541882E-3,4.644203186E-2,4.715603681E-2
8.377840311E0,1.341037452E-3,-1.190636307E-2,5.123043060E-2,5.261289654E-2
8.387840311E0,1.250542700E-3,1.207377762E-2,5.122947693E-2,5.264788001E-2
8.397840311E0,8.077546954E-4,4.584386945E-3,4.404544830E-2,4.429075059E-2
8.407840311E0,3.111645579E-3,7.016003132E-3,5.122756958E-2,5.179932937E-2
8.417840777E0,2.958998084E-3,-1.209700108E-2,5.362033844E-2,5.504755943E-2
8.427840343E0,-9.160839021E-3,9.554512799E-3,3.207111359E-2,3.469533129E-2
8.437840343E0,2.661496401E-3,4.763685167E-3,2.727985382E-2,2.782025672E-2
8.447840343E0,-1.670307666E-2,7.265061140E-3,5.600833893E-2,5.889573765E-2
8.457840343E0,-7.212951779E-3,2.575196326E-3,5.600738525E-2,5.652862560E-2
8.467840343E0,-1.183944941E-2,-7.279716432E-3,3.446292877E-2,3.715992859E-2
8.477840343E0,-2.349659801E-3,-7.286354899E-3,3.685665131E-2,3.764338739E-2
8.487840343E0,-1.686362922E-2,-1.937150955E-7,3.446006775E-2,3.836506562E-2
8.497840343E0,-2.177260816E-3,4.847943783E-3,3.685665131E-2,3.723782713E-2
8.507840343E0,1.753788441E-2,2.478785813E-3,4.164886475E-2,4.525869755E-2
8.517840809E0,-1.579940319E-3,-9.507298470E-3,4.404354095E-2,4.508567883E-2
8.527840809E0,1.514679939E-2,2.637775987E-2,4.164886475E-2,5.157363360E-2
8.537840809E0,-4.024684429E-3,-2.240471542E-3,5.122470856E-2,5.143139668E-2
8.547840809E0,3.010295331E-3,1.655087620E-2,5.122756958E-2,5.391898799E-2
8.557840809E0,4.385411739E-4,6.538279355E-3,4.883575439E-2,4.927344440E-2
8.567840342E0,2.749316394E-3,-5.895569921E-4,3.925800323E-2,3.935857132E-2
8.577840342E0,-2.188101411E-3,-5.846925080E-3,3.447151184E-2,3.503226298E-2
8.587840342E0,7.305398583E-3,8.573777974E-3,4.404735565E-2,4.546480020E-2
8.597840342E0,1.652244478E-2,-8.653424680E-3,4.165554047E-2,4.564051919E-2
8.607840342E0,4.037238657E-3,-6.324820220E-3,5.362415314E-2,5.414658296E-2
8.617840342E0,1.837304235E-2,7.968045771E-3,5.122947693E-2,5.500470657E-2
8.627840775E0,-6.109207869E-3,5.497410893E-3,4.404258728E-2,4.480282850E-2
8.637840775E0,1.038171351E-3,1.519498974E-2,3.685951233E-2,3.988219104E-2
8.647840775E0,5.447991192E-3,-9.208120406E-3,5.601501465E-2,5.702764203E-2
8.657840775E0,-1.752220094E-3,-2.106636763E-2,4.883193970E-2,5.321109334E-2
8.667840775E0,9.730510414E-3,9.985864162E-4,2.488040924E-2,2.673414992E-2
8.677840341E0,2.376735210E-4,5.837596953E-3,3.685188293E-2,3.731213345E-2
8.687840341E0,-5.100928247E-3,-1.290880144E-3,3.684806824E-2,3.722184806E-2
8.697840341E0,-5.016811192E-3,-1.240469515E-3,3.684711456E-2,3.720775471E-2
8.707840341E0,-7.378980517E-3,-6.105750799E-3,4.642581940E-2,4.740344136E-2
8.717839874E0,-2.492137253E-3,8.240953088E-3,5.121517181E-2,5.193378361E-2
8.727839874E0,-7.302135229E-3,-6.073459983E-3,3.684902191E-2,3.805336399E-2
8.737839874E0,7.151752710E-3,-1.172505319E-3,4.163742065E-2,4.226342549E-2
8.747839874E0,-1.684578508E-2,-1.265541464E-2,4.881572723E-2,5.316874289E-2
8.757806540E0,-1.207894087E-2,-5.421593785E-3,3.923702240E-2,4.141060756E-2
8.767773206E0,-6.873138249E-3,-2.731405199E-3,4.402542114E-2,4.464233765E-2
8.777739872E0,-1.920528710E-3,6.884440780E-3,5.120944977E-2,5.170581883E-2
8.787706538E0,-1.350574195E-3,-4.358589649E-5,3.923988342E-2,3.926314304E-2
8.797673204E0,-2.525622398E-2,-4.741221666E-3,4.163455963E-2,4.892639971E-2
8.807639870E0,-8.460089564E-3,3.231316805E-5,4.881763458E-2,4.954528843E-2
8.817606070E0,-7.698036730E-3,1.215860248E-2,4.882144928E-2,5.089818556E-2
8.827572736E0,1.849278808E-3,4.903092980E-3,4.163932800E-2,4.196777084E-2
8.837539402E0,1.947492361E-3,1.206703484E-2,5.361175537E-2,5.498751104E-2
8.847506068E0,2.407878637E-3,-9.859420359E-3,6.798267365E-2,6.873608925E-2
8.857472734E0,-9.534791112E-3,-2.709724009E-3,5.601310730E-2,5.688341617E-2
8.867439400E0,-1.907552034E-2,6.852664053E-3,3.685951233E-2,4.206492755E-2
8.877406066E0,-1.123398542E-2,-4.293024540E-4,3.207683563E-2,3.398985309E-2
8.887372732E0,-1.136422157E-3,-7.634028792E-3,5.123424530E-2,5.181233195E-2
8.897339398E0,-5.487389863E-3,9.264655411E-3,2.489948273E-2,2.712802108E-2
8.907306064E0,-1.263383776E-2,9.249940515E-3,3.687191010E-2,4.005886931E-2
8.917272730E0,-1.190737635E-2,8.953727782E-3,3.687953949E-2,3.977505859E-2
8.927238963E0,-9.473182261E-3,-5.767047405E-4,3.687858582E-2,3.808022928E-2
8.937205629E0,-1.803226769E-3,-7.915779948E-3,4.646110535E-2,4.716508782E-2
8.947172295E0,1.020478457E-2,8.829683065E-3,5.603885651E-2,5.764073533E-2
8.957138961E0,7.701292634E-4,-3.623314202E-3,3.689098358E-2,3.707649086E-2
8.967105627E0,7.451772690E-4,-3.528647125E-3,3.449535370E-2,3.468336873E-2
8.977072293E0,2.705642954E-2,6.037548184E-3,5.843734741E-2,6.467940893E-2
8.987039459E0,6.943419576E-4,-5.839116871E-3,6.322479248E-2,6.349765177E-2
8.997006125E0,4.711121321E-3,-1.054607332E-2,3.688144684E-2,3.864783885E-2
9.006972791E0,-2.562619746E-3,-9.321346879E-4,5.364036560E-2,5.370963337E-2
9.016939457E0,1.165014505E-2,8.685916662E-3,2.969551086E-2,3.306046572E-2
9.026906123E0,4.568919539E-3,3.834858537E-3,5.603408813E-2,5.635068943E-2
9.036872789E0,6.456613541E-3,-1.057831943E-2,4.405975342E-2,4.576953759E-2
9.046839455E0,1.638330519E-3,8.503034711E-3,5.124282837E-2,5.196934852E-2
9.056839455E0,-5.930580199E-3,6.096929312E-3,3.687477112E-2,3.784300561E-2
9.066839455E0,-1.074538380E-2,3.691367805E-3,3.448009491E-2,3.630380716E-2
9.076839455E0,-6.052166224E-3,-1.788234711E-2,3.448009491E-2,3.931010047E-2
9.086839455E0,-8.472211659E-3,-5.921885371E-3,7.757663727E-2,7.826226260E-2
9.096839455E0,1.291867346E-2,-1.562557369E-2,2.250862122E-2,3.029337727E-2
9.106839455E0,-2.762338519E-2,-3.571689129E-3,4.166316986E-2,5.011614606E-2
9.116839455E0,1.309724152E-2,1.209318638E-3,4.645156860E-2,4.827782527E-2
9.126839455E0,-1.080938429E-2,1.316571981E-2,3.208637238E-2,3.632787165E-2
9.136839455E0,-5.976237357E-3,-1.545656472E-2,2.729701996E-2,3.193349503E-2
9.146839455E0,-1.502282917E-2,-7.855296135E-3,4.166316986E-2,4.498011557E-2
9.156839455E0,-1.737594604E-2,-5.196854472E-4,6.799793243E-2,7.018484444E-2
9.166839455E0,4.661984742E-3,9.323269129E-3,2.250862122E-2,2.480515023E-2
9.176839455E0,1.474212855E-2,-1.213410497E-2,5.124282837E-2,5.468449796E-2
9.186839455E0,2.977743745E-3,1.949952543E-2,5.842304230E-2,6.166320070E-2
9.196839455E0,1.731796563E-2,1.230599731E-2,4.884624481E-2,5.326636026E-2
9.206839455E0,2.690968290E-2,1.234216988E-2,5.363464355E-2,6.126283686E-2
9.216839455E0,-1.217791438E-2,-9.714387357E-3,4.405498505E-2,4.672807109E-2
9.226839455E0,1.370282471E-2,4.519432783E-3,3.926467896E-2,4.183189801E-2
9.236839955E0,-3.016918898E-3,-5.010738969E-3,2.011108398E-2,2.094433106E-2
9.246839955E0,-5.441032350E-3,4.493571818E-3,5.841922760E-2,5.884388816E-2
9.256839955E0,-2.900697291E-3,1.172284037E-2,3.687191010E-2,3.879918537E-2
9.266839955E0,1.155888289E-2,-2.723738551E-3,4.405498505E-2,4.562749426E-2
9.276839955E0,-7.268339396E-4,-7.659643888E-3,3.926563263E-2,4.001235232E-2
9.286839455E0,2.739514038E-2,-5.356281996E-3,5.362796783E-2,6.045777375E-2
9.296839455E0,-2.134218812E-3,2.812884748E-2,-3.840446472E-3,2.846991359E-2
9.306839455E0,-1.465474069E-2,3.774680197E-3,3.686237335E-2,3.984776285E-2
9.316839455E0,-1.947278529E-2,1.088490337E-2,5.362224579E-2,5.807766982E-2
9.326839455E0,-7.223986089E-3,-6.284989417E-3,2.729034424E-2,2.892144456E-2
9.336839455E0,-3.371364623E-2,-1.821514219E-2,4.404926300E-2,5.838440646E-2
9.346839455E0,5.330055952E-3,-3.811404109E-3,4.884338379E-2,4.928095411E-2
9.356839455E0,-1.864181459E-2,-1.335566491E-2,4.405403137E-2,4.966536737E-2
9.366839455E0,-3.501266241E-3,2.529369295E-2,2.490329742E-2,3.566796869E-2
9.376839455E0,-2.775783837E-2,3.493383527E-3,5.602836609E-2,6.262490819E-2
9.386839455E0,1.156283915E-2,5.876995623E-3,4.885387421E-2,5.054640790E-2
9.396839455E0,2.527914941E-3,-6.062351167E-3,6.561756134E-2,6.594548364E-2
9.406839455E0,7.396772504E-3,6.002761424E-3,4.885673523E-2,4.977676130E-2
9.416839455E0,-1.961268485E-3,-9.528845549E-4,5.125045776E-2,5.129682236E-2
9.426839455E0,1.973728091E-2,-5.528256297E-3,3.688430786E-2,4.219684872E-2
9.436839455E0,1.247060299E-2,8.892208338E-3,7.040309906E-2,7.204986929E-2
9.446839455E0,4.066427052E-2,-5.699746311E-3,5.124664307E-2,6.566801680E-2
9.456839455E0,-9.648837149E-3,-2.977680415E-2,7.519054413E-2,8.144554039E-2
9.466839455E0,-2.201104909E-2,-2.942569554E-3,6.799983978E-2,7.153407026E-2
9.476839455E0,-3.428757191E-4,-5.490509793E-2,5.743980408E-3,5.520580272E-2
9.486839955E0,1.313419044E-1,-7.094787955E-1,1.733303070E-1,7.420608145E-1
9.496839955E0,-3.667251468E-1,-7.810017467E-1,8.223152161E-2,8.667254956E-1
9.506839955E0,-1.166751981E0,-5.843945146E-1,1.133518219E-1,1.309838070E0
9.516839955E0,-1.303646207E0,-4.379636943E-1,-3.798742294E-1,1.426748072E0
9.526839955E0,-1.328727901E-1,-3.956782520E-1,-4.493188858E-1,6.132731191E-1
9.536839455E0,-1.326151490E-1,-3.945211768E-1,-4.493265152E-1,6.124769824E-1
9.546839455E0,6.199152470E-1,9.382534027E-2,4.365272522E-1,7.639726106E-1
9.556839455E0,6.482722759E-1,3.157569170E-1,4.197263718E-1,8.343438149E-1
9.566839455E0,5.525993109E-1,7.221202254E-1,5.226364136E-1,1.048795709E0
9.576839455E0,3.973460495E-1,8.188228607E-1,-2.093887329E-2,9.103807977E-1
9.586839455E0,6.139628291E-1,7.480083108E-1,4.600238800E-2,9.688049382E-1
9.596839455E0,5.555641055E-1,6.369652152E-1,2.915668488E-2,8.457105137E-1
9.606839455E0,4.584138989E-1,5.006911159E-1,5.305767059E-2,6.809185066E-1
9.616839455E0,4.516836405E-1,4.386765659E-1,2.014932632E-1,6.611011841E-1
9.626839455E0,3.307260871E-1,2.833391130E-1,4.648780823E-1,6.370026915E-1
9.636839455E0,1.976538301E-1,8.520343900E-2,3.571977615E-1,4.170334560E-1
9.646839455E0,-1.554859430E-1,-1.905533671E-1,5.489206314E-1,6.014983988E-1
9.656839455E0,-2.938477695E-1,-2.730884254E-1,5.900688171E-1,7.135159484E-1
9.666839455E0,-5.110042095E-1,-2.352787703E-1,7.299022675E-1,9.215414923E-1
9.676839455E0,-6.264120936E-1,-1.637518406E-1,8.395099640E-1,1.060181002E0
9.686839455E0,-7.378742695E-1,-4.406029880E-1,1.355085373E0,1.604632605E0
9.696839455E0,-7.126418948E-1,-5.704998374E-1,1.759982109E0,1.982641057E0
9.706839955E0,-6.672546864E-1,-8.129367828E-1,2.238824844E0,2.473546384E0
9.716839955E0,-6.659783721E-1,-6.785879731E-1,2.248119354E0,2.440911604E0
9.726839955E0,-6.880084872E-1,-6.161586046E-1,3.240673065E0,3.369713492E0
9.736840421E0,-4.096038043E-1,-1.793581843E-1,2.986681938E0,3.019969145E0
9.746840421E0,-3.126541078E-1,4.196989536E-2,3.523027420E0,3.537122597E0
9.756840421E0,-3.490942121E-1,1.347721815E-1,3.534120560E0,3.553876537E0
9.766840421E0,-5.733096600E-1,-1.352238655E-1,3.639032364E0,3.686397429E0
9.776840421E0,-7.065328956E-1,-1.587953568E-1,3.532632828E0,3.606091984E0
9.786839921E0,-3.901942670E-1,1.172935963E-2,3.228567123E0,3.252081612E0
9.796839921E0,-1.801979840E-1,1.537137032E-1,3.128931046E0,3.137882838E0
9.806839921E0,3.544355035E-1,5.197170973E-1,2.884453773E0,2.952254047E0
9.816839921E0,5.433989167E-1,6.124730110E-1,2.864531517E0,2.979252655E0
9.826839921E0,8.078639507E-1,5.253463984E-1,2.684658051E0,2.852371268E0
9.836839921E0,8.589142561E-1,3.873430490E-1,2.429521561E0,2.605828726E0
9.846839921E0,5.854471922E-1,-7.177019119E-2,1.850564957E0,1.942289894E0
9.856839921E0,3.336408436E-1,-4.402834773E-1,1.600556374E0,1.693205970E0
9.866839921E0,-2.600560188E-1,-8.079941273E-1,1.047881126E0,1.348531979E0
9.876839921E0,-4.695005715E-1,-8.832018375E-1,6.931800842E-1,1.216953122E0
9.886839921E0,-5.718848705E-1,-6.714400649E-1,2.540426254E-1,9.178353455E-1
9.896839921E0,-5.752626657E-1,-7.717924118E-1,2.500982285E-1,9.945550691E-1
9.906839921E0,-3.536186814E-1,-1.505383849E-1,4.192161560E-2,3.866075517E-1
9.916839921E0,-2.528031170E-1,-1.291449815E-1,8.654880524E-2,2.967802856E-1
9.926839921E0,-7.884457707E-2,-1.211759448E-2,1.969232559E-1,2.124666377E-1
9.936839921E0,3.673166037E-3,6.246037781E-3,2.434120178E-1,2.435198463E-1
9.946839921E0,3.026926517E-1,1.061344147E-1,4.148111343E-1,5.243621197E-1
9.956839921E0,4.166137278E-1,1.723050475E-1,6.415538788E-1,7.841220613E-1
9.966839921E0,5.554603338E-1,2.272821963E-1,9.188194275E-1,1.097461853E0
9.976839921E0,5.261094570E-1,2.480091900E-1,9.204797745E-1,1.088844679E0
9.986840421E0,5.333689451E-1,1.479408443E-1,1.084450722E0,1.217539442E0
9.996840421E0,5.225048661E-1,3.275558352E-3,1.032311440E0,1.157017274E0
1.000683992E1,2.537055612E-1,-4.036902189E-1,9.269466400E-1,1.042383028E0
1.001683992E1,1.172607839E-1,-5.596165657E-1,8.739080429E-1,1.044335224E0
1.002683992E1,-4.290732741E-2,-4.430905879E-1,8.040132523E-1,9.190253629E-1
1.003683945E1,-1.442390680E-1,-3.164489865E-1,8.971309662E-1,9.621792142E-1
1.004683945E1,-1.225418746E-1,-2.788675427E-1,9.546842575E-1,1.002100618E0
1.005683945E1,-6.847828627E-3,-2.575145364E-1,9.023790359E-1,9.384287686E-1
1.006683945E1,2.775801420E-1,-2.444083989E-1,6.779727936E-1,7.722909487E-1
1.007683945E1,5.086719394E-1,-2.517971098E-1,5.016078949E-1,7.574690797E-1
1.008683945E1,8.162494302E-1,-2.435721010E-1,4.280872345E-1,9.533358175E-1
1.009683995E1,9.500339627E-1,-9.717024863E-2,5.697498322E-1,1.112034828E0
1.010683995E1,8.797149658E-1,2.658969164E-1,8.668441772E-1,1.263336226E0
1.011683995E1,8.417191505E-1,4.230802655E-1,9.697208405E-1,1.351978753E0
1.012683995E1,6.570578218E-1,3.672301769E-1,1.007638931E0,1.257743694E0
1.013683995E1,5.015937686E-1,1.662729084E-1,1.006988525E0,1.137219802E0
1.014683995E1,1.727238297E-1,-1.313829720E-1,9.295244217E-1,9.545211665E-1
1.015683995E1,-8.320331573E-2,-1.952437013E-1,8.495788574E-1,8.756866618E-1
1.016683995E1,-3.080205023E-1,-2.380533814E-1,5.780334473E-1,6.968993532E-1
1.017683995E1,-3.056549430E-1,-3.103897274E-1,4.284505844E-1,6.110127906E-1
1.018683995E1,-3.118155003E-1,-4.966897368E-1,3.386535645E-1,6.772118115E-1
1.019683995E1,-2.223823518E-1,-4.347176254E-1,3.351879120E-1,5.922704285E-1
1.020683995E1,1.380785406E-1,-8.725039661E-2,3.103237152E-1,3.506837939E-1
1.021683995E1,4.534547627E-1,1.409857720E-1,3.237724304E-1,5.747406340E-1
1.022683995E1,8.256450295E-1,3.278129399E-1,2.629947662E-1,9.264541464E-1
1.023684042E1,9.138987064E-1,3.117974699E-1,2.525243759E-1,9.980967229E-1
1.024684042E1,6.927814484E-1,1.936112046E-1,1.895294189E-1,7.438768947E-1
1.025684042E1,5.366312861E-1,8.289909363E-2,1.099443436E-1,5.540154832E-1
1.026684042E1,1.490788162E-1,-7.660169154E-2,-4.372978210E-2,1.732183778E-1
1.027684042E1,7.912769914E-3,-1.180704981E-1,-1.181850433E-1,1.672452060E-1
1.028683992E1,-3.479784727E-1,-2.671956122E-1,-1.828441620E-1,4.753046394E-1
1.029683992E1,-5.485818982E-1,-3.546327949E-1,-1.371335983E-1,6.674669595E-1
1.030683992E1,-8.868279457E-1,-3.157159388E-1,2.854061127E-2,9.417828443E-1
1.031683992E1,-1.016075373E0,-2.201742381E-1,1.322507858E-1,1.048034412E0
1.032683992E1,-8.921191096E-1,-2.046496868E-1,2.146492004E-1,9.401235447E-1
1.033683992E1,-6.286953688E-1,-2.035358548E-1,1.823272705E-1,6.855129061E-1
1.034683992E1,-9.384913743E-2,-1.787514389E-1,-6.771564484E-2,2.129439974E-1
1.035683992E1,7.134565711E-2,-1.859792769E-1,-1.834249496E-1,2.707825814E-1
1.036683992E1,2.588591576E-1,-2.973608971E-1,-4.352807999E-1,5.872826758E-1
1.037683992E1,3.539286256E-1,-4.215033650E-1,-6.029806137E-1,8.164044214E-1
1.038683992E1,4.578875005E-1,-6.053628922E-1,-8.492612839E-1,1.139021476E0
1.039683942E1,4.261608124E-1,-7.012892962E-1,-9.203033447E-1,1.233036075E0
1.040683942E1,2.497034967E-1,-5.686149597E-1,-9.526529312E-1,1.137199374E0
1.041683942E1,9.648609161E-2,-4.396974444E-1,-9.034566879E-1,1.009394569E0
1.042683942E1,5.446624756E-2,-1.284011006E-1,-8.375921249E-1,8.491254221E-1
1.043683942E1,1.459664702E-1,3.122687340E-3,-8.775215149E-1,8.895841561E-1
1.044683942E1,5.367316604E-1,1.449179053E-1,-9.397697449E-1,1.091901666E0
1.045683942E1,7.486142516E-1,1.719298959E-1,-8.927583694E-1,1.177709936E0
1.046683942E1,9.274029136E-1,1.213206649E-1,-8.374691010E-1,1.255447873E0
1.047683942E1,8.012886047E-1,-6.956857443E-2,-9.170207977E-1,1.219766518E0
1.048683992E1,6.228145361E-1,-4.120467901E-1,-1.236561775E0,1.444564131E0
1.049683992E1,5.659902096E-1,-4.473405778E-1,-1.261747360E0,1.453432114E0
1.050683992E1,3.203244209E-1,-2.527882755E-1,-1.049468040E0,1.126007467E0
1.051683992E1,1.985251904E-1,-2.454245090E-2,-8.894062042E-1,9.116238145E-1
1.052683992E1,-1.169582009E-1,3.189805150E-1,-4.129037857E-1,5.347123769E-1
1.053683945E1,-3.008667529E-1,4.812670350E-1,-1.348657608E-1,5.833759812E-1
1.054683945E1,-4.492301941E-1,4.675474763E-1,-4.375457764E-2,6.498637341E-1
1.055683945E1,-2.862697542E-1,2.941755652E-1,-2.016639709E-2,4.109699732E-1
1.056683945E1,2.091971636E-1,-9.707587957E-2,-7.121753693E-2,2.413692549E-1
1.057683945E1,2.204264402E-1,-9.016013145E-2,-7.228851318E-2,2.488820885E-1
1.058683945E1,4.739623666E-1,-5.764001012E-1,-4.591522217E-1,8.761838644E-1
1.059683945E1,5.268991590E-1,-6.753741503E-1,-5.179519653E-1,1.001013089E0
1.060683945E1,1.972743869E-1,-5.964058042E-1,-5.525579453E-1,8.366225850E-1
1.061683945E1,-2.414321005E-1,-5.575647354E-1,-4.742975235E-1,7.707957149E-1
1.062683945E1,-1.213388562E0,-4.425275922E-1,-3.310232162E-1,1.333311232E0
1.063683992E1,-1.666401863E0,-3.462587893E-1,-3.549785614E-1,1.738620171E0
1.064683992E1,-1.668687582E0,3.755015135E-2,-4.860963821E-1,1.738452747E0
1.065683992E1,-1.274529219E0,2.033990026E-1,-5.996913910E-1,1.423174497E0
1.066683992E1,-6.690782905E-1,1.021910310E-1,-8.346586227E-1,1.074599359E0
1.067683992E1,-5.104851723E-1,-1.121902466E-1,-7.888450623E-1,9.462865817E-1
1.068683992E1,-5.654700994E-1,-1.066748500E-1,-7.853488922E-1,9.736061008E-1
1.069683992E1,-2.359302044E-1,-7.187928557E-1,-4.434461594E-1,8.769097599E-1
1.070683992E1,-2.621950507E-1,-4.742750525E-1,-2.328815460E-1,5.898447970E-1
1.071683992E1,-2.899390459E-1,-1.324324012E-1,-7.416439056E-2,3.272664787E-1
1.072683992E1,1.914010048E-1,3.988798261E-1,-4.668807983E-2,4.448811494E-1
1.073684042E1,7.671046257E-1,5.908789635E-1,-1.937055588E-1,9.874762274E-1
1.074684042E1,1.736407995E0,7.373204231E-1,-4.643363953E-1,1.942771839E0
1.075684042E1,2.063552618E0,7.175834179E-1,-5.704011917E-1,2.257993111E0
1.076684042E1,1.961776733E0,4.960460663E-1,-5.470972061E-1,2.096173897E0
1.077684042E1,1.476764560E0,1.566649079E-1,-5.063400269E-1,1.568998942E0
1.078683992E1,2.917364240E-1,-5.948799849E-1,-4.213562012E-1,7.851963995E-1
1.079683992E1,2.925251126E-1,-5.987575054E-1,-4.212017059E-1,7.883478730E-1
1.080683992E1,-7.971543670E-1,-1.582699776E0,-3.597908020E-1,1.808270745E0
1.081683992E1,-8.734331727E-1,-1.538766026E0,-5.008382797E-1,1.838892431E0
1.082683992E1,-1.025171757E0,-9.332089424E-1,-7.419261932E-1,1.572358273E0
1.083683992E1,-1.109802008E0,-5.816426873E-1,-7.291803360E-1,1.449714687E0
1.084683992E1,-7.670001388E-1,3.698102236E-1,-5.209407806E-1,9.982124580E-1
1.085683992E1,-6.750599146E-1,8.495631218E-1,-2.973699570E-1,1.125118784E0
1.086683992E1,-6.354260445E-1,1.216811776E0,1.541233063E-2,1.372819980E0
1.087683992E1,-6.367763281E-1,1.163524389E0,1.493282318E-1,1.334755415E0
1.088683992E1,-7.144109011E-1,7.818016410E-1,4.594440460E-1,1.154420016E0
1.089683992E1,-5.188713670E-1,5.108317137E-1,4.460678101E-1,8.539045768E-1
1.090683992E1,-9.961599112E-2,2.452325821E-2,-5.800437927E-2,1.178526363E-1
1.091683992E1,1.223525405E-1,-2.495274842E-1,-4.273862839E-1,5.097971608E-1
1.092683992E1,4.971585870E-1,-3.635478616E-1,-1.006131172E0,1.179675228E0
1.093683945E1,5.525442362E-1,-3.960617185E-1,-1.005960464E0,1.214136102E0
1.094683945E1,5.590972900E-1,-8.569401503E-2,-1.336614609E0,1.451368959E0
1.095683945E1,7.076529264E-1,1.451647282E-2,-1.231550217E0,1.420457436E0
1.096683945E1,9.108660221E-1,4.891023040E-1,-1.173132896E0,1.563693949E0
1.097683945E1,9.513133764E-1,9.403012991E-1,-1.171359062E0,1.777989237E0
1.098683992E1,1.038190961E0,1.429553270E0,-9.752454758E-1,2.018060148E0
1.099683992E1,1.011844397E0,1.396485806E0,-8.771553040E-1,1.934787615E0
1.100683992E1,9.902094603E-1,1.239292502E0,-1.119168282E0,1.941365067E0
1.101683992E1,9.147776365E-1,1.100914359E0,-1.306271553E0,1.937827629E0
1.102683992E1,4.322811365E-1,7.686908245E-1,-1.560276031E0,1.792265008E0
1.103683942E1,1.906510592E-1,4.534891844E-1,-1.787498474E0,1.853955518E0
1.104683942E1,-2.164323330E-1,-2.223677635E-1,-2.222408772E0,2.243967719E0
1.105683942E1,-2.389336526E-1,-2.785497904E-1,-2.213501453E0,2.243717442E0
1.106683942E1,-6.078100204E-1,-6.398659945E-1,-2.469189167E0,2.622166405E0
1.107683942E1,-9.022456408E-1,-5.351216793E-1,-2.417338848E0,2.635133681E0
1.108683942E1,-9.230242968E-1,-2.106797695E-1,-2.463613033E0,2.639270542E0
1.109683942E1,-7.591379881E-1,-1.024391651E-1,-2.304791927E0,2.428754845E0
1.110683942E1,-6.812838316E-1,2.623578310E-1,-2.142600536E0,2.263562756E0
1.111683942E1,-7.332526445E-1,3.362568617E-1,-2.075882912E0,2.227109782E0
1.112683942E1,-8.415775299E-1,1.382769346E-1,-1.760356903E0,1.956075069E0
1.113683942E1,-8.321616054E-1,-7.653450966E-2,-1.557644844E0,1.767656055E0
1.114683942E1,-8.943543434E-1,-4.857250452E-1,-1.144306183E0,1.531416061E0
1.115683942E1,-8.801206946E-1,-4.734100103E-1,-1.147127151E0,1.521390869E0
1.116683942E1,-5.861127377E-1,-8.145761490E-2,-5.718078613E-1,8.228777033E-1
1.117683942E1,-2.629357576E-1,2.386617661E-1,-6.055498123E-1,7.019866284E-1
1.118683942E1,5.448783636E-1,3.353792429E-1,-7.572450638E-1,9.913585397E-1
1.119683942E1,7.050850391E-1,1.231122017E-1,-7.846603394E-1,1.062070325E0
1.120683942E1,7.212369442E-1,1.090104580E-1,-6.367902756E-1,9.682808811E-1
1.121683942E1,7.041655481E-2,1.076115370E-1,-4.231958389E-1,4.423047051E-1
1.122683942E1,-1.297417581E-1,-3.059084415E-1,-7.831010818E-1,8.506821985E-1
1.123683992E1,-1.943894923E-1,-4.474091530E-1,-7.851123810E-1,9.243179516E-1
1.124683992E1,-1.084261462E-1,-3.082566261E-1,-6.156806946E-1,6.970230229E-1
1.125683992E1,-2.054234594E-1,-2.898385525E-1,-5.743513107E-1,6.753403678E-1
1.126683992E1,-6.248056293E-1,-6.555129290E-1,-2.857780457E-1,9.496043206E-1
1.127683992E1,-7.392822504E-1,-7.439108491E-1,-1.766881943E-1,1.063560208E0
1.128683945E1,-7.140682936E-1,-7.375024557E-1,2.079010010E-2,1.026759771E0
1.129683945E1,-5.969200134E-1,-5.516000986E-1,1.821346283E-1,8.329160786E-1
1.130683945E1,-3.227623105E-1,-2.703548670E-1,3.841199875E-1,5.699258092E-1
1.131683945E1,-1.131136715E-2,-8.740198612E-2,3.372573853E-1,3.485822688E-1
1.132683945E1,7.116080523E-1,1.151767969E-1,2.333297729E-1,7.576902385E-1
1.133683945E1,7.061270475E-1,1.058666706E-1,2.350797653E-1,7.517217938E-1
1.134683945E1,-1.604700834E-1,-1.596585512E-1,6.034307480E-1,6.444921786E-1
1.135683945E1,-5.696294308E-1,-1.626434326E-1,7.420215607E-1,9.494875308E-1
1.136683945E1,-1.228556633E0,-2.822194099E-1,7.223730087E-1,1.452866807E0
1.137683945E1,-1.187440276E0,-1.934684515E-1,4.364023209E-1,1.279801327E0
1.138683945E1,-9.155340195E-1,5.936312675E-2,1.304607391E-1,9.266857753E-1
1.139683945E1,-5.807148218E-1,6.418144703E-2,5.614185333E-2,5.869419649E-1
1.140683945E1,1.357111633E-1,5.499398708E-2,-7.365036011E-2,1.639092249E-1
1.141683945E1,4.021245241E-1,6.279063225E-2,-6.499290466E-2,4.121539446E-1
1.142683945E1,5.086991787E-1,1.906107664E-1,-8.550071716E-2,5.499251688E-1
1.143683945E1,4.235858321E-1,1.817147732E-1,-9.435844421E-2,4.704771322E-1
1.144683945E1,2.883504033E-1,1.627087593E-3,1.528635025E-1,3.263676652E-1
1.145683945E1,1.845426261E-1,-9.892475605E-2,3.024311066E-1,3.678405394E-1
1.146683945E1,-3.026259840E-1,6.737184525E-2,3.785209656E-1,4.892847566E-1
1.147683945E1,-5.156541467E-1,1.804360151E-1,3.670597076E-1,6.581710898E-1
1.148683992E1,-7.419913411E-1,1.485463381E-1,4.645557404E-1,8.879353584E-1
1.149683992E1,-8.152439594E-1,9.144365788E-2,5.082540512E-1,9.650424014E-1
1.150683992E1,-8.331255913E-1,1.460305452E-1,4.717273712E-1,9.684781277E-1
1.151683992E1,-7.879974842E-1,1.625406742E-1,3.954124451E-1,8.964990282E-1
1.152683992E1,-3.210560083E-1,8.247590065E-2,2.358417511E-1,4.068176081E-1
1.153683942E1,6.768769026E-2,5.637955666E-2,1.194095612E-1,1.483877391E-1
1.154683942E1,5.555004478E-1,-9.607982635E-2,-2.464027405E-1,6.152449845E-1
1.155683942E1,7.268140316E-1,-1.600571871E-1,-3.735361099E-1,8.327101327E-1
1.156683942E1,9.065863490E-1,-5.535566807E-2,-4.680185318E-1,1.021765337E0
1.157683942E1,9.358102083E-1,3.410983086E-2,-4.607963562E-1,1.043665420E0
1.158683942E1,9.642835259E-1,2.278387547E-2,-4.591360092E-1,1.068254510E0
1.159683992E1,1.078101635E0,3.228282928E-2,-2.211446762E-1,1.101022381E0
1.160683992E1,1.041245580E0,-2.655720711E-2,6.175804138E-2,1.043413484E0
1.161683992E1,9.818914533E-1,-3.872156143E-3,1.742954254E-1,9.972485723E-1
1.162683992E1,9.033676386E-1,-5.649197102E-2,4.351253510E-1,1.004290050E0
1.163683992E1,7.478603721E-1,-1.590881348E-1,5.690622330E-1,9.531190879E-1
1.164683992E1,3.644464016E-1,-3.507546186E-1,7.414131165E-1,8.975206913E-1
1.165683992E1,2.097970545E-1,-3.902490139E-1,8.397312164E-1,9.494512166E-1
1.166683992E1,2.045478970E-1,-2.736387253E-1,8.929166794E-1,9.560429857E-1
1.167683992E1,2.720711231E-1,-1.794353724E-1,8.821153641E-1,9.403973971E-1
1.168683992E1,1.876139194E-1,-2.039608955E-1,5.776367188E-1,6.406740267E-1
1.169683992E1,9.431597590E-2,-2.761974335E-1,3.680667877E-1,4.697378905E-1
1.170683992E1,6.677526981E-2,-2.456738949E-1,2.099313736E-1,3.299784552E-1
1.171683992E1,3.360570222E-2,-7.354915142E-2,8.390903473E-2,1.165313134E-1
1.172683992E1,5.420066789E-2,1.958601475E-1,-8.931159973E-2,2.219807911E-1
1.173684042E1,1.753106862E-1,3.224415779E-1,-1.472902298E-1,3.954703777E-1
1.174684042E1,3.750910759E-1,5.135583878E-1,-3.081750870E-1,7.066876376E-1
1.175684042E1,3.951662481E-1,5.144212246E-1,-3.806228638E-1,7.521032671E-1
1.176684042E1,2.256375253E-1,3.332793713E-1,-1.923818588E-1,4.460921561E-1
1.177684042E1,1.059621572E-2,2.681567669E-1,-9.083938599E-2,2.833233585E-1
1.178683995E1,-1.785349846E-1,1.717040539E-1,-9.310817719E-2,2.646245557E-1
1.179683995E1,-2.828124464E-1,8.970928192E-2,-5.101776123E-2,3.010538939E-1
1.180683995E1,-5.496478081E-1,8.666753769E-2,-4.369258881E-2,5.581514287E-1
1.181683995E1,-6.276475191E-1,1.026575565E-1,1.022911072E-2,6.360696635E-1
1.182683995E1,-6.065463424E-1,5.735659599E-2,-2.007389069E-1,6.414704617E-1
1.183683995E1,-5.652816296E-1,3.833699226E-2,-4.409971237E-1,7.179773735E-1
1.184683995E1,-5.390521884E-1,7.970547676E-2,-5.568056107E-1,7.790781173E-1
1.185683995E1,-4.894198179E-1,1.918902397E-1,-4.903030396E-1,7.188537354E-1
1.186683995E1,-4.362997413E-1,3.887217045E-1,-4.089765549E-1,7.132487996E-1
1.187683995E1,-4.476719797E-1,3.878188133E-1,-4.086551666E-1,7.195920223E-1
1.188683995E1,-1.316894293E-1,3.002722263E-1,-3.124094009E-1,4.528853602E-1
1.189683945E1,-9.932795167E-2,1.575508118E-1,-2.927188873E-1,3.469476146E-1
1.190683945E1,-2.658336163E-1,-2.576708794E-2,-3.376712799E-1,4.305268257E-1
1.191683945E1,-3.076883852E-1,-8.919429779E-2,-3.994007111E-1,5.120045832E-1
1.192683945E1,-9.063750505E-3,-2.788567543E-2,-4.420156479E-1,4.429871279E-1
1.193683945E1,2.548515499E-1,1.201887131E-1,-4.560327530E-1,5.360601748E-1
1.194683945E1,7.430984974E-1,3.926599026E-1,-4.731893539E-1,9.645130070E-1
1.195683945E1,8.635823131E-1,4.260656834E-1,-5.103044510E-1,1.089824303E0
1.196683945E1,5.925896168E-1,1.876029968E-1,-4.621381760E-1,7.745508582E-1
1.197683945E1,2.297728807E-1,-9.026765823E-3,-2.711343765E-1,3.555149917E-1
1.198683995E1,-2.339285910E-1,-1.187388897E-1,7.485771179E-2,2.728097994E-1
1.199683995E1,-3.419750333E-1,-3.684282303E-2,1.474275589E-1,3.742181210E-1
1.200683995E1,-3.073326349E-1,1.502647400E-1,2.770385742E-1,4.402081464E-1
1.201683995E1,-2.682126164E-1,1.909303665E-1,3.775882721E-1,5.009643857E-1
1.202683995E1,-2.618824840E-1,1.588962078E-1,5.138273239E-1,5.982047802E-1
1.203683945E1,-3.525245190E-1,5.082511902E-2,5.327033997E-1,6.408039023E-1
1.204683945E1,-3.965382576E-1,-1.465457678E-1,6.595611572E-1,7.834150700E-1
1.205683945E1,-3.307407498E-1,-9.493529797E-2,6.960220337E-1,7.764334007E-1
1.206683945E1,1.425951719E-3,1.859693527E-1,7.024374008E-1,7.266394811E-1
1.207683945E1,3.107979894E-3,1.975312233E-1,6.999702454E-1,7.273146418E-1
1.208683945E1,7.428472638E-1,4.829304218E-1,4.899778366E-1,1.012483151E0
1.209683945E1,8.556978106E-1,4.247508049E-1,3.884382248E-1,1.031269239E0
1.210683945E1,8.554736972E-1,2.163748741E-1,1.297216415E-1,8.918974364E-1
1.211683945E1,7.337932587E-1,-1.508629322E-2,-4.916286469E-2,7.355930464E-1
1.212683945E1,5.700873137E-1,-2.455530167E-1,-2.320079803E-1,6.626639662E-1
1.213683945E1,5.510736704E-1,-2.587256432E-1,-2.705049515E-1,6.661787128E-1
1.214683945E1,5.397479534E-1,-8.915162086E-2,-4.259080887E-1,6.933062561E-1
1.215683945E1,5.556450486E-1,-1.282691956E-2,-3.873338699E-1,6.774462907E-1
1.216683945E1,4.852710962E-1,1.280429363E-1,-2.438173294E-1,5.579694620E-1
1.217683945E1,3.564798832E-1,2.294187546E-1,-1.536865234E-1,4.509217444E-1
1.218683945E1,1.481420547E-1,3.353838921E-1,-2.621269226E-2,3.675806424E-1
1.219683995E1,4.771262407E-2,3.452053070E-1,3.276443481E-2,3.500238659E-1
1.220683995E1,-1.617719233E-1,2.653110027E-1,5.024814606E-2,3.147776350E-1
1.221683995E1,-2.543442547E-1,1.925013065E-1,2.651977539E-2,3.200797579E-1
1.222683995E1,-3.244523406E-1,1.726388931E-2,-7.872295380E-2,3.343122293E-1
1.223684045E1,-3.709799647E-1,-2.027015686E-1,-1.261320114E-1,4.411613587E-1
1.224684045E1,-4.657850564E-1,-3.850827217E-1,-1.082668304E-1,6.139756737E-1
1.225684095E1,-4.871017635E-1,-3.293230534E-1,-1.304140091E-1,6.022703838E-1
1.226684095E1,-5.359851718E-1,-1.738179922E-1,-1.549530029E-2,5.636780137E-1
1.227684095E1,-5.240770578E-1,-4.882550240E-2,3.029155731E-2,5.272174795E-1
1.228684045E1,-3.729214668E-1,1.479818821E-1,-8.678531647E-2,4.104884274E-1
1.229684045E1,-3.132880330E-1,1.547310352E-1,-1.587171555E-1,3.837736577E-1
1.230684045E1,-2.788265347E-1,-1.030278206E-2,-1.953306198E-1,3.405942378E-1
1.231684045E1,-2.406345010E-1,-1.169865131E-1,-2.186517715E-1,3.455421892E-1
1.232684045E1,-6.159026921E-2,-2.604681253E-1,-3.480720520E-1,4.390799004E-1
1.233684045E1,7.223221660E-2,-2.670820951E-1,-4.181547165E-1,5.014017407E-1
1.234684045E1,2.015480548E-1,-1.333711147E-1,-4.501600266E-1,5.109339704E-1
1.235684045E1,1.525189579E-1,-7.582867146E-2,-4.343147278E-1,4.665204204E-1
1.236684045E1,-2.011523247E-1,5.575501919E-2,-2.531824112E-1,3.281344438E-1
1.237684045E1,-3.876084089E-1,7.231080532E-2,-5.283260345E-2,3.978195762E-1
1.238684045E1,-4.473606348E-1,1.678378582E-1,2.408866882E-1,5.350957679E-1
1.239684045E1,-3.409185410E-1,3.069124222E-1,3.213281631E-1,5.600647060E-1
1.240684045E1,-1.724838614E-1,3.868485689E-1,3.584156036E-1,5.548551547E-1
1.241684045E1,-1.856297702E-1,4.004257917E-1,3.617868423E-1,5.706916379E-1
1.242684045E1,-2.325024903E-1,2.830669880E-1,2.357406616E-1,4.356121982E-1
1.243684045E1,-1.144479364E-1,1.860829592E-1,1.554737091E-1,2.681366668E-1
1.244684045E1,1.305567622E-1,6.043875217E-2,4.460620880E-2,1.506241176E-1
1.245684045E1,1.927991360E-1,3.983318806E-2,7.323074341E-2,2.100498310E-1
1.246684045E1,2.232045829E-1,1.111793518E-2,1.241502762E-1,2.556505142E-1
1.247684045E1,1.886527538E-1,7.212650776E-2,1.375522614E-1,2.443618613E-1
1.248684095E1,1.060815156E-1,1.242951155E-1,1.613655090E-1,2.296549394E-1
1.249684045E1,1.111753136E-1,1.796226501E-1,2.123298645E-1,2.995133021E-1
1.250684045E1,1.172437370E-1,1.741011143E-1,2.927045822E-1,3.601850418E-1
1.251684045E1,8.868746459E-2,1.014786959E-1,2.657432556E-1,2.979645449E-1
1.252684045E1,8.522163332E-2,-1.516675949E-2,1.190757751E-1,1.472134423E-1
1.253683995E1,1.199225634E-1,-5.226612091E-2,6.074714661E-2,1.442337840E-1
1.254683995E1,1.262480468E-1,-5.890107155E-2,6.184482574E-2,1.524227280E-1
1.255683945E1,-7.527954876E-2,-2.111526728E-1,-8.852958679E-2,2.410185665E-1
1.256683945E1,-2.012866884E-1,-2.041674852E-1,4.488086700E-2,2.901981826E-1
1.257683945E1,-2.814311385E-1,-5.203330517E-2,1.848468781E-1,3.407041516E-1
1.258683945E1,-2.989173532E-1,6.711447239E-2,2.309827805E-1,3.836782262E-1
1.259683945E1,-2.855241299E-1,6.811273098E-2,2.457609177E-1,3.828339085E-1
1.260683945E1,-9.094141424E-2,5.419600010E-2,2.774686813E-1,2.969788147E-1
1.261683945E1,7.775574923E-3,5.735003948E-2,3.311624527E-1,3.361815829E-1
1.262683945E1,1.209029555E-2,-1.348779202E-1,4.262847900E-1,4.472772639E-1
1.263683945E1,-1.459619552E-1,-3.291122913E-1,4.671344757E-1,5.897748817E-1
1.264683945E1,-4.951760769E-1,-4.560812712E-1,4.705038071E-1,8.213302049E-1
1.265683945E1,-6.257946491E-1,-3.664075136E-1,4.769706726E-1,8.679714462E-1
1.266683945E1,-5.882496238E-1,-6.827640533E-2,4.408054352E-1,7.382470583E-1
1.267683945E1,-4.059318900E-1,8.300006390E-2,3.497152328E-1,5.421904223E-1
1.268683945E1,-7.683499157E-2,2.237266302E-1,2.678842545E-1,3.573782237E-1
1.269683945E1,8.250162005E-3,2.053785324E-1,2.504539490E-1,3.239993631E-1
1.270683945E1,1.469357312E-2,5.659389496E-2,1.752710342E-1,1.847666244E-1
1.271683945E1,-3.863631189E-2,-7.763850689E-2,1.167058945E-1,1.453986525E-1
1.272683945E1,-1.822206825E-1,-3.081424236E-1,4.859924316E-2,3.612727734E-1
1.273683995E1,-1.942002028E-1,-2.905983925E-1,5.490970612E-2,3.538025160E-1
1.274683995E1,-1.377756596E-1,-2.835934162E-1,-6.301021576E-2,3.215239422E-1
1.275683995E1,-7.875603437E-2,-2.412178516E-1,-8.494853973E-2,2.675907683E-1
1.276683995E1,8.126363158E-2,-6.976222992E-2,-1.761264801E-1,2.061336545E-1
1.277683995E1,6.840750575E-2,-7.997357845E-2,-1.738462448E-1,2.032187908E-1
1.278683945E1,5.880235434E-1,2.314007282E-1,-5.020608902E-1,8.070830949E-1
1.279683945E1,7.291634679E-1,2.471033335E-1,-5.982360840E-1,9.750004269E-1
1.280683945E1,7.149834633E-1,2.418740988E-1,-5.968217850E-1,9.622373280E-1
1.281683945E1,6.181578040E-1,-2.661299706E-2,-1.984643936E-1,6.497810691E-1
1.282683945E1,2.770461440E-1,-1.341009140E-1,3.157806396E-2,3.094103993E-1
1.283683945E1,4.054915905E-2,-1.494501829E-1,1.410160065E-1,2.094399808E-1
1.284683945E1,-3.572034836E-1,-1.652263403E-1,1.415929794E-1,4.182614542E-1
1.285683945E1,-4.490165114E-1,-1.234364510E-1,1.170282364E-1,4.801541347E-1
1.286683945E1,-4.516497850E-1,2.145171165E-3,6.271076202E-2,4.559876860E-1
1.287683945E1,-3.597291410E-1,2.934455872E-2,1.954364777E-2,3.614527800E-1
1.288683945E1,-1.652698070E-1,1.441788673E-2,3.097534180E-2,1.687644997E-1
1.289683945E1,-1.068472862E-1,3.063642979E-2,4.459381104E-2,1.197645247E-1
1.290683945E1,-1.201437414E-2,-2.170872688E-2,1.636285782E-1,1.654990200E-1
1.291683945E1,9.897637367E-2,2.597939968E-2,2.086849213E-1,2.324234242E-1
1.292683945E1,9.708014131E-2,2.227079868E-2,3.430871964E-1,3.572525250E-1
1.293683945E1,1.190474182E-1,7.142424583E-3,4.807357788E-1,4.953081778E-1
1.294683945E1,8.474966884E-2,1.791441441E-2,3.224658966E-1,3.338977195E-1
1.295683945E1,7.971839607E-2,2.724814415E-2,3.209533691E-1,3.318260828E-1
1.296683945E1,8.186002076E-2,3.756582737E-2,1.673784256E-1,1.900731221E-1
1.297683945E1,1.470235735E-1,7.583713531E-2,5.316448212E-2,1.737632424E-1
1.298683995E1,4.038331509E-1,4.990339279E-2,-1.239585876E-2,4.070936252E-1
1.299683995E1,4.376265407E-1,3.364408016E-2,3.820419312E-3,4.389345154E-1
1.300683995E1,2.682475448E-1,6.720280647E-2,2.246379852E-2,2.774483460E-1
1.301683995E1,1.747193038E-1,1.188298464E-1,5.761337280E-2,2.190129408E-1
1.302683995E1,7.503387332E-2,6.774806976E-2,2.045536041E-2,1.031421586E-1
1.303683945E1,1.242870092E-2,3.670370579E-2,6.572723389E-3,3.930439311E-2
1.304683945E1,-1.791085750E-1,-1.393402815E-1,-3.911876678E-2,2.302734757E-1
1.305683945E1,-2.618547380E-1,-1.676778793E-1,3.103256226E-3,3.109556323E-1
1.306683945E1,-3.063964248E-1,-1.060304642E-1,1.576843262E-1,3.605351233E-1
1.307683945E1,-2.337795645E-1,-1.060736179E-2,1.422376633E-1,2.738557170E-1
1.308683945E1,-1.394855976E-1,6.523847580E-2,6.215381622E-2,1.660583859E-1
1.309683945E1,-9.238785505E-2,4.174840450E-2,-2.259826660E-2,1.038707211E-1
1.310683945E1,-5.971103907E-2,-2.614617348E-3,-8.077907562E-2,1.004863347E-1
1.311683945E1,-1.086041778E-1,-5.613923073E-3,-1.242885590E-1,1.651485073E-1
1.312683945E1,-7.321706414E-2,8.314037323E-2,-1.411285400E-1,1.794166240E-1
1.313683945E1,4.782974720E-3,1.419241428E-1,-1.720418930E-1,2.230779059E-1
1.314683945E1,5.117578506E-1,3.003697395E-1,-4.038639069E-1,7.177911489E-1
1.315683945E1,8.131354451E-1,3.715839386E-1,-4.391174316E-1,9.960361411E-1
1.316683945E1,1.141218662E0,2.094135284E-1,-4.333381653E-1,1.238554006E0
1.317683945E1,1.121526599E0,2.040337324E-1,-4.318103790E-1,1.218979852E0
1.318683945E1,3.843007684E-1,-3.385322094E-1,1.448345184E-1,5.322294384E-1
1.319683945E1,-1.294430643E-1,-3.840081692E-1,2.765436172E-1,4.906059041E-1
1.320683945E1,-6.252304316E-1,-2.840903997E-1,3.483829498E-1,7.700591714E-1
1.321683945E1,-7.053418756E-1,-1.625183821E-1,4.413642883E-1,8.477746286E-1
1.322683945E1,-7.880874872E-1,-3.473842144E-2,3.660240173E-1,8.696333864E-1
1.323683995E1,-7.161957622E-1,7.491946220E-3,3.136262894E-1,7.818912638E-1
1.324683995E1,-4.813042879E-1,9.658133984E-2,1.166114807E-1,5.045592237E-1
1.325683995E1,-3.258349299E-1,1.155657768E-1,1.209640503E-2,3.459337702E-1
1.326683995E1,-4.079464078E-2,-2.958059311E-3,-1.652431488E-2,4.411355589E-2
1.327684045E1,6.910359859E-2,-6.844937801E-2,-1.078081131E-1,1.452005990E-1
1.328683995E1,6.596311927E-2,-1.087270975E-1,-8.902645111E-2,1.552366704E-1
1.329683995E1,-3.725475073E-2,-9.405875206E-2,7.129192352E-2,1.237639029E-1
1.330683995E1,-2.186096162E-1,-7.631838322E-2,2.514190674E-1,3.417984894E-1
1.331683995E1,-3.374080956E-1,-6.515121460E-2,4.008741379E-1,5.280047141E-1
1.332683995E1,-3.890559673E-1,-3.634214401E-3,3.737049103E-1,5.394748495E-1
1.333683995E1,-3.951085806E-1,1.232087612E-2,2.967596054E-1,4.942963259E-1
1.334683995E1,-3.481340408E-1,-1.235353947E-2,1.962671280E-1,3.998383497E-1
1.335683995E1,-3.013784885E-1,-1.035201550E-2,1.535205841E-1,3.383854715E-1
1.336683995E1,-9.396767616E-2,4.288470745E-2,8.690643311E-2,1.349879640E-1
1.337683995E1,2.855721116E-2,5.238628387E-2,-1.572608948E-2,6.170208212E-2
1.338683995E1,1.252378821E-1,5.288779736E-2,-9.708595276E-2,1.670548666E-1
1.339683995E1,1.451034844E-1,5.225944519E-2,-8.535194397E-2,1.762697510E-1
1.340683995E1,9.815844893E-2,2.725875378E-2,-1.194381714E-1,1.569827938E-1
1.341683995E1,1.829453409E-1,9.167551994E-3,-8.922958374E-2,2.037522034E-1
1.342683995E1,3.174497783E-1,4.193246365E-2,-5.702781677E-2,3.252458534E-1
1.343683995E1,3.690913916E-1,2.787113190E-2,-5.607795715E-2,3.743661211E-1
1.344683995E1,4.361703694E-1,1.246132851E-1,-2.413463593E-2,4.542637368E-1
1.345683995E1,4.431303740E-1,2.048281431E-1,-1.615333557E-2,4.884465445E-1
1.346683995E1,3.721488118E-1,1.941164732E-1,8.045578003E-2,4.273746317E-1
1.347683995E1,3.248171210E-1,1.665821075E-1,1.388483047E-1,3.905567979E-1
1.348684045E1,2.434455454E-1,9.276235104E-2,1.160526276E-1,2.851995788E-1
1.349684045E1,2.418662310E-1,9.890675545E-2,1.150913239E-1,2.855307913E-1
1.350684045E1,2.743715048E-2,2.854311466E-2,4.752349854E-2,6.185458378E-2
1.351684045E1,-1.094686836E-1,-3.978490829E-2,2.354526520E-2,1.188301777E-1
1.352684045E1,-2.755224109E-1,-1.128520966E-1,-2.637481689E-2,2.989043753E-1
1.353683995E1,-3.804291189E-1,-1.255822182E-1,-1.047468185E-1,4.140882804E-1
1.354683995E1,-3.131143451E-1,-1.149082184E-1,-1.879510880E-1,3.828447508E-1
1.355683995E1,-2.711447477E-1,-9.794020653E-2,-1.349563599E-1,3.183158453E-1
1.356683995E1,-3.335932791E-1,-5.680072308E-2,-4.164505005E-2,3.409473687E-1
1.357683945E1,-3.694889545E-1,3.067851067E-2,8.101463318E-3,3.708488806E-1
1.358683945E1,-3.717086613E-1,2.071384192E-1,1.005582809E-1,4.372477804E-1
1.359683945E1,-3.140370250E-1,2.351650000E-1,1.734781265E-1,4.289714334E-1
1.360683945E1,-1.538197398E-1,2.216047049E-1,3.011732101E-1,4.043197498E-1
1.361683945E1,1.677891612E-2,1.941858530E-1,3.353261948E-1,3.878573635E-1
1.362683945E1,3.741539717E-1,1.109311581E-1,2.689809799E-1,4.739701298E-1
1.363683945E1,6.391887665E-1,5.652308464E-2,1.239643097E-1,6.535474645E-1
1.364683945E1,1.006269455E0,-1.574063301E-2,-1.042680740E-1,1.011779529E0
1.365683945E1,1.035563469E0,7.604360580E-4,-2.502250671E-1,1.065366069E0
1.366683945E1,7.802103758E-1,-4.296898842E-3,-4.215574265E-1,8.868243105E-1
1.367683945E1,4.710333347E-1,-5.041778088E-2,-4.576416016E-1,6.586730528E-1
1.368683945E1,1.791343093E-2,-8.855068684E-2,-3.279600143E-1,3.401762575E-1
1.369683945E1,-1.952586472E-1,3.200697899E-2,-2.555942535E-1,3.232318184E-1
1.370683945E1,-3.909896910E-1,2.601916790E-1,-2.027673721E-1,5.115537660E-1
1.371683945E1,-4.103693366E-1,2.555214167E-1,-2.011909485E-1,5.236143472E-1
1.372683945E1,-8.806499243E-1,2.250638008E-1,7.929325104E-2,9.124063915E-1
1.373683995E1,-1.039669275E0,1.020330191E-1,2.532100677E-1,1.074913149E0
1.374683995E1,-1.213600874E0,5.336427689E-2,3.733682632E-1,1.270857461E0
1.375683995E1,-1.096912622E0,8.736050129E-2,3.706007004E-1,1.161117581E0
1.376683995E1,-7.559705973E-1,8.236420155E-2,2.741527557E-1,8.083533504E-1
1.377683995E1,-4.730841517E-1,7.720220089E-2,2.353572845E-1,5.340054736E-1
1.378683945E1,1.512771845E-2,-3.593814373E-2,2.259511948E-1,2.292909515E-1
1.379683945E1,1.483424902E-1,-4.403173923E-2,1.149835587E-1,1.927835761E-1
1.380683945E1,3.584654629E-1,-1.249053478E-1,-1.176929474E-2,3.797859270E-1
1.381683945E1,4.208110571E-1,-2.066233158E-1,2.772712708E-2,4.696210536E-1
1.382683945E1,4.933100641E-1,-6.220567226E-2,4.873752594E-2,4.995995511E-1
1.383683945E1,5.580427647E-1,5.677378178E-2,-8.342075348E-2,5.670925953E-1
1.384683945E1,6.496610641E-1,1.193932295E-1,-1.131324768E-1,6.701590847E-1
1.385683945E1,6.171826124E-1,6.825864315E-2,-3.578090668E-2,6.219757975E-1
1.386683945E1,3.891221881E-1,-8.057045937E-2,4.071140289E-2,3.994559982E-1
1.387683945E1,3.371628225E-1,-9.635758400E-2,6.111049652E-2,3.559466893E-1
1.388683945E1,2.481450140E-1,-1.273024082E-1,8.764743805E-2,2.923421361E-1
1.389683945E1,1.822227538E-1,-1.576948166E-1,1.110239029E-1,2.653282763E-1
1.390683945E1,-9.219139814E-2,-1.391390562E-1,1.579608917E-1,2.298055138E-1
1.391683945E1,-2.472676784E-1,-1.844210625E-1,2.098293304E-1,3.730694050E-1
1.392683945E1,-3.740807176E-1,-1.865637302E-1,4.682254791E-1,6.276762764E-1
1.393683945E1,-3.698166013E-1,-5.860185623E-2,4.975252151E-1,6.226795611E-1
1.394683945E1,-1.964975446E-1,1.889327765E-1,6.017313004E-1,6.605962738E-1
1.395683945E1,-1.122986078E-1,2.330322266E-1,5.532054901E-1,6.106973966E-1
1.396683945E1,-1.013511717E-1,2.012547255E-1,3.374080658E-1,4.057335670E-1
1.397683945E1,-8.735367656E-2,1.157855988E-1,2.368917465E-1,2.777672934E-1
1.398683995E1,-8.751100302E-2,9.673833847E-4,1.703214645E-1,1.914902420E-1
1.399683995E1,-1.121332049E-1,-2.265572548E-2,1.064910889E-1,1.562929607E-1
1.400683995E1,-8.081874251E-2,-1.072961092E-1,5.477046967E-2,1.450652561E-1
1.401683995E1,-3.559774160E-2,-1.083972454E-1,3.663539886E-2,1.198303570E-1
1.402683995E1,5.325710773E-2,-3.583669662E-3,-6.289863586E-2,8.249485200E-2
1.403683945E1,1.884645224E-2,5.433344841E-2,-7.393646240E-2,9.366916702E-2
1.404683945E1,3.248760104E-2,2.027335167E-1,-4.455661774E-2,2.100990604E-1
1.405683945E1,4.576551914E-2,1.850749254E-1,-9.210586548E-2,2.117326173E-1
1.406683945E1,2.182298899E-2,1.209783554E-1,-1.207590103E-1,1.723216292E-1
1.407683945E1,-1.340115070E-2,7.477247715E-2,-1.064138412E-1,1.307456301E-1
1.408683945E1,-1.734636575E-1,-1.313673258E-1,-1.780414581E-2,2.183208702E-1
1.409683945E1,-2.271828502E-1,-1.077659130E-1,1.102066040E-2,2.516882882E-1
1.410683945E1,-2.233298719E-1,-3.688800335E-2,-9.893608093E-2,2.470330030E-1
1.411683945E1,-1.791817397E-1,-2.912700176E-2,-1.753234863E-1,2.523743310E-1
1.412683945E1,-1.134783626E-1,1.662194729E-2,-3.091259003E-1,3.297157111E-1
1.413683945E1,-4.690092802E-2,7.889306545E-2,-4.715595245E-1,4.804083659E-1
1.414683945E1,1.129022539E-1,2.707691193E-1,-7.440738678E-1,7.998179515E-1
1.415683945E1,1.954421401E-1,4.006482363E-1,-8.655567169E-1,9.736041647E-1
1.416683945E1,2.221425176E-1,5.815634727E-1,-1.060919762E0,1.230087034E0
1.417683945E1,2.276827991E-1,5.692317486E-1,-1.069394112E0,1.232667030E0
1.418683945E1,2.262897789E-1,2.778406143E-1,-9.294223785E-1,9.961066352E-1
1.419683945E1,1.869761944E-2,4.063284397E-2,-7.177705765E-1,7.191628671E-1
1.420683945E1,-7.498477101E-1,-2.571666241E-1,-1.951360703E-1,8.163849257E-1
1.421683945E1,-7.680673599E-1,-2.515152693E-1,-1.949796677E-1,8.313870764E-1
1.422683945E1,-1.400845051E0,7.937526703E-2,6.830186844E-1,1.560506909E0
1.423683952E1,-1.223797083E0,2.959548235E-1,8.869428635E-1,1.540109152E0
1.424683952E1,-8.035407066E-1,5.537779331E-1,9.290494919E-1,1.347397723E0
1.425683952E1,-6.609582901E-1,3.996601105E-1,7.689523697E-1,1.089899909E0
1.426683952E1,-5.374145508E-1,-1.319226027E-1,4.411287308E-1,7.076810931E-1
1.427683952E1,-5.044150352E-1,-4.567119479E-1,3.439912796E-1,7.624633313E-1
1.428683902E1,-2.165930420E-1,-7.738811374E-1,4.532146454E-2,8.048966367E-1
1.429683902E1,-1.177966595E-2,-8.033372760E-1,-6.261253357E-2,8.058597079E-1
1.430683902E1,4.278363287E-1,-5.426936746E-1,-1.378030777E-1,7.046630662E-1
1.431683902E1,6.322658062E-1,-3.066861629E-1,-1.134767532E-1,7.118240132E-1
1.432683902E1,8.064474463E-1,-5.206990242E-2,-7.407283783E-2,8.115143522E-1
1.433683902E1,7.823797464E-1,1.393151283E-2,8.244800568E-2,7.868353248E-1
1.434683902E1,6.216167212E-1,1.146016121E-1,3.432836533E-1,7.192944766E-1
1.435683902E1,5.686281919E-1,1.398595572E-1,5.139265060E-1,7.791143498E-1
1.436683902E1,4.975516796E-1,3.214793205E-1,7.066774368E-1,9.221169270E-1
1.437683902E1,4.763612747E-1,3.126084805E-1,7.276802063E-1,9.242091802E-1
1.438683902E1,3.575759828E-1,1.265642643E-1,7.331085205E-1,8.254254656E-1
1.439683902E1,3.190797269E-1,-8.116507530E-2,6.591491699E-1,7.368020560E-1
1.440683902E1,1.159304082E-1,-3.695477247E-1,6.335725784E-1,7.425763210E-1
1.441683902E1,-3.487992287E-2,-4.471620917E-1,6.052818298E-1,7.533502763E-1
1.442683902E1,1.059237421E-1,-2.487310171E-1,5.907659531E-1,6.496855927E-1
1.443683902E1,2.488452792E-1,-3.926455975E-2,5.995225906E-1,6.503022492E-1
1.444683902E1,4.448515177E-1,2.053457499E-1,3.103351593E-1,5.799721208E-1
1.445683902E1,3.999395967E-1,2.039790154E-1,1.848325729E-1,4.855123064E-1
1.446683902E1,3.068325520E-1,1.458321810E-1,2.477645874E-3,3.397342766E-1
1.447683902E1,2.191169262E-1,5.302488804E-2,-1.891593933E-1,2.942875162E-1
1.448683952E1,5.491578579E-2,-1.094655991E-1,-3.737506866E-1,3.933040003E-1
1.449683952E1,-2.327030897E-2,-1.111186743E-1,-3.959789276E-1,4.119322495E-1
1.450683952E1,6.232047081E-2,-5.232536793E-2,-4.405469894E-1,4.479993695E-1
1.451683952E1,7.779037952E-2,-2.474939823E-2,-4.072399139E-1,4.153410928E-1
1.452683952E1,2.935844660E-2,6.352221966E-2,-3.273057938E-1,3.347029629E-1
1.453683945E1,-4.135757685E-2,3.663802147E-2,-2.228050232E-1,2.295536367E-1
1.454683945E1,-1.407786012E-1,-9.188652039E-2,-6.404113770E-2,1.798972331E-1
1.455683945E1,-1.922192276E-1,-8.469426632E-2,-2.307319641E-2,2.113142744E-1
1.456683945E1,-1.821631789E-1,-5.880975723E-2,2.245807648E-2,1.927339526E-1
1.457683945E1,-1.536481380E-1,1.240134239E-2,1.255426407E-1,1.988026616E-1
1.458683945E1,-1.002108157E-1,8.392679691E-2,1.883363724E-1,2.292520534E-1
1.459683945E1,-6.294554472E-2,1.159414053E-1,1.798143387E-1,2.230196123E-1
1.460683945E1,-7.400709391E-2,3.119134903E-2,2.675800323E-1,2.793725540E-1
1.461683945E1,-9.998291731E-2,3.273403645E-2,2.817010880E-1,3.007051776E-1
1.462683945E1,-1.130532324E-1,1.117516756E-1,1.860713959E-1,2.447284919E-1
1.463683945E1,-9.133565426E-2,1.091655493E-1,8.582878113E-2,1.662104045E-1
1.464683945E1,-8.347988129E-2,1.029567719E-1,8.630657196E-2,1.581701989E-1
1.465683945E1,-2.383534014E-1,-1.112569571E-1,-1.499004364E-1,3.027550087E-1
1.466683945E1,-3.059155345E-1,-2.000832558E-1,-1.201410294E-1,3.847745969E-1
1.467683945E1,-2.854281068E-1,-1.226364374E-1,-1.191034317E-1,3.327078709E-1
1.468683945E1,-3.113682270E-1,-1.177655458E-1,-8.951663971E-2,3.447203582E-1
1.469683945E1,-3.273140192E-1,-7.270288467E-2,-1.128978729E-1,3.537882224E-1
1.470683945E1,-3.157710433E-1,4.580712318E-2,-2.203779221E-1,3.877835387E-1
1.471683945E1,-3.175852895E-1,5.374169350E-2,-2.922849655E-1,4.349472230E-1
1.472683945E1,-1.134597957E-1,7.049059868E-2,-3.285160065E-1,3.546333547E-1
1.473683995E1,1.077049971E-2,6.421661377E-2,-4.151010513E-1,4.201769389E-1
1.474683995E1,1.686574221E-1,1.273858547E-2,-5.304584503E-1,5.567708371E-1
1.475683995E1,2.742481232E-1,-6.027698517E-2,-5.787916183E-1,6.433079243E-1
1.476683995E1,2.709549665E-1,-2.484964132E-1,-5.168685913E-1,6.342871605E-1
1.477683995E1,2.419596910E-1,-2.590893507E-1,-4.620714188E-1,5.823931488E-1
1.478683945E1,2.551349401E-1,-8.803963661E-2,-2.446861267E-1,3.643022315E-1
1.479683945E1,2.252564430E-1,6.898260117E-2,-1.042919159E-1,2.576351453E-1
1.480683945E1,1.403030753E-1,2.918628454E-1,2.629175186E-1,4.171264737E-1
1.481683945E1,1.064073443E-1,3.678132296E-1,4.640350342E-1,6.016125063E-1
1.482683945E1,-7.720035315E-2,3.468943834E-1,7.886314392E-1,8.650058697E-1
1.483683945E1,-3.275599778E-1,2.635716200E-1,9.209537506E-1,1.012383993E0
1.484683945E1,-7.230257988E-1,6.095969677E-2,1.026603699E0,1.257138634E0
1.485683945E1,-8.542526960E-1,-1.186823845E-2,1.015079498E0,1.326753523E0
1.486683945E1,-6.998586655E-1,-7.919466496E-2,9.204778671E-1,1.159031255E0
1.487683945E1,-5.565808415E-1,-8.804130554E-2,7.887773514E-1,9.693829041E-1
1.488683945E1,-1.883878112E-1,-8.323264122E-2,4.072437286E-1,4.563607065E-1
1.489683945E1,5.693119764E-2,-7.058274746E-2,2.524766922E-1,2.682677126E-1
1.490683945E1,2.965387702E-1,-2.095699310E-3,1.169481277E-1,3.187734286E-1
1.491683945E1,3.160320520E-1,5.667853355E-2,1.166543961E-1,3.416093708E-1
1.492683945E1,3.580427170E-1,2.163428068E-1,9.769821167E-2,4.295855419E-1
1.493683945E1,4.311899543E-1,2.859822512E-1,9.520244598E-2,5.260932716E-1
1.494683945E1,5.370272994E-1,4.627478123E-1,7.493495941E-2,7.128457801E-1
1.495683945E1,6.309609413E-1,4.165121317E-1,5.322647095E-2,7.579097060E-1
1.496683945E1,6.170555949E-1,2.857822180E-1,-1.071548462E-2,6.801058042E-1
1.497683945E1,5.624695420E-1,1.860970259E-1,-1.381978989E-1,6.083607055E-1
1.498683995E1,1.779472232E-1,-2.302404642E-1,-3.742361069E-1,4.740554285E-1
1.499683995E1,-9.107825160E-2,-4.401264787E-1,-4.932613373E-1,6.673179992E-1
1.500683995E1,-2.937415242E-1,-5.914202332E-1,-3.056602478E-1,7.276607468E-1
1.501683995E1,-3.070880175E-1,-4.009407759E-1,-1.989536285E-1,5.428066898E-1
1.502683995E1,-1.927341819E-1,-3.107845783E-2,-9.389209747E-2,2.166288563E-1
1.503683945E1,-4.495850205E-2,1.130175591E-1,-2.439308167E-2,1.240534481E-1
1.504683945E1,8.648970723E-2,1.670604944E-1,1.868286133E-1,2.651313052E-1
1.505683945E1,9.782046080E-2,1.282231808E-1,2.044544220E-1,2.604066768E-1
1.506683945E1,4.655379057E-2,4.826748371E-2,2.175016403E-1,2.276048526E-1
1.507683945E1,-2.317297459E-2,2.273035049E-2,1.804313660E-1,1.833279395E-1
1.508683945E1,-3.750592470E-2,8.500218391E-3,1.411361694E-1,1.462818048E-1
1.509683945E1,-1.955115795E-2,-1.284873486E-2,1.067762375E-1,1.093092066E-1
1.510683945E1,-5.088430643E-2,-9.303545952E-2,3.173160553E-2,1.106874164E-1
1.511683945E1,-1.643079519E-1,-1.230132580E-1,-2.676010132E-2,2.069914678E-1
1.512683945E1,-3.023449779E-1,-1.780142784E-1,-5.693054199E-2,3.554471206E-1
1.513683945E1,-2.434059381E-1,-1.274248362E-1,-1.211595535E-1,3.002718385E-1
1.514683945E1,-1.531214416E-1,-6.363368034E-2,-2.099933624E-1,2.675679977E-1
1.515683945E1,-3.994366527E-2,-1.014266014E-1,-1.703805923E-1,2.022681342E-1
1.516683945E1,6.024697423E-2,-1.021854877E-1,3.662204742E-2,1.241480816E-1
1.517683945E1,1.666832268E-1,1.208734512E-2,1.238393784E-1,2.080038309E-1
1.518683945E1,3.421335816E-1,1.732860804E-1,2.205743790E-1,4.424211907E-1
1.519683945E1,3.610547483E-1,1.624181271E-1,2.311267853E-1,4.584318599E-1
1.520683945E1,2.976617813E-1,4.983496666E-2,2.107791901E-1,3.681221630E-1
1.521683945E1,2.055988908E-1,-9.604680538E-2,1.932678223E-1,2.980743931E-1
1.522683945E1,1.237761974E-2,-2.551245689E-1,6.630134583E-2,2.638894079E-1
1.523683995E1,1.725077629E-3,-2.554532290E-1,6.691741943E-2,2.640781496E-1
1.524683995E1,-1.906657219E-1,-8.951640129E-2,-1.185569763E-1,2.417071787E-1
1.525684045E1,-2.233274579E-1,-8.194339275E-2,-1.383743286E-1,2.752041567E-1
1.526684045E1,-2.419486940E-1,7.062256336E-2,-5.264949799E-2,2.574853134E-1
1.527684045E1,-2.127240896E-1,1.021399498E-1,-6.296253204E-2,2.442301949E-1
1.528683995E1,-1.906220615E-1,1.350140572E-2,-3.073596954E-2,1.935555685E-1
1.529683995E1,-1.988393068E-1,-6.573617458E-2,5.125713348E-2,2.156052140E-1
1.530683995E1,-1.943818629E-1,-7.603263855E-2,2.744007111E-2,2.105189498E-1
1.531683995E1,-2.168653309E-1,-8.685314655E-2,3.422260284E-2,2.361042722E-1
1.532683995E1,-1.938943863E-1,-1.322733164E-1,-2.636432648E-2,2.361913228E-1
1.533683995E1,-1.656663120E-1,-1.597803831E-1,-8.235454559E-2,2.444532040E-1
1.534683995E1,-2.189906240E-1,-1.962603331E-1,-4.489994049E-2,2.974743962E-1
1.535683995E1,-1.857095957E-1,-1.394811869E-1,-3.590488434E-2,2.350153530E-1
1.536683995E1,-3.867024183E-2,-8.298742771E-2,1.050281525E-1,1.393313087E-1
1.537683995E1,5.253314972E-3,1.556539536E-2,1.002140045E-1,1.015515906E-1
1.538683995E1,1.131286025E-1,1.654406786E-1,1.770448685E-1,2.674202391E-1
1.539683995E1,9.985524416E-2,1.316808462E-1,2.684288025E-1,3.152220440E-1
1.540683995E1,2.662992477E-2,9.490573406E-2,4.555368423E-1,4.660794632E-1
1.541683995E1,-2.881228924E-3,1.227267981E-1,4.892358780E-1,5.044025305E-1
1.542683995E1,-7.888311148E-2,9.812796116E-2,4.029521942E-1,4.221636091E-1
1.543683995E1,-7.174825668E-2,7.410407066E-2,3.116950989E-1,3.283185348E-1
1.544683995E1,4.725688696E-2,1.844202280E-1,1.438236237E-1,2.385985511E-1
1.545683995E1,1.329510808E-1,2.459040880E-1,1.931953430E-2,2.802107328E-1
1.546683995E1,2.748293877E-1,2.813811302E-1,-2.149467468E-1,4.482283310E-1
1.547683995E1,2.836791277E-1,1.773881912E-1,-3.984193802E-1,5.202676430E-1
1.548684045E1,-1.111429930E-2,-1.720904112E-1,-4.112434387E-1,4.459369946E-1
1.549684045E1,-2.183266282E-1,-3.454415798E-1,-2.748975754E-1,4.925089630E-1
1.550684045E1,-5.791282654E-1,-4.085979462E-1,2.091541290E-1,7.389771844E-1
1.551684045E1,-6.342984438E-1,-2.402843237E-1,3.317251205E-1,7.550580293E-1
1.552684045E1,-6.231575012E-1,2.342808247E-2,3.813409805E-1,7.309549164E-1
1.553683995E1,-5.468305945E-1,1.082627773E-1,3.558158875E-1,6.613240309E-1
1.554683995E1,-4.689461291E-1,1.895484924E-1,2.050313950E-1,5.457810696E-1
1.555683945E1,-3.930929899E-1,2.258589268E-1,1.783161163E-1,4.871662867E-1
1.556683945E1,-6.944009662E-2,1.294559240E-1,2.234525681E-1,2.674169281E-1
1.557683945E1,-5.937442183E-2,1.264443398E-1,2.233724594E-1,2.634554016E-1
1.558683945E1,4.687142968E-1,-8.867800236E-2,-2.288055420E-2,4.775776376E-1
1.559683945E1,6.299502850E-1,-1.053730249E-1,-4.096794128E-2,6.400150062E-1
1.560683945E1,6.369007826E-1,-8.664381504E-2,-2.224159241E-2,6.431519618E-1
1.561683992E1,5.644677877E-1,-5.121684074E-2,2.590751648E-2,5.673783989E-1
1.562683992E1,4.988648295E-1,9.534144402E-2,1.030635834E-1,5.182453196E-1
1.563683992E1,4.174097776E-1,1.820489168E-1,1.489410400E-1,4.791201979E-1
1.564683992E1,2.168567777E-1,3.576588631E-1,1.077585220E-1,4.319243260E-1
1.565683992E1,2.188071012E-1,3.495832682E-1,1.089649200E-1,4.265657777E-1
1.566683992E1,4.614812136E-2,1.629676819E-1,-7.714653015E-2,1.861174402E-1
1.567683992E1,6.670433283E-2,1.984083652E-2,-1.390352249E-1,1.554796468E-1
1.568683992E1,1.401947737E-1,-2.199684381E-1,-2.870979309E-1,3.878993559E-1
1.569683992E1,2.144955397E-1,-2.491853237E-1,-3.918085098E-1,5.114836952E-1
1.570683992E1,2.068704963E-1,-2.485036850E-1,-3.117742538E-1,4.491688647E-1
1.571683992E1,7.688635588E-2,-2.159179449E-1,-1.642532349E-1,2.819772966E-1
1.572683992E1,-1.672033370E-1,1.334791183E-1,-1.146554947E-1,2.427334204E-1
1.573683998E1,-3.273263276E-1,2.573306561E-1,-4.851436615E-2,4.191840109E-1
1.574683998E1,-5.648708344E-1,3.174581528E-1,1.004409790E-2,6.480429169E-1
1.575683998E1,-5.871958733E-1,3.418449163E-1,6.324958801E-2,6.823909809E-1
1.576683998E1,-5.616298318E-1,2.572859526E-1,1.872873306E-1,6.455235655E-1
1.577683998E1,-4.563519955E-1,1.818262339E-1,2.411327362E-1,5.472320528E-1
1.578683948E1,-3.386955261E-1,-4.118931293E-2,2.104597092E-1,4.008796679E-1
1.579683948E1,-2.945897281E-1,-1.910837889E-1,1.602363586E-1,3.859686683E-1
1.580683948E1,-2.274776995E-1,-3.590345383E-1,5.986690521E-2,4.292271541E-1
1.581683948E1,-1.518394649E-1,-3.773803711E-1,-7.096004486E-2,4.129243218E-1
1.582683948E1,-1.498191655E-1,-3.742167950E-1,-7.159900665E-2,4.094025033E-1
1.583683948E1,-5.818623304E-2,-2.965244055E-1,-2.510004044E-1,3.928276515E-1
1.584683948E1,9.849190712E-3,-1.427519321E-1,-2.765626907E-1,3.113872871E-1
1.585683948E1,5.722701550E-2,-2.819299698E-2,-3.858346939E-1,3.910731228E-1
1.586683948E1,2.245087028E-1,1.475069523E-1,-2.536563873E-1,3.694645063E-1
1.587683948E1,3.120998144E-1,1.900455952E-1,-1.722497940E-1,4.039722935E-1
1.588683948E1,3.172638416E-1,2.129129171E-1,-4.118919373E-2,3.842978079E-1
1.589683948E1,2.777194381E-1,2.073984146E-1,8.142471313E-2,3.560508006E-1
1.590683948E1,2.769795656E-1,2.227735519E-1,7.901477814E-2,3.641278215E-1
1.591683901E1,1.850085258E-1,4.181623459E-2,5.026044846E-1,5.372038905E-1
1.592683901E1,1.276357174E-1,-1.154470444E-2,6.508626938E-1,6.633599345E-1
1.593683901E1,1.221079230E-1,5.512833595E-3,6.485910416E-1,6.600083904E-1
