"Time (s)","Gyroscope x (rad/s)","Gyroscope y (rad/s)","Gyroscope z (rad/s)","Absolute (rad/s)"
0.000000000E0,-7.536696792E-1,3.935664296E-1,1.029681206E0,1.335348608E0
1.972000000E-3,-7.353436947E-1,4.094489217E-1,1.014409542E0,1.318106782E0
3.972000000E-3,-7.292350531E-1,4.125032425E-1,1.008911729E0,1.311428825E0
5.972000000E-3,-7.249589562E-1,4.131141007E-1,1.003414035E0,1.305016657E0
7.972000000E-3,-7.151851058E-1,4.137249887E-1,9.905858040E-1,1.289929586E0
9.971600000E-3,-7.035787106E-1,4.167793095E-1,9.734815955E-1,1.271375008E0
1.197126600E-2,-7.005243301E-1,4.137249887E-1,9.655403495E-1,1.262604796E0
1.397098000E-2,-6.889179945E-1,4.125032425E-1,9.496578574E-1,1.243630562E0
1.597073000E-2,-6.754788756E-1,4.015076756E-1,9.374405742E-1,1.223223183E0
1.797050700E-2,-6.718137264E-1,3.972316384E-1,9.270557761E-1,1.211841190E0
1.997030700E-2,-6.657050848E-1,3.837925792E-1,9.123950005E-1,1.192864050E0
2.196776100E-2,-6.553203464E-1,3.721861541E-1,8.897930384E-1,1.166061294E0
2.396742700E-2,-6.522660255E-1,3.648557663E-1,8.836843967E-1,1.157354229E0
2.596735000E-2,-6.449356675E-1,3.526384532E-1,8.635258079E-1,1.134007370E0
2.796706400E-2,-6.394378543E-1,3.373668194E-1,8.451998830E-1,1.112231982E0
2.996679700E-2,-6.382161379E-1,3.324798942E-1,8.342042565E-1,1.101707520E0
3.196654700E-2,-6.333292127E-1,3.153756857E-1,8.171001077E-1,1.080842403E0
3.396631100E-2,-6.266096830E-1,3.062126935E-1,7.981632948E-1,1.059938939E0
3.596608800E-2,-6.253879666E-1,2.982714474E-1,7.890002728E-1,1.050046378E0
3.796587700E-2,-6.174467206E-1,2.891084552E-1,7.700634599E-1,1.028504683E0
3.996557700E-2,-6.156141162E-1,2.732259929E-1,7.505157590E-1,1.008418112E0
4.196405300E-2,-6.088945866E-1,2.567326128E-1,7.328006625E-1,9.867426529E-1
4.396378000E-2,-6.107271910E-1,2.567326128E-1,7.242485285E-1,9.815473841E-1
4.596351900E-2,-6.040076613E-1,2.408501059E-1,7.065334320E-1,9.602205575E-1
4.796326900E-2,-6.009533405E-1,2.341306061E-1,6.998139620E-1,9.516835816E-1
4.996302900E-2,-5.972881317E-1,2.261893451E-1,6.857640147E-1,9.371163300E-1
5.196279800E-2,-5.893469453E-1,2.182481140E-1,6.698815227E-1,9.185332414E-1
5.396257500E-2,-5.887359977E-1,2.151937783E-1,6.637728810E-1,9.129692628E-1
5.596228900E-2,-5.801839232E-1,2.121394575E-1,6.485012770E-1,8.956396823E-1
5.796201300E-2,-5.734643936E-1,2.090851218E-1,6.344513297E-1,8.804013225E-1
5.996174600E-2,-5.661340356E-1,2.127503157E-1,6.265101433E-1,8.707958444E-1
6.196241200E-2,-5.539167523E-1,2.139720470E-1,6.179580092E-1,8.570180317E-1
6.396214500E-2,-5.435319543E-1,2.231350243E-1,6.032972336E-1,8.421304985E-1
6.596187800E-2,-5.368124843E-1,2.286328077E-1,5.977994204E-1,8.353470842E-1
6.796161100E-2,-5.227625966E-1,2.414609790E-1,5.880256295E-1,8.230177870E-1
6.996141100E-2,-5.074909925E-1,2.549000382E-1,5.758082867E-1,8.087498501E-1
7.196101100E-2,-5.007714629E-1,2.573434711E-1,5.715322495E-1,8.022760325E-1
7.396074400E-2,-4.854998291E-1,2.652847171E-1,5.525953770E-1,7.819512234E-1
7.596047700E-2,-4.726716280E-1,2.738368511E-1,5.379346609E-1,7.666673257E-1
7.796021000E-2,-4.653412402E-1,2.762803137E-1,5.299934149E-1,7.574736308E-1
7.995994300E-2,-4.457935691E-1,2.836107016E-1,5.116674304E-1,7.355069650E-1
8.195967600E-2,-4.305219352E-1,2.903302014E-1,4.945632219E-1,7.171007900E-1
8.395947600E-2,-4.164720476E-1,2.958280146E-1,4.854002297E-1,7.046818882E-1
8.595917600E-2,-3.987569511E-1,3.049909770E-1,4.664634168E-1,6.852844091E-1
8.795890900E-2,-3.877613842E-1,3.129322231E-1,4.566895664E-1,6.759074104E-1
8.995864200E-2,-3.663811088E-1,3.245386779E-1,4.383636117E-1,6.570564104E-1
9.195837500E-2,-3.437790871E-1,3.453080654E-1,4.200376570E-1,6.433143509E-1
9.395810800E-2,-3.303400278E-1,3.575253785E-1,4.072095156E-1,6.346404650E-1
9.595784100E-2,-3.071271777E-1,3.844034374E-1,3.919378519E-1,6.290535635E-1
9.795757400E-2,-2.796382010E-1,4.112815261E-1,3.748336434E-1,6.227762659E-1
9.995737400E-2,-2.661992013E-1,4.253314137E-1,3.650597930E-1,6.205138828E-1
1.019570400E-1,-2.203842998E-1,4.699245989E-1,3.363491297E-1,6.184893736E-1
1.039567730E-1,-2.038909346E-1,4.833636284E-1,3.284078538E-1,6.189213431E-1
1.059565060E-1,-1.880084425E-1,4.919157326E-1,3.174122870E-1,6.148811449E-1
1.079562390E-1,-1.592977792E-1,5.139068365E-1,2.990863323E-1,6.155718100E-1
1.099559720E-1,-1.226458624E-1,5.285676122E-1,2.819821239E-1,6.115060477E-1
1.119557050E-1,-1.067633554E-1,5.304002762E-1,2.734299898E-1,6.062069171E-1
1.139554380E-1,-7.683096081E-2,5.383414626E-1,2.544931769E-1,6.004009527E-1
1.159552380E-1,-4.262251407E-2,5.438392758E-1,2.379998118E-1,5.951653107E-1
1.179549710E-1,-2.674001455E-2,5.450610518E-1,2.288368344E-1,5.917540667E-1
1.199547040E-1,4.414112307E-3,5.426175594E-1,2.117326260E-1,5.824809053E-1
1.219535700E-1,3.251391277E-2,5.395632386E-1,1.927957982E-1,5.738953413E-1
1.239533030E-1,4.534208402E-2,5.401740670E-1,1.879088730E-1,5.737191576E-1
1.259530360E-1,7.099842280E-2,5.407849550E-1,1.732481122E-1,5.722796974E-1
1.279527690E-1,9.787649661E-2,5.426175594E-1,1.579764783E-1,5.735592316E-1
1.299521020E-1,1.070394740E-1,5.462827086E-1,1.475917697E-1,5.759041389E-1
1.319520350E-1,1.326958090E-1,5.481153727E-1,1.329309940E-1,5.794042532E-1
1.339517680E-1,1.522434950E-1,5.523914099E-1,1.164376363E-1,5.846982766E-1
1.359515010E-1,1.626282036E-1,5.523914099E-1,1.066637859E-1,5.856290341E-1
1.379512340E-1,1.791215688E-1,5.530022383E-1,9.200303257E-2,5.885240606E-1
1.399509670E-1,1.956149340E-1,5.542240143E-1,7.428793609E-2,5.924087760E-1
1.419509330E-1,2.072213739E-1,5.499479175E-1,5.718370900E-2,5.904687852E-1
1.439506660E-1,2.133300304E-1,5.468935966E-1,4.740986228E-2,5.889397278E-1
1.459503990E-1,2.206604183E-1,5.438392758E-1,3.274909407E-2,5.878134749E-1
1.479501990E-1,2.231038660E-1,5.426175594E-1,2.725131065E-2,5.873259612E-1
1.499499320E-1,2.224930078E-1,5.316219330E-1,1.136881392E-2,5.764150137E-1
1.519496650E-1,2.261582017E-1,5.291785002E-1,-3.902818076E-3,5.754933963E-1
1.539493980E-1,2.224930078E-1,5.242915750E-1,-1.062233560E-2,5.696469328E-1
1.559491310E-1,2.218821347E-1,5.157395005E-1,-2.161790989E-2,5.618596338E-1
1.579488640E-1,2.133300304E-1,5.102416873E-1,-3.383521736E-2,5.540768027E-1
1.599485970E-1,2.084431052E-1,5.065764785E-1,-3.627867624E-2,5.489848805E-1
1.619484630E-1,1.962257922E-1,5.004678369E-1,-4.666338488E-2,5.395832547E-1
1.639482630E-1,1.797324419E-1,4.992461205E-1,-4.971771315E-2,5.329374170E-1
1.659479960E-1,1.730129272E-1,5.004678369E-1,-5.093944073E-2,5.319740175E-1
1.679477290E-1,1.528543681E-1,5.016895533E-1,-5.032857507E-2,5.268679447E-1
1.699474620E-1,1.290306300E-1,5.023004413E-1,-4.666338488E-2,5.207034744E-1
1.719471950E-1,1.155915856E-1,5.029113293E-1,-4.360905662E-2,5.178638524E-1
1.739469280E-1,8.749178052E-2,5.059656501E-1,-3.200262040E-2,5.144708140E-1
1.759466610E-1,5.755938590E-2,5.108525753E-1,-1.734185405E-2,5.143774650E-1
1.779464610E-1,4.412035272E-2,5.145177841E-1,-1.306579728E-2,5.165712640E-1
1.799461940E-1,9.911899455E-3,5.157395005E-1,2.205834491E-3,5.158394555E-1
1.819458600E-1,-3.895732015E-2,5.187938213E-1,3.091650084E-2,5.211722670E-1
1.839455930E-1,-3.895732015E-2,5.187938213E-1,3.091650084E-2,5.211722670E-1
1.859453260E-1,-6.950058043E-2,5.181829333E-1,5.290764943E-2,5.254931992E-1
1.879450590E-1,-9.454605728E-2,5.175721049E-1,7.123360783E-2,5.309369714E-1
1.899451920E-1,-1.092068255E-1,5.151286125E-1,8.100745082E-2,5.327718323E-1
1.919449250E-1,-1.330305636E-1,5.163503289E-1,9.994427860E-2,5.424976054E-1
1.939447250E-1,-1.513565183E-1,5.126851797E-1,1.170485020E-1,5.472250368E-1
1.959444580E-1,-1.592977792E-1,5.096307993E-1,1.262114793E-1,5.486607983E-1
1.979441910E-1,-1.721259505E-1,5.059656501E-1,1.396505088E-1,5.523865010E-1
1.999439240E-1,-1.776237339E-1,5.041330457E-1,1.518678069E-1,5.556655013E-1
2.019434240E-1,-1.806780547E-1,5.071873665E-1,1.683611721E-1,5.641179561E-1
2.039431570E-1,-1.818997860E-1,5.065764785E-1,1.726372391E-1,5.652529319E-1
2.059428900E-1,-1.751802713E-1,5.090199709E-1,1.836328059E-1,5.687798042E-1
2.079426230E-1,-1.709042192E-1,5.151286125E-1,1.885197312E-1,5.745480211E-1
2.099424230E-1,-1.586869061E-1,5.255132914E-1,1.946283877E-1,5.824310799E-1
2.119421560E-1,-1.464696079E-1,5.395632386E-1,2.007370442E-1,5.940346753E-1
2.139418890E-1,-1.409718096E-1,5.450610518E-1,2.025696337E-1,5.983302248E-1
2.159416220E-1,-1.250893176E-1,5.658304691E-1,2.105108798E-1,6.165438246E-1
2.179413550E-1,-1.067633554E-1,5.835455060E-1,2.184521258E-1,6.321748990E-1
2.199410880E-1,-9.515692294E-2,5.920976400E-1,2.245607972E-1,6.403608412E-1
2.219407540E-1,-7.622010261E-2,6.171431541E-1,2.355563492E-1,6.649526076E-1
2.239404870E-1,-5.545068532E-2,6.495189667E-1,2.459410727E-1,6.967328597E-1
2.259402870E-1,-4.934202880E-2,6.635688543E-1,2.526605725E-1,7.117553127E-1
2.279400200E-1,-3.590299189E-2,6.971664429E-1,2.648778856E-1,7.466527762E-1
2.299397530E-1,-2.490741946E-2,7.307640314E-1,2.746517360E-1,7.810697954E-1
2.319394860E-1,-1.940963231E-2,7.472574115E-1,2.825929821E-1,7.991427697E-1
2.339392190E-1,-2.063136362E-2,7.686377168E-1,2.911450863E-1,8.221891839E-1
2.359389520E-1,-2.185309492E-2,7.961266637E-1,3.015298247E-1,8.515958300E-1
2.379386850E-1,-2.918347530E-2,8.028461337E-1,3.033623993E-1,8.587446273E-1
2.399384850E-1,-4.140077904E-2,8.126199841E-1,3.094710410E-1,8.705386771E-1
2.419383510E-1,-6.033760309E-2,8.132308125E-1,3.064167202E-1,8.711349994E-1
2.439385170E-1,-7.072231174E-2,8.126199841E-1,3.021406531E-1,8.698516300E-1
2.459385170E-1,-9.760037810E-2,7.967374921E-1,2.972537577E-1,8.559651053E-1
2.479382500E-1,-1.244784519E-1,7.808550000E-1,2.874798775E-1,8.413525397E-1
2.499379830E-1,-1.391392201E-1,7.680267692E-1,2.801495492E-1,8.292819850E-1
2.519377160E-1,-1.690716296E-1,7.356509566E-1,2.673213482E-1,8.007672878E-1
2.539374490E-1,-1.959496886E-1,6.928904057E-1,2.508279979E-1,7.625011995E-1
2.559372490E-1,-2.130539119E-1,6.660123467E-1,2.428867370E-1,7.402421107E-1
2.579370490E-1,-2.387102544E-1,6.116453409E-1,2.257825136E-1,6.943128633E-1
2.599367820E-1,-2.631448805E-1,5.487262011E-1,2.056239694E-1,6.423604040E-1
2.619374480E-1,-2.851360142E-1,4.821418822E-1,1.885197312E-1,5.910186378E-1
2.639371810E-1,-2.936881483E-1,4.515986443E-1,1.775241494E-1,5.671938712E-1
2.659364810E-1,-3.107923567E-1,3.874577582E-1,1.616416574E-1,5.223441670E-1
2.679362140E-1,-3.193444908E-1,3.581362367E-1,1.506460905E-1,5.029281384E-1
2.699359470E-1,-3.315617740E-1,2.994931936E-1,1.384287924E-1,4.677519787E-1
2.719357470E-1,-3.425573409E-1,2.542891502E-1,1.219354272E-1,4.437079581E-1
2.739354800E-1,-3.474442661E-1,2.310762852E-1,1.152159050E-1,4.328839018E-1
2.759352130E-1,-3.511094749E-1,1.913700253E-1,1.054420620E-1,4.135436838E-1
2.779349460E-1,-3.559963703E-1,1.608267725E-1,9.200303257E-2,4.013268299E-1
2.799346790E-1,-3.541637957E-1,1.479986012E-1,8.772696555E-2,3.937405245E-1
2.819344790E-1,-3.523311913E-1,1.241748556E-1,7.978571951E-2,3.819979374E-1
2.839342120E-1,-3.474442661E-1,1.064597592E-1,7.245533913E-2,3.705414613E-1
2.859339450E-1,-3.388921618E-1,1.076814979E-1,6.879014522E-2,3.621812895E-1
2.879337450E-1,-3.260639906E-1,9.668592364E-2,6.329236180E-2,3.459361456E-1
2.899334780E-1,-3.120141029E-1,9.424245358E-2,5.718370900E-2,3.309145162E-1
2.919332110E-1,-3.028511107E-1,1.021837071E-1,5.351851508E-2,3.240748937E-1
2.939329440E-1,-2.839142680E-1,1.119575500E-1,5.046418682E-2,3.093354793E-1
2.959326770E-1,-2.619231343E-1,1.168444753E-1,5.046418682E-2,2.912095360E-1
2.979324100E-1,-2.490949780E-1,1.168444753E-1,4.985332489E-2,2.796181208E-1
2.999321430E-1,-2.301581353E-1,1.192879304E-1,5.412938073E-2,2.648251639E-1
3.019318760E-1,-2.014474720E-1,1.272291839E-1,6.451409310E-2,2.468408747E-1
3.039312420E-1,-2.014474720E-1,1.272291839E-1,6.451409310E-2,2.468408747E-1
3.059307080E-1,-1.880084425E-1,1.333378255E-1,7.367707044E-2,2.419802903E-1
3.079304410E-1,-1.782345921E-1,1.406682134E-1,8.772696555E-2,2.434155635E-1
3.099301740E-1,-1.727368236E-1,1.467768699E-1,9.566821903E-2,2.460363142E-1
3.119299070E-1,-1.660172939E-1,1.565507054E-1,1.109398529E-1,2.537272477E-1
3.139296400E-1,-1.635738313E-1,1.638810933E-1,1.280440688E-1,2.645915618E-1
3.159293730E-1,-1.623521000E-1,1.687680185E-1,1.384287924E-1,2.720356208E-1
3.179291060E-1,-1.635738313E-1,1.742658019E-1,1.579764783E-1,2.864987534E-1
3.199289060E-1,-1.666281521E-1,1.583832949E-1,1.909631938E-1,2.988597507E-1
3.219276390E-1,-1.806780547E-1,1.144010052E-1,2.404432893E-1,3.217842830E-1
3.239273720E-1,-1.873975694E-1,9.668592364E-2,2.618235648E-1,3.361808976E-1
3.259275380E-1,-2.032800764E-1,7.469476759E-2,3.051950037E-1,3.742273214E-1
3.279272710E-1,-2.087778598E-1,6.797525287E-2,3.247426748E-1,3.920033604E-1
3.299270040E-1,-2.154973745E-1,7.530563325E-2,3.607837260E-1,4.269367093E-1
3.319267370E-1,-2.191625684E-1,9.424245358E-2,3.913269937E-1,4.583128707E-1
3.339265370E-1,-2.197734416E-1,1.089032218E-1,4.059877694E-1,4.743272564E-1
3.359263370E-1,-2.179408371E-1,1.431116760E-1,4.316441119E-1,5.042775026E-1
3.379256700E-1,-2.136647850E-1,1.785418540E-1,4.487483203E-1,5.281144658E-1
3.399254030E-1,-2.112213075E-1,2.035873383E-1,4.585222006E-1,5.443389142E-1
3.419251360E-1,-2.002257407E-1,2.487913668E-1,4.707394838E-1,5.688436983E-1
3.439248690E-1,-1.843432486E-1,2.927736640E-1,4.774589837E-1,5.896320316E-1
3.459246020E-1,-1.770128608E-1,3.141539395E-1,4.786807299E-1,5.993008357E-1
3.479243350E-1,-1.599086523E-1,3.550819159E-1,4.792915881E-1,6.175551558E-1
3.499241350E-1,-1.403609514E-1,3.850143254E-1,4.762372673E-1,6.282827088E-1
3.519239010E-1,-1.305871159E-1,4.021185338E-1,4.731829464E-1,6.345505582E-1
3.539236670E-1,-1.073742285E-1,4.241096675E-1,4.634090960E-1,6.372960264E-1
3.559234330E-1,-8.599394560E-2,4.375487268E-1,4.493591785E-1,6.330620178E-1
3.579231990E-1,-7.438750565E-2,4.375487268E-1,4.420288205E-1,6.263959351E-1
3.599229650E-1,-5.117462575E-2,4.424356520E-1,4.243137240E-1,6.151506197E-1
3.619236980E-1,-2.857261151E-2,4.406030476E-1,4.059877694E-1,5.998112274E-1
3.639234640E-1,-1.330097951E-2,4.406030476E-1,3.956030607E-1,5.922919409E-1
3.659232970E-1,9.301033802E-3,4.344943762E-1,3.736118972E-1,5.731123118E-1
3.679230630E-1,3.434650972E-2,4.198336303E-1,3.528425097E-1,5.494886683E-1
3.699228290E-1,4.412035272E-2,4.100597799E-1,3.418469131E-1,5.356817531E-1
3.719225950E-1,6.916582584E-2,3.935664296E-1,3.192448914E-1,5.114643161E-1
3.739223610E-1,9.237870574E-2,3.666883409E-1,2.948102653E-1,4.794864515E-1
3.759221270E-1,1.052068770E-1,3.508058488E-1,2.838146985E-1,4.633400626E-1
3.779218930E-1,1.296414882E-1,3.214843273E-1,2.624344230E-1,4.347768560E-1
3.799216590E-1,1.528543681E-1,2.884976268E-1,2.392215431E-1,4.047496574E-1
3.819215590E-1,1.730129272E-1,2.628412843E-1,2.196738571E-1,3.837650547E-1
3.839213250E-1,1.833976358E-1,2.542891502E-1,2.105108798E-1,3.776406960E-1
3.859210910E-1,2.035561800E-1,2.414609790E-1,1.940175146E-1,3.706498600E-1
3.879208570E-1,2.127191573E-1,2.341306061E-1,1.879088730E-1,3.679352187E-1
3.899206230E-1,2.292125225E-1,2.255784869E-1,1.769133061E-1,3.670454360E-1
3.919203890E-1,2.426515520E-1,2.280219495E-1,1.610307992E-1,3.698711984E-1
3.939201550E-1,2.463167459E-1,2.243567556E-1,1.543112844E-1,3.671782477E-1
3.959199210E-1,2.621992528E-1,2.261893451E-1,1.433157027E-1,3.747658718E-1
3.979201540E-1,2.713622153E-1,2.237458974E-1,1.298766583E-1,3.749234920E-1
3.999199200E-1,2.750273943E-1,2.206915617E-1,1.274332106E-1,3.749454043E-1
4.019196200E-1,2.860229909E-1,2.127503157E-1,1.158267707E-1,3.748168739E-1
4.039193860E-1,2.921316624E-1,1.925917715E-1,1.066637859E-1,3.658000298E-1
4.059191520E-1,2.964076698E-1,1.767092645E-1,1.042203307E-1,3.604796086E-1
4.079189180E-1,2.988511622E-1,1.583832949E-1,9.322475642E-2,3.508391946E-1
4.099186840E-1,3.031272292E-1,1.492203325E-1,9.322475642E-2,3.504906275E-1
4.119184840E-1,3.074032664E-1,1.302835047E-1,8.467264473E-2,3.444416011E-1
4.139182840E-1,3.074032664E-1,1.107358187E-1,8.222918212E-2,3.369285208E-1
4.159180170E-1,3.110684454E-1,1.009619758E-1,7.978571951E-2,3.366343110E-1
4.179177500E-1,3.092358708E-1,8.630120754E-2,7.734226435E-2,3.302371089E-1
4.199174830E-1,3.092358708E-1,6.431005895E-2,7.856398821E-2,3.254764319E-1
4.219162490E-1,3.074032664E-1,4.537323862E-2,8.528351039E-2,3.222247292E-1
4.239159820E-1,3.074032664E-1,4.292977601E-2,8.650524169E-2,3.222155966E-1
4.259157150E-1,3.061815500E-1,2.338209003E-2,9.017043561E-2,3.200383901E-1
4.279155150E-1,3.049598038E-1,1.605170593E-2,9.322475642E-2,3.192945261E-1
4.299152480E-1,3.061815500E-1,-4.416555748E-4,9.750081599E-2,3.213312088E-1
4.319149810E-1,3.049598038E-1,-7.161173504E-3,1.036094651E-1,3.221594102E-1
4.339147140E-1,3.074032664E-1,-1.326982584E-2,1.042203307E-1,3.248610993E-1
4.359144470E-1,3.074032664E-1,-2.121107467E-2,1.084963828E-1,3.266774296E-1
4.379137470E-1,3.122901917E-1,-2.854145691E-2,1.091072559E-1,3.320303779E-1
4.399134800E-1,3.135119379E-1,-3.098491952E-2,1.121615767E-1,3.344099576E-1
4.419135800E-1,3.202314377E-1,-3.953703493E-2,1.103289798E-1,3.410041563E-1
4.439133800E-1,3.232857585E-1,-5.480866134E-2,1.072746590E-1,3.450007586E-1
4.459134130E-1,3.232857585E-1,-7.191288471E-2,1.011660025E-1,3.462942458E-1
4.479131460E-1,3.324487507E-1,-8.229760081E-2,9.383562207E-2,3.551058869E-1
4.499128790E-1,3.379465342E-1,-8.657365292E-2,8.100745082E-2,3.581411236E-1
4.519126120E-1,3.385573924E-1,-8.596279472E-2,7.550966740E-2,3.573687450E-1
4.539123450E-1,3.452769220E-1,-8.779538423E-2,6.268148869E-2,3.617363009E-1
4.559120780E-1,3.538290262E-1,-8.290845901E-2,5.474024639E-2,3.675122950E-1
4.579118110E-1,3.574942350E-1,-8.046500385E-2,4.802072793E-2,3.695710152E-1
4.599116110E-1,3.648246229E-1,-8.046500385E-2,4.007947817E-2,3.757365924E-1
4.619114110E-1,3.727658689E-1,-7.985413820E-2,3.091650084E-2,3.824747135E-1
4.639111440E-1,3.770419061E-1,-7.924327254E-2,2.847304009E-2,3.863299228E-1
4.659108770E-1,3.862048984E-1,-8.351932466E-2,2.297525294E-2,3.957999032E-1
4.679106100E-1,3.886483312E-1,-9.695836902E-2,1.808833145E-2,4.009683758E-1
4.699103430E-1,3.910918236E-1,-1.122299954E-1,1.503400411E-2,4.071540343E-1
4.719100760E-1,3.935352862E-1,-1.470493227E-1,8.925352246E-3,4.202061241E-1
4.739098090E-1,3.886483312E-1,-1.971402615E-1,3.732386394E-4,4.357888793E-1
4.759096090E-1,3.868157566E-1,-2.160770893E-1,-5.124548450E-3,4.431049526E-1
4.779093420E-1,3.807070851E-1,-2.673897743E-1,-1.123320125E-2,4.653615378E-1
4.799090750E-1,3.697115183E-1,-3.205350339E-1,-1.734185405E-2,4.896223592E-1
4.819087410E-1,3.605485559E-1,-3.712368608E-1,-2.222877555E-2,5.179828051E-1
4.839084740E-1,3.507747054E-1,-3.950605989E-1,-2.589396760E-2,5.289482662E-1
4.859082070E-1,3.287835717E-1,-4.512601793E-1,-3.078088909E-2,5.591796219E-1
4.879079400E-1,3.129010499E-1,-4.818034768E-1,-3.444607928E-2,5.755242737E-1
4.899077400E-1,2.799143493E-1,-5.471660495E-1,-4.299819097E-2,6.161100333E-1
4.919075400E-1,2.402081043E-1,-6.180264354E-1,-5.277203768E-2,6.651627591E-1
4.939072730E-1,2.188278139E-1,-6.559000611E-1,-5.826982483E-2,6.938918322E-1
4.959070060E-1,1.766781211E-1,-7.255386710E-1,-7.231972367E-2,7.502344061E-1
4.979071720E-1,1.320849508E-1,-7.939556241E-1,-8.270443976E-2,8.091056740E-1
4.999069050E-1,1.107046679E-1,-8.275532126E-1,-9.064568579E-2,8.398312233E-1
5.019062710E-1,4.595294967E-2,-9.179612398E-1,-1.150802895E-1,9.262872041E-1
5.039060040E-1,2.518353052E-2,-9.423958659E-1,-1.211889386E-1,9.504898406E-1
5.059055040E-1,5.024977494E-3,-9.662196040E-1,-1.303519309E-1,9.749857432E-1
5.079053040E-1,-3.834645450E-2,-1.013256192E0,-1.474561393E-1,1.024647195E0
5.099050370E-1,-8.171788603E-2,-1.049297214E0,-1.608951837E-1,1.064701703E0
5.119047700E-1,-1.018764451E-1,-1.071899295E0,-1.694473028E-1,1.089981329E0
5.139045030E-1,-1.458587348E-1,-1.119546771E0,-1.853298098E-1,1.144118386E0
5.159042360E-1,-1.898410320E-1,-1.176968098E0,-1.981579661E-1,1.208536346E0
5.179039690E-1,-2.093887180E-1,-1.194683194E0,-2.085426748E-1,1.230691520E0
5.199037020E-1,-2.527601719E-1,-1.231335044E0,-2.201491147E-1,1.276142362E0
5.219035020E-1,-2.900229394E-1,-1.261267543E0,-2.366424650E-1,1.315640063E0
5.239032350E-1,-3.101814985E-1,-1.274095654E0,-2.415294051E-1,1.333367448E0
5.259029680E-1,-3.388921618E-1,-1.302195430E0,-2.561901510E-1,1.369742395E0
5.279027010E-1,-3.712680042E-1,-1.329073668E0,-2.696292102E-1,1.406050019E0
5.299024340E-1,-3.834853172E-1,-1.341290951E0,-2.745161057E-1,1.421788133E0
5.319021670E-1,-4.030330181E-1,-1.349843025E0,-2.855117023E-1,1.437368686E0
5.339019000E-1,-4.170829058E-1,-1.363281965E0,-2.922312021E-1,1.455298919E0
5.359016330E-1,-4.244132936E-1,-1.368168950E0,-2.940638065E-1,1.462356469E0
5.379005660E-1,-4.317436814E-1,-1.368779778E0,-3.001724482E-1,1.466309717E0
5.399002990E-1,-4.329653978E-1,-1.366947293E0,-3.026159406E-1,1.465462502E0
5.419009990E-1,-4.372414649E-1,-1.357784152E0,-3.068919778E-1,1.459088958E0
5.439007320E-1,-4.329653978E-1,-1.352286458E0,-3.068919778E-1,1.452694182E0
5.459007980E-1,-4.293001890E-1,-1.333349586E0,-3.087245822E-1,1.434374650E0
5.479005310E-1,-4.195263684E-1,-1.318078041E0,-3.081136942E-1,1.417133072E0
5.499002640E-1,-4.060873389E-1,-1.285702109E0,-3.136115074E-1,1.384300913E0
5.518999970E-1,-3.834853172E-1,-1.239887238E0,-3.166658282E-1,1.335911149E0
5.538997970E-1,-3.749331832E-1,-1.213619947E0,-3.191092908E-1,1.309686607E0
5.558995630E-1,-3.431681991E-1,-1.159253001E0,-3.276613951E-1,1.252594876E0
5.578993290E-1,-3.150684237E-1,-1.096333861E0,-3.356026709E-1,1.189052228E0
5.598990950E-1,-2.997967899E-1,-1.062125444E0,-3.356026709E-1,1.153524047E0
5.618988610E-1,-2.686426342E-1,-9.875999093E-1,-3.417113125E-1,1.079022274E0
5.638986270E-1,-2.356559336E-1,-9.179612398E-1,-3.478199542E-1,1.009537160E0
5.658983930E-1,-2.173299640E-1,-8.776441813E-1,-3.496525586E-1,9.694062791E-1
5.678981590E-1,-1.873975694E-1,-8.012859821E-1,-3.514851332E-1,8.948289630E-1
5.698979920E-1,-1.537999809E-1,-7.249278426E-1,-3.539285958E-1,8.212431199E-1
5.718977920E-1,-1.366957575E-1,-6.876650453E-1,-3.533177376E-1,7.851129653E-1
5.738975920E-1,-1.024873033E-1,-6.094743013E-1,-3.508742750E-1,7.106865189E-1
5.758973920E-1,-6.950058043E-2,-5.386139750E-1,-3.508742750E-1,6.465663938E-1
5.778971920E-1,-5.361808836E-2,-5.031837225E-1,-3.508742750E-1,6.157771633E-1
5.798969920E-1,-2.185309492E-2,-4.427081048E-1,-3.459873796E-1,5.622946653E-1
5.818967250E-1,9.301033802E-3,-3.797889650E-1,-3.423221707E-1,5.113811062E-1
5.838965910E-1,2.884872258E-2,-3.529108763E-1,-3.374352455E-1,4.891225616E-1
5.858964570E-1,5.755938590E-2,-3.003765047E-1,-3.282722831E-1,4.486667129E-1
5.878963230E-1,8.932437748E-2,-2.582267821E-1,-3.172767162E-1,4.187176018E-1
5.898961890E-1,1.027634218E-1,-2.374573648E-1,-3.117789030E-1,4.051572600E-1
5.918960550E-1,1.326958090E-1,-1.953076571E-1,-2.958963811E-1,3.785603347E-1
5.938959210E-1,1.595738828E-1,-1.562123001E-1,-2.794030309E-1,3.576760552E-1
5.958957870E-1,1.736237854E-1,-1.342211515E-1,-2.702400386E-1,3.481238498E-1
5.978965200E-1,1.986692697E-1,-9.451489896E-2,-2.500815094E-1,3.330815308E-1
5.998964530E-1,2.212712765E-1,-5.725212395E-2,-2.232034504E-1,3.194660604E-1
6.018954190E-1,2.426515520E-1,-1.510242186E-2,-1.920493096E-1,3.098238147E-1
6.038957850E-1,2.536471188E-1,7.800749154E-4,-1.718907654E-1,3.064048052E-1
6.058946510E-1,2.676970363E-1,2.460381947E-2,-1.285193264E-1,2.979668915E-1
6.078945170E-1,2.750273943E-1,3.437766433E-2,-1.095825061E-1,2.980439851E-1
6.098943830E-1,2.860229909E-1,6.431005895E-2,-6.987626851E-2,3.013762232E-1
6.118942490E-1,2.994620502E-1,8.630120754E-2,-2.711569704E-2,3.128269153E-1
6.138941150E-1,3.025163710E-1,9.729678184E-2,-9.400605224E-3,3.179169544E-1
6.158940150E-1,3.080141246E-1,1.266183108E-1,3.030563518E-2,3.343999538E-1
6.178938480E-1,3.171771169E-1,1.486094594E-1,6.817927957E-2,3.568396125E-1
6.198936810E-1,3.165662587E-1,1.583832949E-1,8.467264473E-2,3.639628017E-1
6.218942810E-1,3.159553707E-1,1.785418540E-1,1.188810989E-1,3.818870325E-1
6.238941140E-1,3.165662587E-1,2.011438757E-1,1.488134861E-1,4.035077552E-1
6.258939470E-1,3.153445125E-1,2.109177262E-1,1.628633887E-1,4.128594581E-1
6.278937800E-1,3.061815500E-1,2.371849269E-1,1.897414774E-1,4.312837342E-1
6.298936130E-1,3.000728786E-1,2.628412843E-1,2.086782902E-1,4.501954043E-1
6.318934790E-1,2.951859832E-1,2.701716721E-1,2.227281928E-1,4.579687161E-1
6.338932790E-1,2.848012745E-1,2.946062684E-1,2.404432893E-1,4.750974581E-1
6.358930790E-1,2.707513869E-1,3.196517229E-1,2.593801022E-1,4.927084075E-1
6.378928790E-1,2.615883648E-1,3.349233568E-1,2.667104900E-1,5.017336076E-1
6.398926790E-1,2.463167459E-1,3.581362367E-1,2.832038701E-1,5.187850570E-1
6.418925450E-1,2.273799330E-1,3.880686462E-1,2.984754741E-1,5.398022941E-1
6.438923450E-1,2.151626348E-1,4.045620263E-1,3.082493246E-1,5.522526945E-1
6.458921450E-1,1.962257922E-1,4.369378686E-1,3.235209584E-1,5.780009283E-1
6.478919450E-1,1.736237854E-1,4.650376439E-1,3.406251967E-1,6.020222203E-1
6.498916780E-1,1.632390767E-1,4.796984196E-1,3.461229503E-1,6.136437620E-1
6.518914110E-1,1.412479281E-1,5.065764785E-1,3.595620096E-1,6.370679277E-1
6.538914440E-1,1.180350482E-1,5.267350674E-1,3.705575764E-1,6.547480594E-1
6.558911770E-1,1.088720709E-1,5.389523506E-1,3.748336434E-1,6.654494904E-1
6.578909100E-1,8.871351928E-2,5.615543723E-1,3.870509267E-1,6.877658187E-1
6.598906430E-1,6.916582584E-2,5.804911852E-1,3.962139189E-1,7.062148378E-1
6.618915090E-1,5.206159875E-2,5.920976400E-1,4.059877694E-1,7.198028162E-1
6.638908090E-1,4.595294967E-2,5.994280577E-1,4.096529484E-1,7.274896618E-1
6.658912090E-1,4.412035272E-2,6.146996617E-1,4.261462986E-1,7.492682747E-1
6.678909420E-1,4.350948706E-2,6.208083034E-1,4.359201789E-1,7.598173645E-1
6.698906750E-1,4.412035272E-2,6.214191914E-1,4.573004544E-1,7.728079467E-1
6.718904080E-1,4.961813986E-2,6.122561693E-1,4.756264091E-1,7.768784060E-1
6.738901410E-1,5.206159875E-2,6.085910201E-1,4.866219759E-1,7.809573530E-1
6.758898740E-1,5.633765832E-2,5.927084684E-1,5.000609756E-1,7.775205718E-1
6.778896740E-1,5.939198285E-2,5.731608272E-1,5.147218108E-1,7.726443451E-1
6.798894070E-1,6.183544546E-2,5.658304691E-1,5.208304524E-1,7.715258274E-1
6.818883730E-1,6.977669895E-2,5.420066714E-1,5.354912281E-1,7.651084073E-1
6.838881060E-1,7.588534802E-2,5.194046497E-1,5.513737202E-1,7.612836236E-1
6.858878390E-1,8.260486275E-2,5.059656501E-1,5.568714738E-1,7.569218194E-1
6.878875720E-1,8.321572840E-2,4.650376439E-1,5.709213614E-1,7.410371574E-1
6.898873050E-1,6.061371788E-2,3.899012506E-1,5.898582339E-1,7.096687566E-1
6.918870380E-1,4.534208402E-2,3.483623862E-1,5.923016071E-1,6.886460996E-1
6.938868380E-1,1.418795623E-2,2.836107016E-1,5.904690623E-1,6.552022907E-1
6.958865710E-1,-9.635788389E-3,2.316871285E-1,5.880256295E-1,6.320964443E-1
6.978863040E-1,-1.940963231E-2,2.054199427E-1,5.849712491E-1,6.202946469E-1
6.998860370E-1,-4.445510730E-2,1.669354290E-1,5.806952715E-1,6.058470866E-1
7.018857030E-1,-6.766798347E-2,1.339486986E-1,5.764191747E-1,5.956343465E-1
7.038854360E-1,-8.171788603E-2,1.223422587E-1,5.721431375E-1,5.907564734E-1
7.058851690E-1,-1.055416316E-1,1.082923561E-1,5.660344958E-1,5.858850748E-1
7.078849020E-1,-1.318088323E-1,9.546418488E-2,5.550388694E-1,5.784074043E-1
7.098847020E-1,-1.464696079E-1,9.179899842E-2,5.452650189E-1,5.720090410E-1
7.118844350E-1,-1.721259505E-1,9.851851314E-2,5.238847733E-1,5.601682746E-1
7.138838680E-1,-1.965605468E-1,1.192879304E-1,5.000609756E-1,5.503877162E-1
7.158836010E-1,-2.045018077E-1,1.260074526E-1,4.847893715E-1,5.410356755E-1
7.178833340E-1,-2.271038145E-1,1.565507054E-1,4.505809247E-1,5.283061950E-1
7.198830670E-1,-2.454297841E-1,1.932026148E-1,4.114855230E-1,5.166075540E-1
7.218817330E-1,-2.631448805E-1,2.274110913E-1,3.681141138E-1,5.064277178E-1
7.238814660E-1,-2.692535222E-1,2.451261729E-1,3.436795175E-1,5.006994214E-1
7.258812660E-1,-2.863577604E-1,2.787237465E-1,2.972537577E-1,4.980436631E-1
7.278809990E-1,-2.918555439E-1,2.866650224E-1,2.728191614E-1,4.917182002E-1
7.298807320E-1,-3.040728569E-1,3.147647977E-1,2.257825136E-1,4.924580425E-1
7.318804650E-1,-3.162901402E-1,3.337016404E-1,1.787458956E-1,4.933014623E-1
7.338801980E-1,-3.211770654E-1,3.404211402E-1,1.573656052E-1,4.937663351E-1
7.358799310E-1,-3.321726322E-1,3.465298116E-1,1.139941737E-1,4.933723133E-1
7.378801970E-1,-3.370595574E-1,3.385885656E-1,7.245533913E-2,4.832195548E-1
7.398799970E-1,-3.395030200E-1,3.312581778E-1,5.107505247E-2,4.770775010E-1
7.418802300E-1,-3.450008035E-1,3.074344099E-1,8.925352246E-3,4.621916623E-1
7.438799630E-1,-3.462225199E-1,2.793346345E-1,-1.428752672E-2,4.450865138E-1
7.458796960E-1,-3.468334079E-1,2.646738589E-1,-5.032857507E-2,4.391794962E-1
7.478794290E-1,-3.468334079E-1,2.316871285E-1,-8.881308883E-2,4.264505869E-1
7.498791620E-1,-3.450008035E-1,2.096959800E-1,-1.065281853E-1,4.175478567E-1
7.518788950E-1,-3.468334079E-1,1.706006229E-1,-1.395149082E-1,4.109286981E-1
7.538786280E-1,-3.443899453E-1,1.284509152E-1,-1.663929820E-1,4.034732909E-1
7.558784280E-1,-3.425573409E-1,1.064597592E-1,-1.792211384E-1,4.009980406E-1
7.578777940E-1,-3.382812738E-1,6.858611852E-2,-2.042666227E-1,4.010774601E-1
7.598781600E-1,-3.364486992E-1,2.826900966E-2,-2.293120921E-1,4.081432343E-1
7.618779600E-1,-3.352269530E-1,-1.021549944E-2,-2.513032258E-1,4.190880310E-1
7.638776930E-1,-3.358378410E-1,-3.037405200E-2,-2.580227554E-1,4.246002600E-1
7.658774260E-1,-3.340052068E-1,-6.824769825E-2,-2.726835310E-1,4.365472879E-1
7.678771590E-1,-3.346160948E-1,-9.329317510E-2,-2.818464935E-1,4.473354371E-1
7.698768920E-1,-3.352269530E-1,-1.354428679E-1,-2.965072691E-1,4.675878967E-1
7.718766920E-1,-3.407247663E-1,-1.727056652E-1,-3.032267690E-1,4.877161947E-1
7.738764250E-1,-3.413355947E-1,-1.867555529E-1,-3.099463284E-1,4.974478377E-1
7.758761580E-1,-3.492768407E-1,-2.319595814E-1,-3.136115074E-1,5.235950118E-1
7.778758910E-1,-3.584398627E-1,-2.612811327E-1,-3.136115074E-1,5.432302855E-1
7.798756240E-1,-3.645485044E-1,-2.802179158E-1,-3.136115074E-1,5.565697350E-1
7.818753570E-1,-3.767658174E-1,-3.199241757E-1,-3.105571568E-1,5.837377040E-1
7.838750900E-1,-3.822635710E-1,-3.309197426E-1,-3.099463284E-1,5.930430341E-1
7.858748230E-1,-3.859287798E-1,-3.388609886E-1,-3.050593734E-1,5.973516669E-1
7.878746230E-1,-4.018112719E-1,-3.620738685E-1,-2.965072691E-1,6.168195402E-1
7.898743560E-1,-4.091416597E-1,-3.797889650E-1,-2.879551649E-1,6.281359189E-1
7.918740890E-1,-4.158611894E-1,-3.883410990E-1,-2.787921727E-1,6.336200861E-1
7.938738220E-1,-4.305219352E-1,-4.066670537E-1,-2.671857178E-1,6.497041150E-1
7.958735550E-1,-4.372414649E-1,-4.194951952E-1,-2.555792928E-1,6.576299052E-1
7.978727550E-1,-4.433501065E-1,-4.280473292E-1,-2.464163154E-1,6.637053815E-1
7.998724880E-1,-4.506804943E-1,-4.433189631E-1,-2.305338234E-1,6.728970610E-1
8.018717210E-1,-4.586217403E-1,-4.573688805E-1,-2.146513164E-1,6.823454999E-1
8.038715210E-1,-4.610652030E-1,-4.640883803E-1,-2.060992122E-1,6.858833949E-1
8.058712540E-1,-4.659521282E-1,-4.799708724E-1,-1.877732575E-1,6.947965316E-1
8.078709870E-1,-4.671738446E-1,-4.940207899E-1,-1.737233549E-1,7.017747117E-1
8.098707200E-1,-4.671738446E-1,-5.001294017E-1,-1.663929820E-1,7.043205548E-1
8.118704530E-1,-4.671738446E-1,-5.129575729E-1,-1.529539376E-1,7.104729268E-1
8.138701860E-1,-4.610652030E-1,-5.270075202E-1,-1.382931620E-1,7.137527908E-1
8.158699190E-1,-4.586217403E-1,-5.325053334E-1,-1.327953786E-1,7.152135649E-1
8.178700850E-1,-4.531239569E-1,-5.483877659E-1,-1.193563491E-1,7.213157424E-1
8.198692510E-1,-4.415175319E-1,-5.606051087E-1,-1.071390435E-1,7.215917083E-1
8.218689840E-1,-4.274676144E-1,-5.734332204E-1,-9.370001405E-2,7.213417444E-1
8.238687170E-1,-4.231915474E-1,-5.844288468E-1,-9.003482014E-2,7.271550259E-1
8.258684500E-1,-4.054764807E-1,-5.978678465E-1,-8.087184280E-2,7.269094808E-1
8.278681830E-1,-3.993678391E-1,-6.064199805E-1,-7.659577578E-2,7.301416140E-1
8.298679160E-1,-3.798201382E-1,-6.229133010E-1,-6.926539540E-2,7.328587947E-1
8.318676490E-1,-3.633267581E-1,-6.375740767E-1,-6.254588068E-2,7.364910207E-1
8.338674490E-1,-3.553855419E-1,-6.442936659E-1,-5.826982483E-2,7.381114982E-1
8.358672490E-1,-3.333943784E-1,-6.595652699E-1,-5.643722787E-2,7.411904732E-1
8.378669820E-1,-3.126249313E-1,-6.668956280E-1,-5.216117203E-2,7.383799254E-1
8.398667150E-1,-3.034619689E-1,-6.742259860E-1,-4.971771315E-2,7.410409555E-1
8.418674480E-1,-2.710861266E-1,-6.778912544E-1,-4.666338488E-2,7.315748166E-1
8.438671810E-1,-2.588688135E-1,-6.760585904E-1,-4.605251923E-2,7.253889404E-1
8.458669140E-1,-2.484841049E-1,-6.760585904E-1,-4.421992600E-2,7.216335427E-1
8.478666470E-1,-2.252712250E-1,-6.687282324E-1,-4.605251923E-2,7.071530302E-1
8.498664470E-1,-2.045018077E-1,-6.571217775E-1,-4.849597812E-2,6.899144003E-1
8.518661800E-1,-1.941170990E-1,-6.534566283E-1,-4.971771315E-2,6.834902079E-1
8.538659130E-1,-1.733476669E-1,-6.418501735E-1,-5.277203768E-2,6.669377383E-1
8.558656460E-1,-1.525782645E-1,-6.345197558E-1,-6.376761198E-2,6.557146908E-1
8.578653790E-1,-1.421935409E-1,-6.308546066E-1,-6.743279845E-2,6.501874500E-1
8.598651120E-1,-1.232567206E-1,-6.143612266E-1,-8.453703672E-2,6.322803543E-1
8.618649120E-1,-1.024873033E-1,-5.911483765E-1,-9.919779748E-2,6.081120401E-1
8.638646450E-1,-9.271346033E-2,-5.752658844E-1,-1.083607748E-1,5.926792396E-1
8.658644450E-1,-7.622010261E-2,-5.459443331E-1,-1.285193264E-1,5.660229113E-1
8.678641780E-1,-6.094846874E-2,-5.105141401E-1,-1.468452960E-1,5.346989284E-1
8.698639110E-1,-5.300722271E-2,-4.909664690E-1,-1.596734673E-1,5.189927317E-1
8.718636440E-1,-4.078991711E-2,-4.482058585E-1,-1.810537428E-1,4.851110869E-1
8.738633770E-1,-2.490741946E-2,-4.048344493E-1,-2.024340183E-1,4.533109778E-1
8.758631100E-1,-2.063136362E-2,-3.828432858E-1,-2.140404731E-1,4.390990307E-1
8.778628430E-1,-1.085751876E-2,-3.333632350E-1,-2.372533381E-1,4.093141564E-1
8.798625760E-1,1.380555477E-4,-2.881591916E-1,-2.622988224E-1,3.896619188E-1
8.818623090E-1,5.024977494E-3,-2.399008274E-1,-2.842899859E-1,3.720194262E-1
8.838620420E-1,9.301033802E-3,-2.172988057E-1,-2.910094857E-1,3.633067588E-1
8.858617750E-1,1.296622586E-2,-1.714839190E-1,-3.123897612E-1,3.565981217E-1
8.878615080E-1,1.418795623E-2,-1.464384496E-1,-3.191092908E-1,3.513918854E-1
8.898612410E-1,1.602055132E-2,-1.006235555E-1,-3.319374621E-1,3.472236120E-1
8.918609740E-1,1.235536020E-2,-6.091731787E-2,-3.429329991E-1,3.485206112E-1
8.938607070E-1,1.174449548E-2,-3.526097536E-2,-3.453764915E-1,3.473703938E-1
8.958604400E-1,9.911899455E-3,4.445266444E-3,-3.502633870E-1,3.504317999E-1
8.978602400E-1,6.857573055E-3,4.170804471E-2,-3.502633870E-1,3.528045175E-1
8.998599730E-1,5.024977494E-3,6.247746199E-2,-3.453764915E-1,3.510179548E-1
9.018587060E-1,-1.083674957E-3,1.150118783E-1,-3.380461037E-1,3.570771272E-1
9.038584390E-1,-4.138000775E-3,1.333378255E-1,-3.313266039E-1,3.571742113E-1
9.058577390E-1,-4.138000775E-3,1.510529369E-1,-3.246070743E-1,3.580556737E-1
9.078574720E-1,-9.635788389E-3,1.828179210E-1,-3.093354404E-1,3.594490998E-1
9.098572050E-1,-1.696617156E-2,2.237458974E-1,-2.928420603E-1,3.689262120E-1
9.118566380E-1,-1.879876666E-2,2.402392626E-1,-2.806247771E-1,3.698899328E-1
9.138564380E-1,-2.246395871E-2,2.720042467E-1,-2.592444718E-1,3.764287925E-1
9.158561710E-1,-2.918347530E-2,3.153756857E-1,-2.348098755E-1,3.942704351E-1
9.178559040E-1,-3.040520661E-2,3.330907524E-1,-2.244251668E-1,4.027909897E-1
9.198556370E-1,-3.834645450E-2,3.654666245E-1,-1.981579661E-1,4.174959685E-1
9.218557370E-1,-4.201164469E-2,4.027293921E-1,-1.761668175E-1,4.415775007E-1
9.238554700E-1,-4.567683861E-2,4.204444885E-1,-1.633386463E-1,4.533645938E-1
9.258552030E-1,-5.117462575E-2,4.479334354E-1,-1.401257664E-1,4.721212083E-1
9.278550030E-1,-5.911587179E-2,4.766440988E-1,-1.211889386E-1,4.953494141E-1
9.298548030E-1,-6.217020005E-2,4.888614118E-1,-1.108042374E-1,5.051021607E-1
9.318545360E-1,-7.133317739E-2,5.090199709E-1,-9.247828275E-2,5.222470543E-1
9.338542690E-1,-7.683096081E-2,5.267350674E-1,-7.598491758E-2,5.377048776E-1
9.358540020E-1,-8.110702783E-2,5.377306342E-1,-6.804367155E-2,5.480533972E-1
9.378537350E-1,-8.904827386E-2,5.523914099E-1,-5.032857507E-2,5.617818351E-1
9.398534680E-1,-9.698951989E-2,5.633869767E-1,-3.566781059E-2,5.727862125E-1
9.418532340E-1,-1.073742285E-1,5.707173347E-1,-2.345050685E-2,5.812034303E-1
9.438530340E-1,-1.116502807E-1,5.743825436E-1,-1.673098840E-2,5.853725459E-1
9.458527670E-1,-1.238675937E-1,5.701065063E-1,-5.124548450E-3,5.834302618E-1
9.478525000E-1,-1.269219071E-1,5.701065063E-1,-2.376265766E-4,5.840639139E-1
9.498522330E-1,-1.366957575E-1,5.639978051E-1,1.625573449E-2,5.805544791E-1
9.518519660E-1,-1.446370035E-1,5.621652007E-1,3.641428798E-2,5.816146285E-1
9.538516990E-1,-1.513565183E-1,5.707173347E-1,5.901630223E-2,5.933885706E-1
9.558514320E-1,-1.550217122E-1,5.585000515E-1,1.011660025E-1,5.883779388E-1
9.578511650E-1,-1.568543017E-1,5.291785002E-1,1.347635984E-1,5.681499665E-1
9.598509650E-1,-1.599086523E-1,5.187938213E-1,1.524786800E-1,5.638861179E-1
9.618506310E-1,-1.678498834E-1,4.803093076E-1,1.915740669E-1,5.436646369E-1
9.638503640E-1,-1.660172939E-1,4.644267857E-1,2.025696337E-1,5.331870569E-1
9.658502300E-1,-1.678498834E-1,4.436573684E-1,2.135652155E-1,5.202072137E-1
9.678499630E-1,-1.678498834E-1,4.039511383E-1,2.318911552E-1,4.950995994E-1
9.698496960E-1,-1.666281521E-1,3.703535497E-1,2.398324162E-1,4.716421108E-1
9.718497960E-1,-1.654064357E-1,3.514167070E-1,2.447193265E-1,4.590648535E-1
9.738495290E-1,-1.617412418E-1,3.117104769E-1,2.441084683E-1,4.276828205E-1
9.758493290E-1,-1.605194956E-1,2.781128883E-1,2.422758788E-1,4.022572418E-1
9.778490950E-1,-1.611303687E-1,2.597869337E-1,2.416650057E-1,3.896847721E-1
9.798488610E-1,-1.531891227E-1,2.255784869E-1,2.312802970E-1,3.575515863E-1
9.818482610E-1,-1.470804811E-1,1.993112862E-1,2.202847302E-1,3.314860767E-1
9.838480270E-1,-1.458587348E-1,1.809853166E-1,2.153978050E-1,3.169016721E-1
9.858477930E-1,-1.397500932E-1,1.620484889E-1,1.995152980E-1,2.925682065E-1
9.878475590E-1,-1.305871159E-1,1.400573552E-1,1.836328059E-1,2.653112606E-1
9.898473250E-1,-1.287545115E-1,1.333378255E-1,1.769133061E-1,2.562323512E-1
9.918471580E-1,-1.208132654E-1,1.186770722E-1,1.653068513E-1,2.366568141E-1
9.938469240E-1,-1.128720194E-1,1.076814979E-1,1.469808966E-1,2.143333425E-1
9.958466900E-1,-1.043199003E-1,9.974024445E-2,1.378179193E-1,1.995608599E-1
9.978464560E-1,-9.821125120E-2,9.057725966E-2,1.249897480E-1,1.829538929E-1
9.998462220E-1,-8.782653511E-2,8.752293885E-2,1.121615767E-1,1.671944508E-1
1.001845955E0,-7.927443087E-2,8.263601363E-2,1.036094651E-1,1.544281949E-1
1.003845755E0,-7.194404304E-2,8.019255847E-2,9.811168164E-2,1.457144256E-1
1.005845588E0,-6.644625962E-2,7.958168536E-2,9.322475642E-2,1.394245505E-1
1.007844988E0,-6.033760309E-2,8.080342412E-2,9.261389077E-2,1.369202412E-1
1.009844754E0,-5.361808836E-2,7.286217809E-2,9.261389077E-2,1.294647796E-1
1.011844520E0,-4.750943556E-2,7.041871548E-2,9.627908468E-2,1.283962776E-1
1.013844286E0,-4.628770426E-2,7.041871548E-2,9.444648772E-2,1.265760092E-1
1.015844052E0,-4.140077904E-2,7.102958113E-2,1.011660025E-1,1.303602161E-1
1.017843818E0,-3.651385754E-2,7.286217809E-2,1.078855246E-1,1.352088947E-1
1.019843584E0,-3.590299189E-2,7.041871548E-2,1.084963828E-1,1.342359319E-1
1.021843484E0,-3.529212996E-2,7.225131243E-2,1.182702333E-1,1.430162042E-1
1.023843717E0,-3.284866735E-2,6.919698417E-2,1.182702333E-1,1.409081461E-1
1.025843183E0,-3.101607040E-2,6.919698417E-2,1.231571510E-1,1.446302288E-1
1.027842949E0,-3.284866735E-2,6.980784237E-2,1.274332106E-1,1.489677582E-1
1.029842715E0,-3.223780170E-2,7.102958113E-2,1.310984045E-1,1.525492344E-1
1.031842481E0,-3.345953301E-2,7.041871548E-2,1.353744566E-1,1.562196510E-1
1.033842247E0,-3.468126431E-2,7.347303629E-2,1.408722401E-1,1.626224621E-1
1.035842013E0,-3.590299189E-2,7.041871548E-2,1.408722401E-1,1.615326850E-1
1.037841813E0,-3.651385754E-2,7.164043933E-2,1.408722401E-1,1.622054326E-1
1.039841546E0,-3.895732015E-2,6.919698417E-2,1.378179193E-1,1.590587133E-1
1.041841279E0,-3.712472692E-2,6.736438721E-2,1.372070462E-1,1.572958344E-1
1.043841012E0,-3.712472692E-2,6.431005895E-2,1.341527253E-1,1.533329148E-1
1.045840745E0,-3.895732015E-2,5.881227553E-2,1.256006211E-1,1.440557967E-1
1.047840478E0,-3.529212996E-2,5.209275335E-2,1.133833081E-1,1.296725257E-1
1.049840211E0,-3.834645450E-2,4.537323862E-2,1.066637859E-1,1.220915418E-1
1.051839944E0,-3.773558885E-2,3.865372017E-2,9.383562207E-2,1.082737675E-1
1.053839744E0,-3.773558885E-2,2.887987718E-2,8.039658517E-2,9.338968293E-2
1.055839477E0,-3.651385754E-2,2.154949307E-2,7.367707044E-2,8.500560660E-2
1.057839210E0,-3.345953301E-2,1.055391878E-2,5.779457092E-2,6.761019138E-2
1.059838943E0,-3.407039493E-2,-4.106846638E-3,4.496639967E-2,5.656531711E-2
1.061838676E0,-2.857261151E-2,-9.604634717E-3,3.580342233E-2,4.680307882E-2
1.063838376E0,-2.979434282E-2,-2.670885995E-2,1.808833145E-2,4.391188675E-2
1.065838109E0,-2.979434282E-2,-4.014789686E-2,-3.902818076E-3,5.014766669E-2
1.067838275E0,-2.918347530E-2,-4.870000854E-2,-1.734185405E-2,5.936418082E-2
1.069838075E0,-3.162693605E-2,-6.885856390E-2,-4.788511619E-2,8.963676287E-2
1.071837808E0,-3.101607040E-2,-8.596279472E-2,-7.781751454E-2,1.200298474E-1
1.073837541E0,-3.284866735E-2,-9.756922722E-2,-9.370001405E-2,1.392066151E-1
1.075837674E0,-3.284866735E-2,-1.165060475E-1,-1.266867220E-1,1.752204885E-1
1.077837407E0,-3.529212996E-2,-1.232255697E-1,-1.450126916E-1,1.935426470E-1
1.079837140E0,-3.407039493E-2,-1.439950019E-1,-1.749450862E-1,2.291312628E-1
1.081836873E0,-3.407039493E-2,-1.775925756E-1,-2.177056521E-1,2.830117765E-1
1.083836473E0,-3.223780170E-2,-1.873664260E-1,-2.317555547E-1,2.997600550E-1
1.085836873E0,-3.162693605E-2,-1.989728510E-1,-2.458054572E-1,3.178219334E-1
1.087836606E0,-3.162693605E-2,-2.234074771E-1,-2.653531432E-1,3.483151655E-1
1.089836339E0,-2.979434282E-2,-2.350139171E-1,-2.763487101E-1,3.639888098E-1
1.091836072E0,-2.551828325E-2,-2.594485283E-1,-2.940638065E-1,3.929863152E-1
1.093835805E0,-2.063136362E-2,-2.814396620E-1,-3.075028360E-1,4.173630681E-1
1.095835538E0,-1.879876666E-2,-2.930461168E-1,-3.123897612E-1,4.287385953E-1
1.097834838E0,-1.635530591E-2,-3.168698549E-1,-3.209418952E-1,4.513066597E-1
1.099834638E0,-1.269011479E-2,-3.400827348E-1,-3.288831115E-1,4.732667393E-1
1.101834304E0,-4.138000775E-3,-3.571869433E-1,-3.374352455E-1,4.913880141E-1
1.103834037E0,7.489207783E-4,-3.632956147E-1,-3.429329991E-1,4.995871360E-1
1.105833770E0,7.468438707E-3,-3.803998530E-1,-3.539285958E-1,5.196395642E-1
1.107833503E0,1.174449548E-2,-3.920062780E-1,-3.594263792E-1,5.319719704E-1
1.109833236E0,1.846401207E-2,-4.103322327E-1,-3.624807000E-1,5.478190567E-1
1.111832969E0,2.151833847E-2,-4.262147248E-1,-3.655350208E-1,5.619055810E-1
1.113832702E0,2.518353052E-2,-4.365994334E-1,-3.637024462E-1,5.687993889E-1
1.115832502E0,2.701612748E-2,-4.543145299E-1,-3.606481254E-1,5.806880691E-1
1.117832235E0,2.884872258E-2,-4.726405144E-1,-3.527068794E-1,5.904434328E-1
1.119831968E0,2.884872258E-2,-4.732513428E-1,-3.514851332E-1,5.902041012E-1
1.121831768E0,3.251391277E-2,-4.787491560E-1,-3.429329991E-1,5.897973811E-1
1.123831501E0,3.556824103E-2,-4.860795140E-1,-3.337700367E-1,5.907121390E-1
1.125831234E0,3.373564407E-2,-4.891338646E-1,-3.294939995E-1,5.907252550E-1
1.127830967E0,3.740083799E-2,-4.909664690E-1,-3.184984028E-1,5.864197550E-1
1.129830700E0,3.984429687E-2,-4.958533645E-1,-3.062811196E-1,5.841799819E-1
1.131830500E0,4.350948706E-2,-4.946316481E-1,-3.026159406E-1,5.814894240E-1
1.133830233E0,4.595294967E-2,-5.013511777E-1,-2.897877395E-1,5.808972464E-1
1.135829566E0,4.900727421E-2,-5.044054985E-1,-2.781813145E-1,5.781102521E-1
1.137829299E0,5.206159875E-2,-5.007402897E-1,-2.708509266E-1,5.716742711E-1
1.139829032E0,5.633765832E-2,-5.037946105E-1,-2.604662180E-1,5.699347261E-1
1.141829365E0,6.244631112E-2,-5.013511777E-1,-2.476380467E-1,5.626518882E-1
1.143828831E0,6.305717677E-2,-5.013511777E-1,-2.390859425E-1,5.590092117E-1
1.145828564E0,7.038755715E-2,-4.934099019E-1,-2.054883391E-1,5.391040688E-1
1.147828364E0,8.749178052E-2,-5.007402897E-1,-1.523430794E-1,5.306637949E-1
1.149828097E0,9.360044450E-2,-5.037946105E-1,-1.272975951E-1,5.279912220E-1
1.151827830E0,1.076503396E-1,-5.092924237E-1,-7.781751454E-2,5.263296819E-1
1.153827563E0,1.198676452E-1,-5.190662146E-1,-2.894829400E-2,5.335128782E-1
1.155827296E0,1.247545630E-1,-5.263966322E-1,-6.957144476E-3,5.410226587E-1
1.157827462E0,1.394153237E-1,-5.441116691E-1,3.335996345E-2,5.626784411E-1
1.159827195E0,1.552978158E-1,-5.624376535E-1,6.451409310E-2,5.870396868E-1
1.161827061E0,1.693477333E-1,-5.709897876E-1,8.955956250E-2,6.022697963E-1
1.163826427E0,1.736237854E-1,-5.740441084E-1,9.750081599E-2,6.076004167E-1
1.165826160E0,1.864519566E-1,-5.795419216E-1,1.121615767E-1,6.190423171E-1
1.167825893E0,1.943932027E-1,-5.844288468E-1,1.176593602E-1,6.270482591E-1
1.169825626E0,2.047779113E-1,-5.838180184E-1,1.176593602E-1,6.297786886E-1
1.171825359E0,2.176060826E-1,-5.807636380E-1,1.103289798E-1,6.299295946E-1
1.173825092E0,2.249364555E-1,-5.795419216E-1,1.066637859E-1,6.307475019E-1
1.175824825E0,2.347103059E-1,-5.679354668E-1,8.894869685E-2,6.209279288E-1
1.177824191E0,2.444841415E-1,-5.544964671E-1,7.123360783E-2,6.101746097E-1
1.179823991E0,2.487602085E-1,-5.483877659E-1,5.962716788E-2,6.051166683E-1
1.181823657E0,2.573123276E-1,-5.300618410E-1,3.885775059E-2,5.904956511E-1
1.183823390E0,2.652535737E-1,-5.074598193E-1,1.136881392E-2,5.727164888E-1
1.185823123E0,2.689187527E-1,-4.995185435E-1,1.594969188E-3,5.673082185E-1
1.187822856E0,2.768600285E-1,-4.799708724E-1,-2.039617859E-2,5.544722877E-1
1.189822589E0,2.835795283E-1,-4.579797387E-1,-3.994386643E-2,5.401465564E-1
1.191822322E0,2.872447073E-1,-4.475950003E-1,-4.788511619E-2,5.339885678E-1
1.193822122E0,2.921316624E-1,-4.292690456E-1,-6.498934329E-2,5.232938337E-1
1.195821855E0,2.982403040E-1,-4.115539491E-1,-7.903924584E-2,5.143647872E-1
1.197821588E0,3.000728786E-1,-3.981149197E-1,-8.514789492E-2,5.057562513E-1
1.199821321E0,3.037380576E-1,-3.822324276E-1,-9.492173791E-2,4.973616116E-1
1.201820454E0,3.061815500E-1,-3.559652269E-1,-1.028629914E-1,4.806653507E-1
1.203820187E0,3.061815500E-1,-3.559652269E-1,-1.028629914E-1,4.806653507E-1
1.205819920E0,3.049598038E-1,-3.382501304E-1,-1.101933643E-1,4.685682557E-1
1.207819653E0,3.019054830E-1,-3.284762800E-1,-1.120259613E-1,4.599928295E-1
1.209819453E0,3.037380576E-1,-3.223676383E-1,-1.132476926E-1,4.571681767E-1
1.211819186E0,2.988511622E-1,-3.119829297E-1,-1.132476926E-1,4.466210983E-1
1.213818919E0,2.933533490E-1,-3.022090793E-1,-1.120259613E-1,4.358168548E-1
1.215818652E0,2.921316624E-1,-2.936569750E-1,-1.138585582E-1,4.295801420E-1
1.217818385E0,2.841903865E-1,-2.838831246E-1,-1.138585582E-1,4.175135633E-1
1.219818118E0,2.762491405E-1,-2.741092741E-1,-1.114151031E-1,4.047997122E-1
1.221817784E0,2.701404989E-1,-2.661680281E-1,-1.034738570E-1,3.931006836E-1
1.223817950E0,2.652535737E-1,-2.606702447E-1,-1.053064466E-1,3.865202226E-1
1.225817750E0,2.554797232E-1,-2.551724613E-1,-9.797606617E-2,3.741419296E-1
1.227817483E0,2.512036860E-1,-2.521181405E-1,-8.942394704E-2,3.669652448E-1
1.229817216E0,2.469276190E-1,-2.539507151E-1,-7.048712671E-2,3.611546064E-1
1.231816949E0,2.402081043E-1,-2.545616031E-1,-4.727425054E-2,3.531804041E-1
1.233816682E0,2.371537834E-1,-2.563942075E-1,-3.322435170E-2,3.508329577E-1
1.235816415E0,2.316559851E-1,-2.600593865E-1,-6.346279290E-3,3.483326789E-1
1.237816581E0,2.249364555E-1,-2.692223489E-1,1.869919524E-2,3.513214227E-1
1.239816314E0,2.206604183E-1,-2.759419084E-1,3.091650084E-2,3.546699691E-1
1.241816180E0,2.127191573E-1,-2.814396620E-1,4.985332489E-2,3.562907201E-1
1.243815913E0,2.096648365E-1,-2.912135124E-1,7.184447348E-2,3.659593992E-1
1.245815646E0,2.041670531E-1,-2.906026542E-1,7.978571951E-2,3.640052874E-1
1.247815379E0,1.986692697E-1,-2.875483036E-1,9.261389077E-2,3.615671976E-1
1.249815112E0,1.876736879E-1,-2.838831246E-1,9.994427860E-2,3.546828166E-1
1.251814845E0,1.840084940E-1,-2.796070874E-1,1.054420620E-1,3.509377119E-1
1.253814578E0,1.742346436E-1,-2.686115205E-1,1.066637859E-1,3.374715147E-1
1.255814378E0,1.656825393E-1,-2.521181405E-1,1.091072559E-1,3.208093731E-1
1.257814178E0,1.607956141E-1,-2.441768944E-1,1.072746590E-1,3.114248509E-1
1.259813911E0,1.467457116E-1,-2.240183353E-1,1.029985994E-1,2.869272206E-1
1.261813644E0,1.284197569E-1,-1.879772842E-1,9.261389077E-2,2.457731191E-1
1.263813377E0,1.284197569E-1,-1.879772842E-1,9.261389077E-2,2.457731191E-1
1.265813110E0,1.149807200E-1,-1.629318148E-1,8.589436859E-2,2.171294195E-1
1.267812843E0,1.021525487E-1,-1.384972036E-1,7.978571951E-2,1.896902202E-1
1.269812576E0,9.543303400E-2,-1.268907636E-1,7.612052560E-2,1.760768704E-1
1.271812376E0,8.627005666E-2,-1.012344211E-1,6.879014522E-2,1.497431627E-1
1.273812109E0,7.283101976E-2,-7.802154869E-2,7.062274218E-2,1.279816050E-1
1.275811842E0,6.733322889E-2,-7.130202651E-2,7.367707044E-2,1.226623553E-1
1.277811575E0,5.450506136E-2,-5.358693376E-2,7.734226435E-2,1.087390778E-1
1.279811308E0,3.801169991E-2,-2.915232256E-2,7.917486131E-2,9.253867248E-2
1.281811041E0,2.457266673E-2,1.390940160E-3,7.550966740E-2,7.941952238E-2
1.283810774E0,2.090747468E-2,2.032776177E-2,7.184447348E-2,7.753688649E-2
1.285810507E0,9.911899455E-3,5.453621596E-2,6.512495130E-2,8.552019577E-2
1.287810307E0,3.803246887E-3,6.919698417E-2,5.840543658E-2,9.063047129E-2
1.289810040E0,-9.024923667E-3,1.009619758E-1,4.557726532E-2,1.111398079E-1
1.291809506E0,-2.246395871E-2,1.217313930E-1,2.908390388E-2,1.271575203E-1
1.293809239E0,-3.040520661E-2,1.333378255E-1,1.992092654E-2,1.382038191E-1
1.295808972E0,-4.140077904E-2,1.516637951E-1,1.594969188E-3,1.572211028E-1
1.297808705E0,-5.422895029E-2,1.718223393E-1,-2.100704610E-2,1.813973300E-1
1.299808438E0,-6.278106570E-2,1.797636002E-1,-3.505694494E-2,1.936114758E-1
1.301808171E0,-8.660481125E-2,2.121394575E-1,-7.598491758E-2,2.414068152E-1
1.303807971E0,-9.332432598E-2,2.213024348E-1,-8.698049188E-2,2.554404107E-1
1.305807704E0,-1.012655720E-1,2.341306061E-1,-1.022521183E-1,2.748224017E-1
1.307807437E0,-1.128720194E-1,2.622303963E-1,-1.217998117E-1,3.103869643E-1
1.309807170E0,-1.269219071E-1,2.811672390E-1,-1.401257664E-1,3.388206268E-1
1.311806903E0,-1.348631531E-1,2.915519476E-1,-1.462344229E-1,3.529520005E-1
1.313806636E0,-1.470804811E-1,3.086561561E-1,-1.602843106E-1,3.776140236E-1
1.315806369E0,-1.562434584E-1,3.147647977E-1,-1.688364446E-1,3.898649012E-1
1.317806102E0,-1.611303687E-1,3.208734691E-1,-1.712798923E-1,3.978185270E-1
1.319805902E0,-1.672390252E-1,3.263712525E-1,-1.755559593E-1,4.065796120E-1
1.321805602E0,-1.800671816E-1,3.282038569E-1,-1.779994220E-1,4.145187038E-1
1.323805335E0,-1.831215173E-1,3.282038569E-1,-1.804428697E-1,4.169063336E-1
1.325805068E0,-1.922844946E-1,3.239277899E-1,-1.786102802E-1,4.168982755E-1
1.327804801E0,-1.977822930E-1,3.172082901E-1,-1.755559593E-1,4.129876870E-1
1.329804534E0,-2.038909346E-1,3.129322231E-1,-1.737233549E-1,4.119197659E-1
1.331804267E0,-2.075561285E-1,3.110996187E-1,-1.663929820E-1,4.093276727E-1
1.333804067E0,-2.112213075E-1,3.062126935E-1,-1.560082734E-1,4.033847242E-1
1.335803867E0,-2.130539119E-1,3.013257682E-1,-1.529539376E-1,3.994797805E-1
1.337803600E0,-2.136647850E-1,2.988823354E-1,-1.413474977E-1,3.936526462E-1
1.339803333E0,-2.142756432E-1,2.939953804E-1,-1.248541325E-1,3.846243484E-1
1.341803133E0,-2.112213075E-1,2.915519476E-1,-1.120259613E-1,3.770501225E-1
1.343802866E0,-2.087778598E-1,2.884976268E-1,-1.022521183E-1,3.705058314E-1
1.345802599E0,-2.057235241E-1,2.817780674E-1,-8.392616361E-2,3.588379140E-1
1.347802332E0,-2.014474720E-1,2.762803137E-1,-7.598491758E-2,3.502650474E-1
1.349802132E0,-1.977822930E-1,2.707825005E-1,-5.643722787E-2,3.400384665E-1
1.351802132E0,-1.922844946E-1,2.616195381E-1,-3.750040755E-2,3.268400070E-1
1.353801865E0,-1.898410320E-1,2.573434711E-1,-2.894829400E-2,3.210969998E-1
1.355801598E0,-1.831215173E-1,2.469587773E-1,-1.245493162E-2,3.076966901E-1
1.357801331E0,-1.764019877E-1,2.390175164E-1,3.427564865E-3,2.970837973E-1
1.359801064E0,-1.739585400E-1,2.390175164E-1,7.092756219E-3,2.957046735E-1
1.361800730E0,-1.702933460E-1,2.280219495E-1,1.747746393E-2,2.851303122E-1
1.363800463E0,-1.635738313E-1,2.176372409E-1,2.786217444E-2,2.736762096E-1
1.365800263E0,-1.617412418E-1,2.188589573E-1,2.908390388E-2,2.736884103E-1
1.367799996E0,-1.574651748E-1,2.139720470E-1,3.397082910E-2,2.678307962E-1
1.369799729E0,-1.537999809E-1,2.078633904E-1,3.763601556E-2,2.613007709E-1
1.371799462E0,-1.531891227E-1,2.054199427E-1,3.763601556E-2,2.589994785E-1
1.373799195E0,-1.483021975E-1,1.962569654E-1,3.885775059E-2,2.490386778E-1
1.375798928E0,-1.434152871E-1,1.907591671E-1,3.519255668E-2,2.412374773E-1
1.377798661E0,-1.421935409E-1,1.846505105E-1,3.519255668E-2,2.356975396E-1
1.379798394E0,-1.391392201E-1,1.736549437E-1,3.152736649E-2,2.247437138E-1
1.381798227E0,-1.348631531E-1,1.632702351E-1,2.847304009E-2,2.136725386E-1
1.383797993E0,-1.342523098E-1,1.547181159E-1,2.847304009E-2,2.068141487E-1
1.385797759E0,-1.330305636E-1,1.382247657E-1,2.297525294E-2,1.932125227E-1
1.387797525E0,-1.287545115E-1,1.241748556E-1,2.053179219E-2,1.800518633E-1
1.389797291E0,-1.281436533E-1,1.156227440E-1,1.869919524E-2,1.736060906E-1
1.391798157E0,-1.250893176E-1,1.015728414E-1,1.564487070E-2,1.618923762E-1
1.393797923E0,-1.250893176E-1,8.691207319E-2,1.014708262E-2,1.526565070E-1
1.395797689E0,-1.244784519E-1,7.897082716E-2,1.014708262E-2,1.477641358E-1
1.397797089E0,-1.208132654E-1,6.369919330E-2,1.014708262E-2,1.369539909E-1
1.399796855E0,-1.214241236E-1,5.087102577E-2,8.314486593E-3,1.319121289E-1
1.401796555E0,-1.183698028E-1,3.498852998E-2,7.092756219E-3,1.236362190E-1
1.403796321E0,-1.171480715E-1,3.010160662E-2,6.481891032E-3,1.211271741E-1
1.405796087E0,-1.153154746E-1,1.544084027E-2,4.038430285E-3,1.164147205E-1
1.407795853E0,-1.140937433E-1,6.888727192E-3,2.816699678E-3,1.143362174E-1
1.409795619E0,-1.110394225E-1,-8.993769065E-3,-2.376265766E-4,1.114033109E-1
1.411795452E0,-1.098176911E-1,-1.571328565E-2,-8.484918508E-4,1.109394095E-1
1.413795285E0,-1.085959524E-1,-3.281751275E-2,-3.291952889E-3,1.134940834E-1
1.415795051E0,-1.073742285E-1,-4.747828096E-2,-8.178874850E-3,1.176873235E-1
1.417794817E0,-1.073742285E-1,-5.541953072E-2,-8.789739572E-3,1.211520073E-1
1.419794583E0,-1.061524972E-1,-6.763683259E-2,-1.367666200E-2,1.266102084E-1
1.421794416E0,-1.043199003E-1,-8.229760081E-2,-2.222877555E-2,1.347206560E-1
1.423794182E0,-1.067633554E-1,-8.718451858E-2,-2.283964120E-2,1.397183007E-1
1.425793948E0,-1.073742285E-1,-9.940182418E-2,-3.139175475E-2,1.496508933E-1
1.427793781E0,-1.092068255E-1,-1.134517267E-1,-3.811126947E-2,1.620181900E-1
1.429793614E0,-1.092068255E-1,-1.189495176E-1,-4.727425054E-2,1.682556782E-1
1.431793380E0,-1.110394225E-1,-1.354428679E-1,-5.765895918E-2,1.843883927E-1
1.433793146E0,-1.122611463E-1,-1.476601809E-1,-6.987626851E-2,1.982139927E-1
1.435792912E0,-1.128720194E-1,-1.543796957E-1,-7.781751454E-2,2.064673068E-1
1.437792678E0,-1.116502807E-1,-1.678187251E-1,-9.186741710E-2,2.215141801E-1
1.439792444E0,-1.085959524E-1,-1.873664260E-1,-1.065281853E-1,2.413452148E-1
1.441792877E0,-1.000438482E-1,-2.020271868E-1,-1.126368344E-1,2.520135159E-1
1.443792677E0,-9.576778859E-2,-2.069141120E-1,-9.308914095E-2,2.462732369E-1
1.445792410E0,-5.361808836E-2,-2.930461168E-1,-4.727425054E-2,3.016384935E-1
1.447792143E0,-4.201164469E-2,-3.235893548E-1,-2.283964120E-2,3.271034974E-1
1.449791876E0,-7.192327641E-3,-3.920062780E-1,2.053179219E-2,3.926094829E-1
1.451790509E0,3.251391277E-2,-4.836360812E-1,5.657284334E-2,4.880179302E-1
1.453790242E0,5.878112093E-2,-5.245640278E-1,6.879014522E-2,5.323107396E-1
1.455789975E0,1.052068770E-1,-5.832070708E-1,9.566821903E-2,6.002927474E-1
1.457790141E0,1.510217786E-1,-6.088634729E-1,1.139941737E-1,6.375868395E-1
1.459789941E0,1.724020541E-1,-6.082525849E-1,1.201028302E-1,6.435202912E-1
1.461789707E0,2.182169557E-1,-5.917592049E-1,1.256006211E-1,6.430965031E-1
1.463789440E0,2.591449320E-1,-5.569398999E-1,1.207136884E-1,6.260271100E-1
1.465789173E0,2.799143493E-1,-5.312835574E-1,1.139941737E-1,6.112355789E-1
1.467788906E0,3.177880049E-1,-4.732513428E-1,9.872253984E-2,5.785345187E-1
1.469788639E0,3.538290262E-1,-4.042235613E-1,7.795312256E-2,5.428336362E-1
1.471788372E0,3.733766973E-1,-3.639064729E-1,6.634669006E-2,5.255853522E-1
1.473788105E0,4.088069201E-1,-2.893809080E-1,4.679899663E-2,5.030452802E-1
1.475787905E0,4.454588294E-1,-2.136336267E-1,3.030563518E-2,4.949659854E-1
1.477787638E0,4.595087171E-1,-1.794251651E-1,2.297525294E-2,4.938314623E-1
1.479787371E0,4.863867760E-1,-1.140625924E-1,1.075794827E-2,4.996980131E-1
1.481787037E0,5.120431781E-1,-5.358693376E-2,2.816699678E-3,5.148472681E-1
1.483786770E0,5.260930061E-1,-3.098491952E-2,1.594969188E-3,5.270070780E-1
1.485786503E0,5.450298190E-1,1.666257158E-2,-2.376265766E-4,5.452845141E-1
1.487786236E0,5.603015423E-1,5.697967857E-2,3.427564865E-3,5.632017847E-1
1.489785636E0,5.761839747E-1,9.729678184E-2,7.703621406E-3,5.843919766E-1
1.491785436E0,5.786274672E-1,1.137901470E-1,1.014708262E-2,5.897973437E-1
1.493785169E0,5.884013176E-1,1.449442804E-1,1.503400411E-2,6.061773472E-1
1.495784902E0,5.902338624E-1,1.589941680E-1,1.503400411E-2,6.114582398E-1
1.497784635E0,5.920664668E-1,1.852613837E-1,1.931006089E-2,6.206749228E-1
1.499784368E0,5.890121460E-1,2.066416591E-1,1.992092654E-2,6.245261618E-1
1.501783434E0,5.829035044E-1,2.206915617E-1,1.503400411E-2,6.234639381E-1
1.503783167E0,5.798491836E-1,2.286328077E-1,1.381227374E-2,6.234491281E-1
1.505782967E0,5.694645047E-1,2.365740687E-1,5.260160659E-3,6.166723452E-1
1.507782767E0,5.621340871E-1,2.402392626E-1,9.841038845E-4,6.113187414E-1
1.509782500E0,5.431972742E-1,2.390175164E-1,-1.306579728E-2,5.936020274E-1
1.511782233E0,5.218169689E-1,2.316871285E-1,-3.200262040E-2,5.718356777E-1
1.513781966E0,5.108214021E-1,2.286328077E-1,-4.116560146E-2,5.611649244E-1
1.515781699E0,4.839433432E-1,2.133611739E-1,-5.765895918E-2,5.320232189E-1
1.517781432E0,4.564543962E-1,1.895374358E-1,-7.354145497E-2,4.996833007E-1
1.519781165E0,4.411827624E-1,1.724332124E-1,-8.148270100E-2,4.806400661E-1
1.521780998E0,4.106394947E-1,1.357813030E-1,-9.431087226E-2,4.426690609E-1
1.523780731E0,3.800962567E-1,8.874467015E-2,-1.028629914E-1,4.036453590E-1
1.525780464E0,3.636028767E-1,6.064487249E-2,-1.053064466E-1,3.833722736E-1
1.527780197E0,3.293944001E-1,8.721322753E-3,-1.083607748E-1,3.468699898E-1
1.529779930E0,2.939642370E-1,-4.686741158E-2,-1.059173122E-1,3.159588643E-1
1.531779663E0,2.768600285E-1,-7.130202651E-2,-1.034738570E-1,3.040432427E-1
1.533779396E0,2.420406938E-1,-1.213929728E-1,-9.736520052E-2,2.877497759E-1
1.535779129E0,2.084431052E-1,-1.641535312E-1,-8.820222318E-2,2.795971067E-1
1.537778929E0,1.888954192E-1,-1.855338216E-1,-8.270443976E-2,2.773883608E-1
1.539778662E0,1.565195620E-1,-2.221857458E-1,-6.865452975E-2,2.803182538E-1
1.541779162E0,1.180350482E-1,-2.527289987E-1,-5.949155241E-2,2.852077562E-1
1.543778895E0,9.909822792E-2,-2.680006325E-1,-5.643722787E-2,2.912558300E-1
1.545778628E0,6.244631112E-2,-2.906026542E-1,-4.666338488E-2,3.008769115E-1
1.547778361E0,2.579439618E-2,-3.107612133E-1,-4.116560146E-2,3.145353546E-1
1.549778427E0,8.079303429E-3,-3.156481385E-1,-3.811126947E-2,3.180432225E-1
1.551778160E0,-2.735088021E-2,-3.284762800E-1,-3.200262040E-2,3.311629582E-1
1.553777960E0,-6.400278956E-2,-3.309197426E-1,-2.589396760E-2,3.380454565E-1
1.555777693E0,-7.560923696E-2,-3.333632350E-1,-2.161790989E-2,3.425129738E-1
1.557777426E0,-1.104285493E-1,-3.376392722E-1,-1.612012275E-2,3.556045571E-1
1.559777159E0,-1.409718096E-1,-3.364175558E-1,-1.367666200E-2,3.650162655E-1
1.561776892E0,-1.696824729E-1,-3.333632350E-1,-4.513683263E-3,3.740903118E-1
1.563776625E0,-1.837323755E-1,-3.321414888E-1,-4.513683263E-3,3.795996940E-1
1.565776358E0,-2.087778598E-1,-3.266437054E-1,-2.376265766E-4,3.876652699E-1
1.567776091E0,-2.234386355E-1,-3.290871680E-1,2.205834491E-3,3.977789005E-1
1.569775891E0,-2.466515005E-1,-3.229785264E-1,8.925352246E-3,4.064870885E-1
1.571775624E0,-2.674209177E-1,-3.156481385E-1,1.503400411E-2,4.139730859E-1
1.573775357E0,-2.741404474E-1,-3.119829297E-1,1.931006089E-2,4.157634084E-1
1.575775090E0,-2.936881483E-1,-3.028199375E-1,2.175352350E-2,4.224048517E-1
1.577774823E0,-3.089597523E-1,-2.942678630E-1,2.847304009E-2,4.276218163E-1
1.579774556E0,-3.144575357E-1,-2.893809080E-1,3.091650084E-2,4.284631626E-1
1.581774222E0,-3.278965652E-1,-2.765527368E-1,3.824688494E-2,4.306511325E-1
1.583774022E0,-3.364486992E-1,-2.606702447E-1,4.313380271E-2,4.277934415E-1
1.585773822E0,-3.370595574E-1,-2.582267821E-1,4.557726532E-2,4.270450835E-1
1.587773555E0,-3.413355947E-1,-2.423443049E-1,4.924245924E-2,4.215039384E-1
1.589773288E0,-3.462225199E-1,-2.325704545E-1,5.901630223E-2,4.212386182E-1
1.591773021E0,-3.498877287E-1,-2.289052606E-1,6.084889546E-2,4.225181997E-1
1.593772487E0,-3.498877287E-1,-2.136336267E-1,6.817927957E-2,4.155829199E-1
1.595772220E0,-3.511094749E-1,-2.020271868E-1,7.612052560E-2,4.121737279E-1
1.597771953E0,-3.498877287E-1,-1.946968138E-1,8.161831647E-2,4.086438811E-1
1.599771753E0,-3.474442661E-1,-1.837012321E-1,8.406177163E-2,4.019080021E-1
1.601770853E0,-3.425573409E-1,-1.714839190E-1,9.444648772E-2,3.945534252E-1
1.603770619E0,-3.443899453E-1,-1.647644043E-1,9.688994288E-2,3.938773976E-1
1.605770385E0,-3.407247663E-1,-1.543796957E-1,1.042203307E-1,3.883147359E-1
1.607770151E0,-3.358378410E-1,-1.446058452E-1,1.097181141E-1,3.817538088E-1
1.609769917E0,-3.327835202E-1,-1.427732557E-1,1.127724424E-1,3.792712718E-1
1.611769683E0,-3.291183114E-1,-1.342211515E-1,1.158267707E-1,3.738315412E-1
1.613769449E0,-3.291183114E-1,-1.268907636E-1,1.188810989E-1,3.722268723E-1
1.615769282E0,-3.297291994E-1,-1.244473010E-1,1.194919571E-1,3.721381511E-1
1.617769148E0,-3.291183114E-1,-1.220038384E-1,1.158267707E-1,3.696209414E-1
1.619769014E0,-3.303400278E-1,-1.238364354E-1,1.127724424E-1,3.703749728E-1
1.621768947E0,-3.291183114E-1,-1.207821146E-1,1.078855246E-1,3.668057640E-1
1.623768347E0,-3.291183114E-1,-1.238364354E-1,1.048311889E-1,3.669385559E-1
1.625768213E0,-3.303400278E-1,-1.213929728E-1,9.505735338E-2,3.645499804E-1
1.627768079E0,-3.278965652E-1,-1.226147115E-1,9.261389077E-2,3.621158070E-1
1.629767945E0,-3.291183114E-1,-1.207821146E-1,8.284004778E-2,3.602355557E-1
1.631767878E0,-3.272857070E-1,-1.183386445E-1,7.245533913E-2,3.554852247E-1
1.633767811E0,-3.248422444E-1,-1.171169207E-1,6.817927957E-2,3.519762364E-1
1.635767744E0,-3.236205280E-1,-1.195603758E-1,5.718370900E-2,3.497068861E-1
1.637767677E0,-3.211770654E-1,-1.183386445E-1,4.435553774E-2,3.451465715E-1
1.639767610E0,-3.175118566E-1,-1.158951893E-1,4.069034755E-2,3.404426212E-1
1.641767610E0,-3.138466775E-1,-1.152843237E-1,2.908390388E-2,3.356130000E-1
1.643767543E0,-3.065162897E-1,-1.158951893E-1,1.931006089E-2,3.282633230E-1
1.645767476E0,-3.077380359E-1,-1.171169207E-1,1.381227374E-2,3.295600867E-1
1.647767476E0,-2.942989767E-1,-1.146734506E-1,3.427564865E-3,3.158696505E-1
1.649767442E0,-2.869685888E-1,-1.128408611E-1,-6.957144476E-3,3.084354596E-1
1.651767408E0,-2.839142680E-1,-1.122299954E-1,-1.123320125E-2,3.054980659E-1
1.653767641E0,-2.729187012E-1,-1.140625924E-1,-2.222877555E-2,2.966294168E-1
1.655767607E0,-2.613122463E-1,-1.165060475E-1,-2.955915779E-2,2.876308276E-1
1.657767573E0,-2.558144927E-1,-1.183386445E-1,-2.955915779E-2,2.834057749E-1
1.659767539E0,-2.417645901E-1,-1.232255697E-1,-3.444607928E-2,2.735346239E-1
1.661767439E0,-2.295472771E-1,-1.293342263E-1,-3.994386643E-2,2.664860352E-1
1.663767439E0,-2.264929563E-1,-1.299450845E-1,-4.177646339E-2,2.644429184E-1
1.665767405E0,-2.130539119E-1,-1.384972036E-1,-4.421992600E-2,2.579318643E-1
1.667767371E0,-1.990040094E-1,-1.421623975E-1,-4.788511619E-2,2.492102072E-1
1.669767337E0,-1.922844946E-1,-1.470493227E-1,-4.727425054E-2,2.466408015E-1
1.671767303E0,-1.776237339E-1,-1.507145017E-1,-4.849597812E-2,2.379430851E-1
1.673767269E0,-1.684607565E-1,-1.586557478E-1,-4.666338488E-2,2.360680925E-1
1.675767235E0,-1.599086523E-1,-1.641535312E-1,-4.788511619E-2,2.341156621E-1
1.677767168E0,-1.495239288E-1,-1.696513146E-1,-4.727425054E-2,2.310277658E-1
1.679767101E0,-1.379174888E-1,-1.714839190E-1,-4.238732904E-2,2.241085761E-1
1.681766934E0,-1.281436533E-1,-1.714839190E-1,-4.299819097E-2,2.183492038E-1
1.683767300E0,-1.208132654E-1,-1.720947921E-1,-4.299819097E-2,2.146189810E-1
1.685767200E0,-1.098176911E-1,-1.763708442E-1,-3.872213885E-2,2.113433321E-1
1.687767100E0,-1.092068255E-1,-1.763708442E-1,-3.688954189E-2,2.106979918E-1
1.689767000E0,-1.018764451E-1,-1.739273816E-1,-3.444607928E-2,2.044897957E-1
1.691766900E0,-9.271346033E-2,-1.714839190E-1,-3.078088909E-2,1.973575014E-1
1.693766800E0,-8.843740821E-2,-1.702621877E-1,-3.200262040E-2,1.945110677E-1
1.695766700E0,-8.355048299E-2,-1.641535312E-1,-3.078088909E-2,1.867472306E-1
1.697766600E0,-7.683096081E-2,-1.574340165E-1,-2.894829400E-2,1.775569481E-1
1.699766500E0,-7.255490869E-2,-1.525471061E-1,-2.772656269E-2,1.711829333E-1
1.701766333E0,-6.950058043E-2,-1.458275914E-1,-2.833742648E-2,1.640092279E-1
1.703766233E0,-6.461366266E-2,-1.397189349E-1,-2.833742648E-2,1.565225732E-1
1.705766133E0,-6.339193135E-2,-1.360537410E-1,-2.833742648E-2,1.527487058E-1
1.707766033E0,-6.339193135E-2,-1.336102784E-1,-2.650483139E-2,1.502423027E-1
1.709765966E0,-5.728327483E-2,-1.317776740E-1,-2.833742648E-2,1.464572930E-1
1.711765832E0,-5.728327483E-2,-1.305559576E-1,-2.711569704E-2,1.451257822E-1
1.713765698E0,-5.728327483E-2,-1.329994202E-1,-2.711569704E-2,1.473277990E-1
1.715765564E0,-5.300722271E-2,-1.323885471E-1,-2.345050685E-2,1.445213456E-1
1.717765430E0,-5.239635333E-2,-1.354428679E-1,-2.467223629E-2,1.473053548E-1
1.719765296E0,-5.117462575E-2,-1.354428679E-1,-2.222877555E-2,1.464845768E-1
1.721765229E0,-5.239635333E-2,-1.354428679E-1,-2.161790989E-2,1.468246653E-1
1.723765095E0,-5.239635333E-2,-1.403298080E-1,-1.978531480E-2,1.510936515E-1
1.725764995E0,-5.239635333E-2,-1.391080618E-1,-1.795271784E-2,1.497288575E-1
1.727764828E0,-5.361808836E-2,-1.421623975E-1,-1.734185405E-2,1.529241203E-1
1.729764661E0,-5.178549141E-2,-1.397189349E-1,-1.795271784E-2,1.500847026E-1
1.731764494E0,-5.178549141E-2,-1.409406513E-1,-1.673098840E-2,1.510825280E-1
1.733764327E0,-5.545068532E-2,-1.421623975E-1,-1.550925709E-2,1.533801253E-1
1.735764160E0,-5.422895029E-2,-1.415515244E-1,-1.673098840E-2,1.525042264E-1
1.737763993E0,-5.545068532E-2,-1.348320097E-1,-1.428752672E-2,1.464874833E-1
1.739763826E0,-5.422895029E-2,-1.372754723E-1,-1.367666200E-2,1.482308518E-1
1.741763692E0,-5.422895029E-2,-1.366646141E-1,-1.184406690E-2,1.475068734E-1
1.743763492E0,-5.667241290E-2,-1.342211515E-1,-1.184406690E-2,1.461757908E-1
1.745763292E0,-5.606154725E-2,-1.323885471E-1,-9.400605224E-3,1.440763542E-1
1.747763092E0,-5.667241290E-2,-1.275016218E-1,-6.957144476E-3,1.397026407E-1
1.749762892E0,-5.422895029E-2,-1.262799054E-1,-7.568009198E-3,1.376396321E-1
1.751762692E0,-5.300722271E-2,-1.213929728E-1,-4.513683263E-3,1.325382693E-1
1.753762492E0,-4.995289445E-2,-1.195603758E-1,-3.291952889E-3,1.296179466E-1
1.755762292E0,-4.934202880E-2,-1.140625924E-1,2.205834491E-3,1.242971299E-1
1.757762092E0,-4.750943556E-2,-1.103973985E-1,6.481891032E-3,1.203609030E-1
1.759761825E0,-4.506597295E-2,-1.042887494E-1,1.136881392E-2,1.141767713E-1
1.761761558E0,-4.017905146E-2,-9.818009287E-2,1.136881392E-2,1.066908466E-1
1.763761291E0,-3.956818208E-2,-9.634749591E-2,1.564487070E-2,1.053244653E-1
1.765761024E0,-3.345953301E-2,-8.901711553E-2,1.931006089E-2,9.703847514E-2
1.767760757E0,-2.796174586E-2,-8.413019776E-2,2.480784804E-2,9.206073393E-2
1.769760490E0,-2.612915076E-2,-7.863240689E-2,2.664044313E-2,8.703735487E-2
1.771760290E0,-2.063136362E-2,-7.252375782E-2,3.335996345E-2,8.245141462E-2
1.773760023E0,-1.330097951E-2,-6.458250433E-2,3.824688494E-2,7.622755492E-2
1.775759756E0,-7.803192828E-3,-6.274991482E-2,4.007947817E-2,7.486525362E-2
1.777759489E0,7.489207783E-4,-5.114347115E-2,4.130120948E-2,6.574196094E-2
1.779759222E0,6.246707868E-3,-4.625654966E-2,4.435553774E-2,6.439024362E-2
1.781758955E0,1.602055132E-2,-3.770443797E-2,4.802072793E-2,6.312109805E-2
1.783758688E0,1.785314828E-2,-3.709357232E-2,4.802072793E-2,6.325075748E-2
1.785758421E0,2.701612748E-2,-3.098491952E-2,5.046418682E-2,6.508894325E-2
1.787758221E0,2.762699127E-2,-2.915232256E-2,5.168592185E-2,6.545642119E-2
1.789757954E0,3.495737538E-2,-2.426539920E-2,5.046418682E-2,6.601107364E-2
1.791757687E0,4.350948706E-2,-2.487626486E-2,5.107505247E-2,7.155812325E-2
1.793757420E0,4.656381533E-2,-2.548713051E-2,5.046418682E-2,7.324217958E-2
1.795757153E0,4.961813986E-2,-2.854145691E-2,4.924245924E-2,7.550757815E-2
1.797756886E0,5.450506136E-2,-2.915232256E-2,4.557726532E-2,7.679809072E-2
1.799756619E0,5.450506136E-2,-3.403924406E-2,4.496639967E-2,7.843117332E-2
1.801756285E0,5.878112093E-2,-4.198049009E-2,3.824688494E-2,8.173375027E-2
1.803756485E0,5.755938590E-2,-4.686741158E-2,3.763601556E-2,8.322323498E-2
1.805756218E0,5.633765832E-2,-5.175433680E-2,3.397082910E-2,8.370460174E-2
1.807755951E0,5.694852397E-2,-5.908472091E-2,2.847304009E-2,8.686111120E-2
1.809755684E0,5.389419571E-2,-6.580423564E-2,2.236438729E-2,8.794855074E-2
1.811755417E0,5.206159875E-2,-6.580423564E-2,2.175352350E-2,8.668231236E-2
1.813755150E0,4.656381533E-2,-6.946942955E-2,1.747746393E-2,8.543800258E-2
1.815754883E0,3.678996861E-2,-7.252375782E-2,1.320140809E-2,8.238612998E-2
1.817754616E0,3.617910296E-2,-7.924327254E-2,1.197967771E-2,8.793143017E-2
1.819754416E0,2.518353052E-2,-7.863240689E-2,6.481891032E-3,8.282077357E-2
1.821754216E0,1.540968660E-2,-8.107586950E-2,-2.376265766E-4,8.252764096E-2
1.823753949E0,8.690169081E-3,-8.229760081E-2,-2.376265766E-4,8.275548685E-2
1.825753682E0,-4.728097119E-4,-8.474105597E-2,-1.459356979E-3,8.475493990E-2
1.827753415E0,-1.207924914E-2,-8.413019776E-2,-3.902818076E-3,8.508249188E-2
1.829753148E0,-1.635530591E-2,-8.962798119E-2,-7.568009198E-3,9.142180159E-2
1.831752881E0,-2.918347530E-2,-9.084970504E-2,-1.001147088E-2,9.594568091E-2
1.833752681E0,-4.384424165E-2,-9.390404075E-2,-1.001147088E-2,1.041177984E-1
1.835752481E0,-5.056376010E-2,-9.146057814E-2,-1.062233560E-2,1.050455387E-1
1.837752214E0,-6.583538651E-2,-9.390404075E-2,-1.184406690E-2,1.152933168E-1
1.839751947E0,-7.988528907E-2,-1.000126898E-1,-8.178874850E-3,1.282618085E-1
1.841752480E0,-9.271346033E-2,-1.030670181E-1,-1.123320125E-2,1.390855160E-1
1.843751780E0,-1.006547064E-1,-1.048996150E-1,-1.245493162E-2,1.459123863E-1
1.845751513E0,-1.134828776E-1,-1.067322046E-1,-1.062233560E-2,1.561504435E-1
1.847751246E0,-1.208132654E-1,-1.091756672E-1,-1.245493162E-2,1.633104306E-1
1.849751046E0,-1.324197054E-1,-1.110082641E-1,-1.306579728E-2,1.732874148E-1
1.851750846E0,-1.452478766E-1,-1.091756672E-1,-1.062233560E-2,1.820140269E-1
1.853750579E0,-1.501348019E-1,-1.097865403E-1,-1.245493162E-2,1.864099474E-1
1.855750312E0,-1.592977792E-1,-1.079539433E-1,-1.367666200E-2,1.929167888E-1
1.857750045E0,-1.678498834E-1,-1.024561524E-1,-1.428752672E-2,1.971673907E-1
1.859749778E0,-1.739585400E-1,-1.012344211E-1,-1.245493162E-2,2.016559123E-1
1.861749578E0,-1.873975694E-1,-9.023884684E-2,-1.306579728E-2,2.084025277E-1
1.863748911E0,-1.855649650E-1,-8.962798119E-2,-1.001147088E-2,2.063195599E-1
1.865748711E0,-1.916736364E-1,-8.535192162E-2,-1.428752672E-2,2.103042245E-1
1.867748444E0,-1.941170990E-1,-8.107586950E-2,-1.123320125E-2,2.106678181E-1
1.869748177E0,-1.971714199E-1,-7.741067559E-2,-1.367666200E-2,2.122640633E-1
1.871747910E0,-1.996148825E-1,-7.496721298E-2,-1.245493162E-2,2.135914550E-1
1.873747643E0,-1.996148825E-1,-7.191288471E-2,-1.489839237E-2,2.126958542E-1
1.875747376E0,-1.990040094E-1,-6.702596694E-2,-1.489839237E-2,2.105161231E-1
1.877747109E0,-1.977822930E-1,-6.885856390E-2,-1.550925709E-2,2.099997007E-1
1.879746842E0,-1.977822930E-1,-6.336077303E-2,-1.673098840E-2,2.083563029E-1
1.881746575E0,-1.904519051E-1,-6.152817979E-2,-1.673098840E-2,2.008421546E-1
1.883746308E0,-1.886193156E-1,-5.847385526E-2,-1.612012275E-2,1.981320174E-1
1.885746041E0,-1.825106442E-1,-5.358693376E-2,-1.673098840E-2,1.909492621E-1
1.887745774E0,-1.764019877E-1,-5.419779569E-2,-1.367666200E-2,1.850462466E-1
1.889745507E0,-1.696824729E-1,-4.870000854E-2,-1.489839237E-2,1.771603639E-1
1.891745240E0,-1.623521000E-1,-4.625654966E-2,-1.245493162E-2,1.692719649E-1
1.893744973E0,-1.525782645E-1,-3.892616555E-2,-9.400605224E-3,1.577458226E-1
1.895744706E0,-1.458587348E-1,-3.709357232E-2,-1.245493162E-2,1.510159891E-1
1.897744506E0,-1.373066306E-1,-3.037405200E-2,-1.245493162E-2,1.411765532E-1
1.899744239E0,-1.232567206E-1,-2.609799616E-2,-1.245493162E-2,1.266035146E-1
1.901743172E0,-1.110394225E-1,-1.937847957E-2,-1.245493162E-2,1.134037219E-1
1.903742972E0,-1.024873033E-1,-1.632415131E-2,-1.612012275E-2,1.050237288E-1
1.905742705E0,-9.027000517E-2,-1.021549944E-2,-1.673098840E-2,9.237400194E-2
1.907742438E0,-8.293961734E-2,-8.993769065E-3,-1.795271784E-2,8.533562025E-2
1.909741904E0,-7.072231174E-2,-5.939442664E-3,-2.528310195E-2,7.534027874E-2
1.911741637E0,-5.972673744E-2,-3.495981684E-3,-2.589396760E-2,6.519204408E-2
1.913741437E0,-5.117462575E-2,-6.550308317E-3,-2.894829400E-2,5.915870676E-2
1.915741170E0,-4.140077904E-2,-4.717712291E-3,-3.566781059E-2,5.484955812E-2
1.917740903E0,-2.979434282E-2,-7.772038691E-3,-4.055473208E-2,5.091948295E-2
1.919740636E0,-2.551828325E-2,-7.161173504E-3,-4.483078793E-2,5.207940795E-2
1.921740569E0,-9.024923667E-3,-1.815674827E-2,-5.216117203E-2,5.596342218E-2
1.923740302E0,-6.581462454E-3,-1.754588261E-2,-5.582636222E-2,5.888765884E-2
1.925740035E0,-4.728097119E-4,-2.060020901E-2,-5.826982483E-2,6.180586256E-2
1.927739835E0,7.468438707E-3,-2.854145691E-2,-5.949155241E-2,6.640509881E-2
1.929739635E0,1.540968660E-2,-3.098491952E-2,-6.621107459E-2,7.470896919E-2
1.931739368E0,1.968574338E-2,-3.831529990E-2,-6.621107459E-2,7.899048738E-2
1.933739101E0,2.762699127E-2,-4.808914661E-2,-6.743279845E-2,8.730978740E-2
1.935738834E0,3.556824103E-2,-5.358693376E-2,-6.926539540E-2,9.452171306E-2
1.937738567E0,3.801169991E-2,-6.091731787E-2,-6.926539540E-2,9.976724887E-2
1.939738300E0,4.289862514E-2,-6.763683259E-2,-6.987626851E-2,1.062907619E-1
1.941738100E0,4.961813986E-2,-7.435635477E-2,-6.621107459E-2,1.112417804E-1
1.943737900E0,5.206159875E-2,-7.557807863E-2,-6.621107459E-2,1.131651997E-1
1.945737633E0,5.450506136E-2,-8.290845901E-2,-6.376761198E-2,1.179445744E-1
1.947737366E0,5.694852397E-2,-8.962798119E-2,-6.132414937E-2,1.226252857E-1
1.949737099E0,5.878112093E-2,-9.512577206E-2,-6.132414937E-2,1.275334622E-1
1.951736832E0,6.061371788E-2,-1.012344211E-1,-5.643722787E-2,1.307959919E-1
1.953736565E0,6.183544546E-2,-1.042887494E-1,-5.521550030E-2,1.332235604E-1
1.955736298E0,6.183544546E-2,-1.061213464E-1,-5.277203768E-2,1.336796560E-1
1.957736031E0,6.061371788E-2,-1.158951893E-1,-5.032857507E-2,1.401380861E-1
1.959735831E0,5.817025527E-2,-1.189495176E-1,-4.788511619E-2,1.408039442E-1
1.961735497E0,5.633765832E-2,-1.238364354E-1,-4.849597812E-2,1.444342562E-1
1.963735597E0,5.633765832E-2,-1.232255697E-1,-4.788511619E-2,1.437061486E-1
1.965735330E0,5.328333378E-2,-1.238364354E-1,-4.666338488E-2,1.426606038E-1
1.967735063E0,5.083987117E-2,-1.226147115E-1,-4.360905662E-2,1.397168916E-1
1.969735063E0,4.534208402E-2,-1.226147115E-1,-4.421992600E-2,1.380060648E-1
1.971734796E0,4.534208402E-2,-1.207821146E-1,-4.360905662E-2,1.361836025E-1
1.973734529E0,4.167689011E-2,-1.195603758E-1,-4.360905662E-2,1.339156318E-1
1.975734329E0,3.862256557E-2,-1.097865403E-1,-4.116560146E-2,1.234479394E-1
1.977734062E0,3.251391277E-2,-1.055104733E-1,-3.933300450E-2,1.172036677E-1
1.979733795E0,2.823785506E-2,-9.940182418E-2,-3.750040755E-2,1.099289756E-1
1.981733328E0,1.968574338E-2,-8.962798119E-2,-3.383521736E-2,9.780350422E-2
1.983732661E0,1.785314828E-2,-8.474105597E-2,-3.139175475E-2,9.211527417E-2
1.985732394E0,1.296622586E-2,-8.168672770E-2,-3.017002344E-2,8.804018861E-2
1.987732127E0,9.301033802E-3,-7.374548167E-2,-2.711569704E-2,7.912121285E-2
1.989731860E0,1.970651327E-3,-6.824769825E-2,-2.406137064E-2,7.239185962E-2
1.991731660E0,-4.728097119E-4,-6.702596694E-2,-2.161790989E-2,7.042753596E-2
1.993731393E0,-6.581462454E-3,-6.336077303E-2,-1.489839237E-2,6.542067947E-2
1.995731126E0,-1.085751876E-2,-6.030644849E-2,-1.123320125E-2,6.229717693E-2
1.997730859E0,-1.391184516E-2,-5.847385526E-2,-7.568009198E-3,6.058057401E-2
1.999730592E0,-1.574444026E-2,-5.786298588E-2,-4.513683263E-3,6.013639389E-2
2.001730325E0,-2.002049796E-2,-5.908472091E-2,-8.484918508E-4,6.239025983E-2
2.003730458E0,-2.124222741E-2,-5.786298588E-2,4.038430285E-3,6.177107963E-2
2.005730258E0,-2.368569002E-2,-5.725212395E-2,8.314486593E-3,6.251358489E-2
2.007730058E0,-2.735088021E-2,-5.541953072E-2,1.075794827E-2,6.273060245E-2
2.009729791E0,-2.857261151E-2,-5.358693376E-2,1.381227374E-2,6.227947097E-2
2.011729524E0,-2.857261151E-2,-5.236519873E-2,1.808833145E-2,6.233535033E-2
2.013728890E0,-3.101607040E-2,-4.442395270E-2,2.236438729E-2,5.861441815E-2
2.015728623E0,-3.040520661E-2,-4.259135947E-2,2.297525294E-2,5.715210178E-2
2.017728356E0,-3.345953301E-2,-3.831529990E-2,2.541871369E-2,5.686575033E-2
2.019728089E0,-3.101607040E-2,-3.587184101E-2,2.664044313E-2,5.439208408E-2
2.021728722E0,-3.223780170E-2,-2.670885995E-2,2.908390388E-2,5.097560714E-2
2.023728455E0,-3.040520661E-2,-2.304366790E-2,3.152736649E-2,4.949204034E-2
2.025728188E0,-2.918347530E-2,-1.998934336E-2,3.213823214E-2,4.779241617E-2
2.027727921E0,-2.979434282E-2,-1.449155621E-2,3.274909407E-2,4.658552595E-2
2.029727654E0,-2.796174586E-2,-1.021549944E-2,3.030563518E-2,4.248113916E-2
2.031727387E0,-2.857261151E-2,-8.382904343E-3,3.335996345E-2,4.471637703E-2
2.033727120E0,-2.979434282E-2,-5.328577477E-3,3.397082910E-2,4.549850362E-2
2.035726853E0,-2.674001455E-2,1.692096703E-4,3.091650084E-2,4.087648510E-2
2.037726653E0,-2.979434282E-2,5.666996818E-3,3.091650084E-2,4.330874901E-2
2.039726419E0,-2.612915076E-2,5.056131631E-3,3.152736649E-2,4.125859698E-2
2.041726185E0,-2.857261151E-2,1.544084027E-2,2.847304009E-2,4.319175487E-2
2.043726351E0,-2.735088021E-2,1.971689798E-2,2.908390388E-2,4.452752159E-2
2.045726117E0,-2.551828325E-2,2.216035873E-2,2.602957934E-2,4.265915235E-2
2.047725883E0,-2.368569002E-2,2.643641457E-2,2.480784804E-2,4.330502570E-2
2.049725216E0,-2.429655381E-2,3.376679868E-2,2.297525294E-2,4.752243120E-2
2.051724982E0,-2.429655381E-2,3.315593302E-2,2.297525294E-2,4.709034582E-2
2.053724815E0,-2.490741946E-2,3.743198887E-2,1.931006089E-2,4.893272715E-2
2.055724581E0,-2.490741946E-2,4.109717906E-2,1.747746393E-2,5.113530498E-2
2.057724347E0,-2.185309492E-2,4.231891409E-2,1.625573449E-2,5.032590934E-2
2.059724113E0,-2.063136362E-2,4.292977601E-2,1.259054337E-2,4.926601887E-2
2.061723813E0,-1.818790287E-2,4.415150732E-2,1.197967771E-2,4.923076363E-2
2.063723179E0,-1.818790287E-2,4.415150732E-2,8.314486593E-3,4.846943466E-2
2.065722945E0,-1.574444026E-2,4.354064167E-2,6.481891032E-3,4.675136134E-2
2.067722711E0,-1.452271082E-2,4.476236925E-2,6.481891032E-3,4.750361819E-2
2.069722544E0,-1.207924914E-2,4.292977601E-2,1.594969188E-3,4.462530510E-2
2.071722310E0,-1.024665311E-2,3.987545148E-2,-8.484918508E-4,4.117967300E-2
2.073722443E0,-6.581462454E-3,3.559939563E-2,-2.681087470E-3,3.630180226E-2
2.075722209E0,-6.581462454E-3,3.865372017E-2,-3.902818076E-3,3.940377799E-2
2.077721975E0,-1.083674957E-3,3.071247041E-2,-8.178874850E-3,3.180132362E-2
2.079721741E0,-1.694540144E-3,3.010160662E-2,-9.400605224E-3,3.158084176E-2
2.081720741E0,7.489207783E-4,2.399295382E-2,-1.367666200E-2,2.762741028E-2
2.083720574E0,1.359786023E-3,2.093862742E-2,-1.367666200E-2,2.504648118E-2
2.085720407E0,5.024977494E-3,1.910603233E-2,-1.489839237E-2,2.474374598E-2
2.087720173E0,4.414112307E-3,1.421911083E-2,-1.673098840E-2,2.239628257E-2
2.089719939E0,5.024977494E-3,9.332188405E-3,-1.978531480E-2,2.244546326E-2
2.091719705E0,5.635842681E-3,1.177564915E-2,-2.406137064E-2,2.737477293E-2
2.093719471E0,5.024977494E-3,5.666996818E-3,-2.283964120E-2,2.406271934E-2
2.095719237E0,5.024977494E-3,1.390940160E-3,-2.528310195E-2,2.581511877E-2
2.097719003E0,3.803246887E-3,1.692096703E-4,-2.406137064E-2,2.436068299E-2
2.099718803E0,1.970651327E-3,-4.106846638E-3,-2.589396760E-2,2.629158067E-2
2.101718536E0,1.380555477E-4,-1.021549944E-2,-2.589396760E-2,2.783654156E-2
2.103718269E0,1.380555477E-4,-1.082636416E-2,-2.406137064E-2,2.638519997E-2
2.105718002E0,-2.305405447E-3,-1.082636416E-2,-2.406137064E-2,2.648536600E-2
2.107717735E0,-4.748866428E-3,-1.265896019E-2,-2.222877555E-2,2.601767606E-2
2.109717901E0,-7.192327641E-3,-1.510242186E-2,-2.039617859E-2,2.637834006E-2
2.111717634E0,-7.192327641E-3,-1.204809546E-2,-1.795271784E-2,2.278565907E-2
2.113717367E0,-9.635788389E-3,-8.993769065E-3,-1.795271784E-2,2.227187414E-2
2.115717167E0,-1.085751876E-2,-1.143722981E-2,-1.734185405E-2,2.344004781E-2
2.117716667E0,-1.024665311E-2,-7.772038691E-3,-1.550925709E-2,2.014784209E-2
2.119716400E0,-1.513357554E-2,-7.772038691E-3,-1.062233560E-2,2.005651284E-2
2.121716200E0,-1.696617156E-2,-7.772038691E-3,-1.062233560E-2,2.147299645E-2
2.123715933E0,-1.757703535E-2,-8.382904343E-3,-1.123320125E-2,2.248132708E-2
2.125715666E0,-2.063136362E-2,-1.082636416E-2,-9.400605224E-3,2.512438465E-2
2.127715399E0,-2.185309492E-2,-1.143722981E-2,-1.123320125E-2,2.710263444E-2
2.129715132E0,-2.307482250E-2,-1.632415131E-2,-1.184406690E-2,3.064648871E-2
2.131714932E0,-2.246395871E-2,-1.815674827E-2,-1.062233560E-2,3.077549288E-2
2.133714665E0,-2.307482250E-2,-2.670885995E-2,-1.428752672E-2,3.807813090E-2
2.135714398E0,-2.612915076E-2,-3.403924406E-2,-1.612012275E-2,4.583951366E-2
2.137714131E0,-2.735088021E-2,-4.198049009E-2,-1.489839237E-2,5.227230903E-2
2.139713864E0,-2.918347530E-2,-4.870000854E-2,-1.367666200E-2,5.839877692E-2
2.141714530E0,-3.101607040E-2,-6.091731787E-2,-1.367666200E-2,6.971346586E-2
2.143714263E0,-2.857261151E-2,-7.313462347E-2,-1.428752672E-2,7.980727221E-2
2.145713996E0,-2.979434282E-2,-8.107586950E-2,-1.428752672E-2,8.755074471E-2
2.147713796E0,-3.040520661E-2,-9.512577206E-2,-1.184406690E-2,1.005667491E-1
2.149713529E0,-2.857261151E-2,-1.116191298E-1,-1.062233560E-2,1.157067771E-1
2.151713262E0,-2.918347530E-2,-1.195603758E-1,-8.178874850E-3,1.233420151E-1
2.153712995E0,-2.735088021E-2,-1.354428679E-1,-1.001147088E-2,1.385390582E-1
2.155712728E0,-2.612915076E-2,-1.525471061E-1,-8.789739572E-3,1.550181010E-1
2.157712461E0,-2.368569002E-2,-1.562123001E-1,-7.568009198E-3,1.581789157E-1
2.159712194E0,-2.063136362E-2,-1.733165085E-1,-5.735413637E-3,1.746343616E-1
2.161711994E0,-1.818790287E-2,-1.879772842E-1,-4.513683263E-3,1.889090589E-1
2.163712760E0,-1.818790287E-2,-1.879772842E-1,-4.513683263E-3,1.889090589E-1
2.165712493E0,-1.513357554E-2,-2.001945972E-1,-3.291952889E-3,2.007927758E-1
2.167712226E0,-1.085751876E-2,-2.093575746E-1,-5.124548450E-3,2.097015516E-1
2.169711959E0,-1.024665311E-2,-2.111901641E-1,-4.513683263E-3,2.114867671E-1
2.171711692E0,-8.414058015E-3,-2.179096788E-1,-5.735413637E-3,2.181474718E-1
2.173711425E0,-2.916270634E-3,-2.258509398E-1,-6.957144476E-3,2.259768870E-1
2.175711158E0,-4.138000775E-3,-2.276835293E-1,-6.957144476E-3,2.278273785E-1
2.177711191E0,-2.305405447E-3,-2.301269770E-1,-1.062233560E-2,2.303835377E-1
2.179710991E0,1.359786023E-3,-2.356247753E-1,-7.568009198E-3,2.357502036E-1
2.181710657E0,6.246707868E-3,-2.307378501E-1,-1.123320125E-2,2.310955682E-1
2.183710390E0,5.635842681E-3,-2.337921709E-1,-1.062233560E-2,2.341012087E-1
2.185710123E0,1.113362983E-2,-2.307378501E-1,-1.367666200E-2,2.314108127E-1
2.187709856E0,1.235536020E-2,-2.258509398E-1,-1.184406690E-2,2.264985294E-1
2.189709589E0,1.663141698E-2,-2.203531563E-1,-1.001147088E-2,2.212065711E-1
2.191709322E0,1.846401207E-2,-2.118010223E-1,-1.001147088E-2,2.128398984E-1
2.193709122E0,2.212920412E-2,-2.063032389E-1,-1.123320125E-2,2.077905504E-1
2.195708855E0,2.335093543E-2,-1.971402615E-1,-1.001147088E-2,1.987706680E-1
2.197708588E0,2.701612748E-2,-1.830903590E-1,-7.568009198E-3,1.852274965E-1
2.199708321E0,2.884872258E-2,-1.824794859E-1,-6.346279290E-3,1.848547722E-1
2.201707121E0,3.373564407E-2,-1.665969938E-1,-4.513683263E-3,1.700383056E-1
2.203706854E0,3.862256557E-2,-1.629318148E-1,-6.346279290E-3,1.675671630E-1
2.205706587E0,3.862256557E-2,-1.507145017E-1,-6.957144476E-3,1.557400574E-1
2.207706320E0,4.350948706E-2,-1.446058452E-1,-6.346279290E-3,1.511429826E-1
2.209706120E0,4.839640856E-2,-1.397189349E-1,-5.735413637E-3,1.479746198E-1
2.211705853E0,4.717467725E-2,-1.329994202E-1,-8.789739572E-3,1.413914971E-1
2.213705586E0,5.267246813E-2,-1.244473010E-1,-9.400605224E-3,1.354617696E-1
2.215705319E0,5.389419571E-2,-1.158951893E-1,-1.062233560E-2,1.282540965E-1
2.217705052E0,5.511592701E-2,-1.103973985E-1,-1.123320125E-2,1.239013148E-1
2.219704785E0,5.755938590E-2,-1.000126898E-1,-1.062233560E-2,1.158812109E-1
2.221704518E0,6.122457981E-2,-8.901711553E-2,-1.062233560E-2,1.085602600E-1
2.223703284E0,6.122457981E-2,-8.229760081E-2,-8.789739572E-3,1.029495206E-1
2.225703084E0,6.366804242E-2,-7.313462347E-2,-9.400605224E-3,9.742003980E-2
2.227702817E0,6.488977373E-2,-6.336077303E-2,-8.178874850E-3,9.106132157E-2
2.229702117E0,6.672236323E-2,-6.030644849E-2,-8.789739572E-3,9.036592835E-2
2.231701850E0,6.550063193E-2,-5.114347115E-2,-5.124548450E-3,8.326012504E-2
2.233701583E0,6.672236323E-2,-4.808914661E-2,-1.459356979E-3,8.225916059E-2
2.235701316E0,6.672236323E-2,-4.014789686E-2,-2.376265766E-4,7.787030142E-2
2.237701049E0,6.794410199E-2,-4.075876251E-2,1.594969188E-3,7.924784945E-2
2.239700782E0,6.672236323E-2,-3.403924406E-2,4.038430285E-3,7.501235105E-2
2.241701615E0,6.672236323E-2,-3.465010971E-2,1.014708262E-2,7.586479516E-2
2.243701348E0,6.427890807E-2,-3.220665082E-2,1.320140809E-2,7.309804071E-2
2.245701081E0,6.427890807E-2,-2.976318821E-2,1.747746393E-2,7.295948973E-2
2.247700814E0,6.244631112E-2,-2.976318821E-2,1.503400411E-2,7.079131602E-2
2.249700547E0,6.427890807E-2,-3.098491952E-2,1.992092654E-2,7.408567051E-2
2.251700280E0,6.366804242E-2,-2.670885995E-2,2.053179219E-2,7.203150225E-2
2.253700013E0,6.122457981E-2,-2.731972747E-2,2.297525294E-2,7.087086093E-2
2.255699813E0,5.633765832E-2,-2.243280411E-2,2.358611859E-2,6.506510151E-2
2.257699613E0,5.511592701E-2,-1.998934336E-2,2.358611859E-2,6.319528660E-2
2.259699346E0,5.511592701E-2,-1.754588261E-2,2.175352350E-2,6.179675713E-2
2.261699079E0,5.267246813E-2,-1.204809546E-2,2.053179219E-2,5.780224903E-2
2.263698812E0,5.145073682E-2,-7.161173504E-3,1.992092654E-2,5.563545668E-2
2.265698545E0,4.961813986E-2,-7.772038691E-3,1.931006089E-2,5.380746082E-2
2.267698278E0,5.083987117E-2,-1.052520820E-3,1.686660014E-2,5.357501751E-2
2.269698011E0,4.900727421E-2,1.390940160E-3,1.747746393E-2,5.204910552E-2
2.271697811E0,5.022900552E-2,3.223536070E-3,1.442313939E-2,5.235810472E-2
2.273697544E0,5.267246813E-2,3.834401025E-3,1.442313939E-2,5.474594487E-2
2.275697277E0,5.083987117E-2,1.390940160E-3,1.320140809E-2,5.254430883E-2
2.277697010E0,5.328333378E-2,3.223536070E-3,8.925352246E-3,5.412177710E-2
2.279696743E0,5.633765832E-2,6.277862005E-3,1.075794827E-2,5.769815202E-2
2.281696409E0,5.755938590E-2,4.445266444E-3,5.260160659E-3,5.796992831E-2
2.283697242E0,6.000284851E-2,7.499592844E-3,3.427564865E-3,6.056677243E-2
2.285696975E0,6.366804242E-2,8.721322753E-3,3.732386394E-4,6.426367873E-2
2.287696775E0,6.550063193E-2,9.943053126E-3,-2.681087470E-3,6.630524352E-2
2.289696941E0,6.794410199E-2,1.238651481E-2,-5.124548450E-3,6.925379225E-2
2.291696674E0,7.344188541E-2,1.421911083E-2,-8.178874850E-3,7.525149593E-2
2.293696407E0,7.832880318E-2,1.299738046E-2,-1.306579728E-2,8.046768522E-2
2.295696140E0,7.893967628E-2,1.727343537E-2,-1.306579728E-2,8.185694302E-2
2.297695873E0,8.565919101E-2,1.177564915E-2,-1.673098840E-2,8.806866009E-2
2.299695606E0,9.176784754E-2,1.055391878E-2,-1.978531480E-2,9.446788727E-2
2.301694372E0,9.360044450E-2,8.110457100E-3,-2.345050685E-2,9.683361501E-2
2.303694338E0,9.787649661E-2,6.277862005E-3,-2.283964120E-2,1.007018836E-1
2.305694071E0,1.039851457E-1,6.888727192E-3,-2.650483139E-2,1.075307917E-1
2.307693804E0,1.052068770E-1,6.277862005E-3,-2.650483139E-2,1.086756854E-1
2.309693537E0,1.113155261E-1,7.499592844E-3,-2.772656269E-2,1.149615262E-1
2.311693270E0,1.186459139E-1,9.332188405E-3,-2.894829400E-2,1.224824328E-1
2.313693003E0,1.223111004E-1,1.299738046E-2,-3.139175475E-2,1.269424257E-1
2.315692736E0,1.241436973E-1,1.666257158E-2,-3.139175475E-2,1.291307134E-1
2.317692469E0,1.271980256E-1,2.338209003E-2,-3.261348233E-2,1.333780307E-1
2.319692269E0,1.308632195E-1,2.887987718E-2,-3.017002344E-2,1.373661524E-1
2.321692835E0,1.320849508E-1,3.132333606E-2,-3.139175475E-2,1.393306423E-1
2.323692568E0,1.363610029E-1,3.804285452E-2,-3.200262040E-2,1.451404479E-1
2.325692101E0,1.369718760E-1,4.537323862E-2,-3.200262040E-2,1.477978123E-1
2.327691834E0,1.400261968E-1,5.026016012E-2,-3.139175475E-2,1.520488795E-1
2.329691567E0,1.400261968E-1,6.064487249E-2,-3.078088909E-2,1.556682353E-1
2.331691300E0,1.394153237E-1,6.186660007E-2,-3.078088909E-2,1.556006807E-1
2.333691100E0,1.412479281E-1,6.919698417E-2,-2.650483139E-2,1.595045639E-1
2.335690900E0,1.388044655E-1,7.652736455E-2,-2.772656269E-2,1.609095381E-1
2.337690633E0,1.400261968E-1,7.835996151E-2,-2.711569704E-2,1.627356150E-1
2.339690366E0,1.381936073E-1,8.202515543E-2,-2.589396760E-2,1.627762169E-1
2.341690166E0,1.326958090E-1,8.446861058E-2,-2.283964120E-2,1.589489639E-1
2.343688732E0,1.308632195E-1,8.202515543E-2,-2.161790989E-2,1.559507691E-1
2.345688465E0,1.259762943E-1,8.263601363E-2,-1.856358349E-2,1.518003429E-1
2.347688198E0,1.210893691E-1,8.080342412E-2,-1.734185405E-2,1.466034398E-1
2.349687998E0,1.162024513E-1,7.469476759E-2,-1.367666200E-2,1.388141530E-1
2.351687798E0,1.107046679E-1,7.164043933E-2,-1.062233560E-2,1.322902493E-1
2.353687531E0,1.021525487E-1,7.041871548E-2,-8.789739572E-3,1.243832715E-1
2.355687264E0,9.604389966E-2,6.431005895E-2,-6.346279290E-3,1.157604838E-1
2.357686997E0,8.993525058E-2,6.247746199E-2,-3.291952889E-3,1.095564672E-1
2.359686730E0,8.016140014E-2,5.820140988E-2,3.732386394E-4,9.906257361E-2
2.361686396E0,6.855496019E-2,5.942313746E-2,1.594969188E-3,9.073828166E-2
2.363685962E0,6.366804242E-2,6.003400311E-2,2.816699678E-3,8.755361187E-2
2.365685762E0,5.389419571E-2,5.759054050E-2,5.871025845E-3,7.909313264E-2
2.367685495E0,4.717467725E-2,5.453621596E-2,7.703621406E-3,7.251892724E-2
2.369685228E0,3.495737538E-2,5.759054050E-2,1.014708262E-2,6.812966853E-2
2.371684961E0,2.457266673E-2,6.125573441E-2,1.259054337E-2,6.719079350E-2
2.373684694E0,1.968574338E-2,6.064487249E-2,1.442313939E-2,6.537091097E-2
2.375684427E0,9.911899455E-3,6.308832765E-2,1.625573449E-2,6.589864748E-2
2.377684160E0,1.380555477E-4,6.797525287E-2,1.747746393E-2,7.018629358E-2
2.379683893E0,-8.414058015E-3,7.164043933E-2,1.931006089E-2,7.467280209E-2
2.381682859E0,-1.452271082E-2,7.591649890E-2,1.931006089E-2,7.966870393E-2
2.383682592E0,-2.612915076E-2,7.713823020E-2,2.175352350E-2,8.429860535E-2
2.385682525E0,-2.979434282E-2,7.835996151E-2,2.114265598E-2,8.645807269E-2
2.387682258E0,-3.834645450E-2,8.080342412E-2,2.236438729E-2,9.219441274E-2
2.389681991E0,-4.506597295E-2,8.507947624E-2,2.480784804E-2,9.942277666E-2
2.391681724E0,-4.995289445E-2,8.385775238E-2,2.419698425E-2,1.005629571E-1
2.393681457E0,-5.300722271E-2,8.446861058E-2,2.847304009E-2,1.037083692E-1
2.395681190E0,-5.728327483E-2,8.202515543E-2,2.908390388E-2,1.041891221E-1
2.397680990E0,-5.789414048E-2,8.507947624E-2,3.030563518E-2,1.072785174E-1
2.399680723E0,-6.033760309E-2,8.263601363E-2,3.213823214E-2,1.072483243E-1
2.401680656E0,-6.339193135E-2,8.202515543E-2,3.397082910E-2,1.090902393E-1
2.403680222E0,-6.217020005E-2,7.897082716E-2,3.580342233E-2,1.066930662E-1
2.405679955E0,-6.033760309E-2,7.897082716E-2,3.641428798E-2,1.058443114E-1
2.407679688E0,-5.850500986E-2,7.713823020E-2,4.007947817E-2,1.047831442E-1
2.409679421E0,-5.545068532E-2,7.835996151E-2,4.007947817E-2,1.040260863E-1
2.411679154E0,-5.361808836E-2,7.652736455E-2,4.007947817E-2,1.016744879E-1
2.413678954E0,-4.873116314E-2,7.774908841E-2,4.374467209E-2,1.016525619E-1
2.415678687E0,-4.384424165E-2,8.202515543E-2,4.130120948E-2,1.017655814E-1
2.417678420E0,-3.468126431E-2,8.385775238E-2,4.374467209E-2,1.007398087E-1
2.419678153E0,-3.040520661E-2,8.569034934E-2,4.435553774E-2,1.011668240E-1
2.421677919E0,-1.757703535E-2,8.996640146E-2,4.618813470E-2,1.026462340E-1
2.423677652E0,-1.024665311E-2,9.057725966E-2,4.435553774E-2,1.013738013E-1
2.425677385E0,-5.970596801E-3,9.363159537E-2,4.496639967E-2,1.040408611E-1
2.427677185E0,3.803246887E-3,9.912937880E-2,4.374467209E-2,1.084190701E-1
2.429676985E0,1.479882188E-2,9.974024445E-2,4.435553774E-2,1.101568664E-1
2.431676718E0,2.151833847E-2,9.729678184E-2,4.435553774E-2,1.090739033E-1
2.433677051E0,2.884872258E-2,9.607505053E-2,4.557726532E-2,1.101814469E-1
2.435676784E0,4.045516253E-2,9.607505053E-2,4.557726532E-2,1.137731191E-1
2.437676517E0,4.534208402E-2,9.179899842E-2,4.374467209E-2,1.113398268E-1
2.439676250E0,5.267246813E-2,8.935553581E-2,4.252294078E-2,1.121026368E-1
2.441675983E0,6.122457981E-2,8.507947624E-2,4.313380271E-2,1.133467749E-1
2.443675783E0,6.366804242E-2,8.141428232E-2,4.496639967E-2,1.127114994E-1
2.445675549E0,7.099842280E-2,7.530563325E-2,4.435553774E-2,1.126016348E-1
2.447675315E0,7.283101976E-2,6.919698417E-2,4.313380271E-2,1.093302565E-1
2.449675081E0,7.405275106E-2,6.369919330E-2,4.679899663E-2,1.083122489E-1
2.451674847E0,7.649620622E-2,5.942313746E-2,4.435553774E-2,1.065372825E-1
2.453674613E0,7.832880318E-2,4.964929447E-2,4.496639967E-2,1.030651782E-1
2.455674379E0,7.588534802E-2,4.354064167E-2,4.740986228E-2,9.950913809E-2
2.457674145E0,7.527448237E-2,3.987545148E-2,4.740986228E-2,9.748843197E-2
2.459673978E0,7.405275106E-2,3.193420172E-2,4.740986228E-2,9.354837369E-2
2.461673478E0,7.283101976E-2,2.460381947E-2,4.985332489E-2,9.162455661E-2
2.463673044E0,6.977669895E-2,2.460381947E-2,5.046418682E-2,8.955875055E-2
2.465672810E0,6.550063193E-2,2.032776177E-2,4.924245924E-2,8.442967768E-2
2.467672576E0,6.122457981E-2,2.032776177E-2,4.863159359E-2,8.078798776E-2
2.469672342E0,5.755938590E-2,1.788430288E-2,4.924245924E-2,7.783155521E-2
2.471672108E0,5.022900552E-2,1.849516667E-2,4.740986228E-2,7.150328123E-2
2.473671874E0,4.717467725E-2,1.727343537E-2,4.679899663E-2,6.865834129E-2
2.475671707E0,3.801169991E-2,1.666257158E-2,4.435553774E-2,6.074491214E-2
2.477671473E0,3.434650972E-2,1.605170593E-2,4.374467209E-2,5.788727261E-2
2.479671239E0,2.945958637E-2,1.544084027E-2,4.374467209E-2,5.495346316E-2
2.481671039E0,2.151833847E-2,1.788430288E-2,4.130120948E-2,4.988664235E-2
2.483670805E0,1.174449548E-2,1.605170593E-2,4.007947817E-2,4.474321187E-2
2.485670571E0,9.301033802E-3,1.544084027E-2,4.130120948E-2,4.506349612E-2
2.487670337E0,3.803246887E-3,1.666257158E-2,4.069034755E-2,4.413400460E-2
2.489670103E0,-2.916270634E-3,2.093862742E-2,4.007947817E-2,4.531330184E-2
2.491669936E0,-6.581462454E-3,2.277122252E-2,4.130120948E-2,4.761968214E-2
2.493669102E0,-9.635788389E-3,2.277122252E-2,4.130120948E-2,4.813695978E-2
2.495668868E0,-1.635530591E-2,2.460381947E-2,4.130120948E-2,5.078025077E-2
2.497668634E0,-1.879876666E-2,2.643641457E-2,4.130120948E-2,5.251730712E-2
2.499668400E0,-2.124222741E-2,3.071247041E-2,4.252294078E-2,5.659230122E-2
2.501668166E0,-2.612915076E-2,3.315593302E-2,4.618813470E-2,6.257309487E-2
2.503667799E0,-2.551828325E-2,3.254506737E-2,4.374467209E-2,6.019933992E-2
2.505667599E0,-2.796174586E-2,3.193420172E-2,4.435553774E-2,6.139272106E-2
2.507667399E0,-2.857261151E-2,3.254506737E-2,4.618813470E-2,6.331602740E-2
2.509667132E0,-3.040520661E-2,3.376679868E-2,4.679899663E-2,6.522897644E-2
2.511666865E0,-2.979434282E-2,3.621025756E-2,4.679899663E-2,6.624976756E-2
2.513666598E0,-3.040520661E-2,3.682112321E-2,4.618813470E-2,6.643504715E-2
2.515666331E0,-2.918347530E-2,3.498852998E-2,4.435553774E-2,6.358683975E-2
2.517666064E0,-2.796174586E-2,3.193420172E-2,4.679899663E-2,6.318068183E-2
2.519665797E0,-2.979434282E-2,3.559939563E-2,4.435553774E-2,6.420618009E-2
2.521665663E0,-2.307482250E-2,3.743198887E-2,4.130120948E-2,6.032736633E-2
2.523666129E0,-2.429655381E-2,3.437766433E-2,4.130120948E-2,5.897403018E-2
2.525665862E0,-2.002049796E-2,3.193420172E-2,3.946861252E-2,5.457458156E-2
2.527665595E0,-1.940963231E-2,3.437766433E-2,3.885775059E-2,5.539388425E-2
2.529665328E0,-1.391184516E-2,3.010160662E-2,3.580342233E-2,4.880093450E-2
2.531665061E0,-7.803192828E-3,3.010160662E-2,3.274909407E-2,4.516082043E-2
2.533664794E0,-5.359731615E-3,3.010160662E-2,3.030563518E-2,4.304956409E-2
2.535664527E0,-4.728097119E-4,2.887987718E-2,2.786217444E-2,4.013192768E-2
2.537664293E0,3.803246887E-3,2.582555078E-2,2.297525294E-2,3.477478983E-2
2.539664026E0,5.635842681E-3,2.643641457E-2,2.480784804E-2,3.668890925E-2
2.541664826E0,1.357709151E-2,2.643641457E-2,1.747746393E-2,3.447728491E-2
2.543664559E0,1.724228263E-2,2.460381947E-2,1.442313939E-2,3.332673391E-2
2.545664292E0,1.968574338E-2,2.399295382E-2,1.197967771E-2,3.326714601E-2
2.547664025E0,2.579439618E-2,2.643641457E-2,7.092756219E-3,3.761039856E-2
2.549663758E0,3.251391277E-2,2.521468513E-2,1.594969188E-3,4.117619210E-2
2.551663491E0,3.495737538E-2,2.154949307E-2,9.841038845E-4,4.107757546E-2
2.553663291E0,3.740083799E-2,2.338209003E-2,-3.902818076E-3,4.428065950E-2
2.555663024E0,4.473122209E-2,2.399295382E-2,-1.062233560E-2,5.185921400E-2
2.557662757E0,4.228775948E-2,2.582555078E-2,-1.123320125E-2,5.080746486E-2
2.559662490E0,4.778554663E-2,2.399295382E-2,-1.550925709E-2,5.567456650E-2
2.561662223E0,4.656381533E-2,2.460381947E-2,-1.978531480E-2,5.625829283E-2
2.563661589E0,5.022900552E-2,2.521468513E-2,-2.406137064E-2,6.113659214E-2
2.565661322E0,5.083987117E-2,2.582555078E-2,-2.711569704E-2,6.314200345E-2
2.567661055E0,5.083987117E-2,2.643641457E-2,-2.833742648E-2,6.392641282E-2
2.569660855E0,5.145073682E-2,2.765814587E-2,-3.017002344E-2,6.574482236E-2
2.571660588E0,5.267246813E-2,3.071247041E-2,-3.017002344E-2,6.802848706E-2
2.573660321E0,5.022900552E-2,3.498852998E-2,-3.017002344E-2,6.824500377E-2
2.575660054E0,5.328333378E-2,3.621025756E-2,-3.200262040E-2,7.193374815E-2
2.577659787E0,5.389419571E-2,3.926458210E-2,-2.894829400E-2,7.269315967E-2
2.579659520E0,5.389419571E-2,4.231891409E-2,-2.894829400E-2,7.438735474E-2
2.581659186E0,5.511592701E-2,4.354064167E-2,-2.772656269E-2,7.551367536E-2
2.583657919E0,5.267246813E-2,5.026016012E-2,-2.833742648E-2,7.812478693E-2
2.585657719E0,5.511592701E-2,4.903842881E-2,-2.528310195E-2,7.798569199E-2
2.587657452E0,5.450506136E-2,5.026016012E-2,-2.406137064E-2,7.794764247E-2
2.589657185E0,5.450506136E-2,5.209275335E-2,-2.406137064E-2,7.914168448E-2
2.591656918E0,5.328333378E-2,5.087102577E-2,-2.100704610E-2,7.660464025E-2
2.593656651E0,5.206159875E-2,5.392535031E-2,-2.039617859E-2,7.768112751E-2
2.595656384E0,5.267246813E-2,5.209275335E-2,-1.978531480E-2,7.667791424E-2
2.597656150E0,4.778554663E-2,5.026016012E-2,-1.917444915E-2,7.195277383E-2
2.599655950E0,4.900727421E-2,4.598410428E-2,-2.039617859E-2,7.023001404E-2
2.601654683E0,4.412035272E-2,3.987545148E-2,-1.734185405E-2,6.194672756E-2
2.603655249E0,4.289862514E-2,3.926458210E-2,-1.612012275E-2,6.034780695E-2
2.605654982E0,4.412035272E-2,3.559939563E-2,-1.734185405E-2,5.928458817E-2
2.607654715E0,3.984429687E-2,3.132333606E-2,-1.673098840E-2,5.337270228E-2
2.609654448E0,3.801169991E-2,2.032776177E-2,-1.245493162E-2,4.486906006E-2
2.611654181E0,3.801169991E-2,1.666257158E-2,-1.184406690E-2,4.316031213E-2
2.613653914E0,3.373564407E-2,4.445266444E-3,-1.062233560E-2,3.564671217E-2
2.615653714E0,3.251391277E-2,-5.939442664E-3,-1.123320125E-2,3.490868535E-2
2.617653447E0,3.068131767E-2,-1.326982584E-2,-8.789739572E-3,3.456430317E-2
2.619653180E0,3.068131767E-2,-2.976318821E-2,-8.789739572E-3,4.364000628E-2
2.621653880E0,2.518353052E-2,-3.770443797E-2,-6.346279290E-3,4.578329513E-2
2.623654113E0,2.151833847E-2,-4.442395270E-2,-4.513683263E-3,4.956712419E-2
2.625653846E0,2.090747468E-2,-5.419779569E-2,-3.291952889E-3,5.818385093E-2
2.627653579E0,1.907487959E-2,-6.519337744E-2,-2.070222283E-3,6.795817326E-2
2.629653312E0,1.785314828E-2,-6.580423564E-2,3.732386394E-4,6.818410107E-2
2.631653112E0,1.479882188E-2,-7.618895173E-2,1.594969188E-3,7.762928199E-2
2.633652845E0,1.479882188E-2,-8.535192162E-2,3.732386394E-4,8.662617942E-2
2.635652578E0,9.911899455E-3,-8.901711553E-2,3.427564865E-3,8.963281101E-2
2.637652311E0,9.911899455E-3,-9.818009287E-2,4.038430285E-3,9.876176034E-2
2.639652044E0,8.079303429E-3,-1.042887494E-1,4.649295472E-3,1.047045097E-1
2.641651810E0,6.857573055E-3,-1.079539433E-1,4.038430285E-3,1.082468896E-1
2.643652310E0,5.024977494E-3,-1.085648015E-1,8.314486593E-3,1.089986111E-1
2.645652043E0,1.359786023E-3,-1.152843237E-1,7.703621406E-3,1.155494270E-1
2.647651843E0,4.414112307E-3,-1.134517267E-1,7.703621406E-3,1.137986137E-1
2.649651576E0,1.380555477E-4,-1.128408611E-1,9.536217898E-3,1.132431828E-1
2.651651309E0,1.359786023E-3,-1.103973985E-1,7.703621406E-3,1.106742083E-1
2.653651042E0,2.581516514E-3,-1.128408611E-1,1.014708262E-2,1.133255816E-1
2.655650775E0,-4.728097119E-4,-1.116191298E-1,1.259054337E-2,1.123279817E-1
2.657650508E0,1.359786023E-3,-1.116191298E-1,1.259054337E-2,1.123352168E-1
2.659650241E0,1.380555477E-4,-1.116191298E-1,1.197967771E-2,1.122602417E-1
2.661649907E0,1.359786023E-3,-1.122299954E-1,1.320140809E-2,1.130119377E-1
2.663648873E0,7.489207783E-4,-1.097865403E-1,1.320140809E-2,1.105799371E-1
2.665648606E0,2.581516514E-3,-1.091756672E-1,1.747746393E-2,1.105958963E-1
2.667648339E0,3.803246887E-3,-1.055104733E-1,1.564487070E-2,1.067318445E-1
2.669648072E0,8.079303429E-3,-1.073430702E-1,1.564487070E-2,1.087776257E-1
2.671647805E0,9.301033802E-3,-1.048996150E-1,1.808833145E-2,1.068532929E-1
2.673647538E0,1.174449548E-2,-1.067322046E-1,1.808833145E-2,1.088893218E-1
2.675647271E0,1.540968660E-2,-1.048996150E-1,1.869919524E-2,1.076617276E-1
2.677647071E0,1.602055132E-2,-1.012344211E-1,1.992092654E-2,1.044122091E-1
2.679646871E0,2.212920412E-2,-9.940182418E-2,1.808833145E-2,1.034292611E-1
2.681645637E0,2.640526183E-2,-9.573663026E-2,1.747746393E-2,1.008375028E-1
2.683645370E0,2.884872258E-2,-9.512577206E-2,1.808833145E-2,1.010363748E-1
2.685645103E0,3.373564407E-2,-9.023884684E-2,1.564487070E-2,9.760074354E-2
2.687644836E0,3.801169991E-2,-8.779538423E-2,1.381227374E-2,9.666280426E-2
2.689644569E0,4.167689011E-2,-8.413019776E-2,1.197967771E-2,9.464864512E-2
2.691644302E0,5.083987117E-2,-8.168672770E-2,1.075794827E-2,9.681501657E-2
2.693644102E0,5.633765832E-2,-7.863240689E-2,7.092756219E-3,9.699120758E-2
2.695643868E0,6.000284851E-2,-7.557807863E-2,3.427564865E-3,9.656156585E-2
2.697643634E0,6.550063193E-2,-7.191288471E-2,9.841038845E-4,9.727674044E-2
2.699643400E0,7.283101976E-2,-6.763683259E-2,-2.070222283E-3,9.941521203E-2
2.701643166E0,8.077227324E-2,-6.152817979E-2,-3.291952889E-3,1.015909149E-1
2.703642932E0,8.321572840E-2,-6.152817979E-2,-2.681087470E-3,1.035266275E-1
2.705642698E0,9.054610878E-2,-6.213904545E-2,-7.568009198E-3,1.100778522E-1
2.707642464E0,9.237870574E-2,-6.336077303E-2,-1.123320125E-2,1.125815155E-1
2.709642297E0,9.787649661E-2,-6.091731787E-2,-1.184406690E-2,1.158922350E-1
2.711642163E0,1.027634218E-1,-6.030644849E-2,-1.489839237E-2,1.200797680E-1
2.713642029E0,1.052068770E-1,-5.847385526E-2,-1.428752672E-2,1.212097856E-1
2.715641895E0,1.094829366E-1,-6.091731787E-2,-1.550925709E-2,1.262456735E-1
2.717641761E0,1.137589887E-1,-6.152817979E-2,-1.734185405E-2,1.304897096E-1
2.719641627E0,1.149807200E-1,-6.213904545E-2,-1.673098840E-2,1.317640046E-1
2.721642060E0,1.180350482E-1,-6.458250433E-2,-1.550925709E-2,1.354389513E-1
2.723641926E0,1.186459139E-1,-6.213904545E-2,-1.612012275E-2,1.348998599E-1
2.725641859E0,1.235328391E-1,-6.152817979E-2,-1.550925709E-2,1.388762626E-1
2.727641792E0,1.235328391E-1,-6.091731787E-2,-1.489839237E-2,1.385396840E-1
2.729641725E0,1.271980256E-1,-5.969558284E-2,-1.245493162E-2,1.410603617E-1
2.731641658E0,1.278088987E-1,-6.336077303E-2,-1.367666200E-2,1.433065010E-1
2.733641591E0,1.284197569E-1,-6.152817979E-2,-1.062233560E-2,1.427942047E-1
2.735641524E0,1.265871525E-1,-6.519337744E-2,-1.062233560E-2,1.427841646E-1
2.737641457E0,1.278088987E-1,-6.702596694E-2,-1.062233560E-2,1.447080815E-1
2.739641390E0,1.278088987E-1,-6.946942955E-2,-9.400605224E-3,1.457720399E-1
2.741641390E0,1.284197569E-1,-6.824769825E-2,-7.568009198E-3,1.456250564E-1
2.743641356E0,1.265871525E-1,-7.252375782E-2,-8.789739572E-3,1.461549251E-1
2.745640889E0,1.253654361E-1,-7.679980993E-2,-6.346279290E-3,1.471563068E-1
2.747640855E0,1.241436973E-1,-7.557807863E-2,-5.124548450E-3,1.454302738E-1
2.749640821E0,1.229219660E-1,-7.802154869E-2,-6.346279290E-3,1.457307347E-1
2.751640787E0,1.186459139E-1,-8.168672770E-2,-3.291952889E-3,1.440847366E-1
2.753640753E0,1.192567721E-1,-8.290845901E-2,-6.346279290E-3,1.453831680E-1
2.755640753E0,1.162024513E-1,-8.107586950E-2,-3.902818076E-3,1.417446235E-1
2.757640753E0,1.168133169E-1,-7.924327254E-2,-7.568009198E-3,1.413581339E-1
2.759640719E0,1.143698543E-1,-7.863240689E-2,-5.124548450E-3,1.388876524E-1
2.761640652E0,1.113155261E-1,-7.496721298E-2,-4.513683263E-3,1.342818033E-1
2.763640618E0,1.082612053E-1,-7.435635477E-2,-6.957144476E-3,1.315209410E-1
2.765640584E0,1.088720709E-1,-7.069116086E-2,-5.735413637E-3,1.299356110E-1
2.767640550E0,1.058177426E-1,-7.191288471E-2,-6.346279290E-3,1.280981378E-1
2.769640516E0,1.058177426E-1,-7.008029521E-2,-6.957144476E-3,1.271103627E-1
2.771640449E0,1.045960188E-1,-6.397163868E-2,-4.513683263E-3,1.226909574E-1
2.773640382E0,1.033742800E-1,-6.091731787E-2,-4.513683263E-3,1.200730391E-1
2.775640315E0,1.039851457E-1,-5.480866134E-2,-6.346279290E-3,1.177165033E-1
2.777640248E0,1.021525487E-1,-5.358693376E-2,-6.346279290E-3,1.155291216E-1
2.779640181E0,9.970909357E-2,-4.747828096E-2,-7.568009198E-3,1.106949198E-1
2.781639614E0,9.787649661E-2,-4.136962444E-2,-1.001147088E-2,1.067308951E-1
2.783639547E0,9.970909357E-2,-3.770443797E-2,-1.123320125E-2,1.071900779E-1
2.785639480E0,9.482216835E-2,-3.403924406E-2,-1.428752672E-2,1.017548385E-1
2.787639413E0,9.421130270E-2,-2.854145691E-2,-1.367666200E-2,9.938528765E-2
2.789639279E0,9.115697443E-2,-2.426539920E-2,-1.489839237E-2,9.550060566E-2
2.791639145E0,9.298957139E-2,-2.182194032E-2,-1.917444915E-2,9.742133733E-2
2.793639011E0,8.993525058E-2,-1.815674827E-2,-2.161790989E-2,9.426213891E-2
2.795638877E0,9.054610878E-2,-1.388069056E-2,-2.222877555E-2,9.426234587E-2
2.797638743E0,8.871351928E-2,-1.388069056E-2,-2.589396760E-2,9.345191079E-2
2.799638609E0,8.993525058E-2,-1.204809546E-2,-2.589396760E-2,9.436102723E-2
2.801638442E0,8.565919101E-2,-8.382904343E-3,-2.589396760E-2,8.987918362E-2
2.803638342E0,8.443745971E-2,-5.939442664E-3,-2.650483139E-2,8.869874671E-2
2.805638608E0,8.321572840E-2,-4.106846638E-3,-2.711569704E-2,8.761840371E-2
2.807638441E0,8.382659405E-2,-1.663386123E-3,-2.711569704E-2,8.811881610E-2
2.809638274E0,8.260486275E-2,3.223536070E-3,-2.589396760E-2,8.662824073E-2
2.811638107E0,8.138313144E-2,9.332188405E-3,-2.833742648E-2,8.667937219E-2
2.813637940E0,8.077227324E-2,8.110457100E-3,-2.283964120E-2,8.433023686E-2
2.815637773E0,8.138313144E-2,1.605170593E-2,-2.406137064E-2,8.637025474E-2
2.817637606E0,7.527448237E-2,2.216035873E-2,-1.917444915E-2,8.077740213E-2
2.819637472E0,7.710707933E-2,2.338209003E-2,-2.039617859E-2,8.311575012E-2
2.821637305E0,7.099842280E-2,3.071247041E-2,-1.673098840E-2,7.914516948E-2
2.823637071E0,7.038755715E-2,3.071247041E-2,-1.673098840E-2,7.859764636E-2
2.825636871E0,6.672236323E-2,3.437766433E-2,-1.489839237E-2,7.652228208E-2
2.827636671E0,6.427890807E-2,4.170804471E-2,-1.673098840E-2,7.843000057E-2
2.829636471E0,6.061371788E-2,4.231891409E-2,-1.550925709E-2,7.553443149E-2
2.831636271E0,5.755938590E-2,4.231891409E-2,-1.245493162E-2,7.251964365E-2
2.833636071E0,5.267246813E-2,4.720583186E-2,-1.062233560E-2,7.152351692E-2
2.835635871E0,4.595294967E-2,4.415150732E-2,-1.184406690E-2,6.481752157E-2
2.837635604E0,4.534208402E-2,4.781670123E-2,-1.062233560E-2,6.674710116E-2
2.839635337E0,4.106602818E-2,4.659496620E-2,-1.123320125E-2,6.311651413E-2
2.841635003E0,3.434650972E-2,4.476236925E-2,-1.062233560E-2,5.741242413E-2
2.843634736E0,3.251391277E-2,3.804285452E-2,-1.062233560E-2,5.115903944E-2
2.845634469E0,2.701612748E-2,3.315593302E-2,-8.178874850E-3,4.354401259E-2
2.847634202E0,2.090747468E-2,3.010160662E-2,-1.001147088E-2,3.799287786E-2
2.849634002E0,1.907487959E-2,2.704728208E-2,-7.568009198E-3,3.395115996E-2
2.851634302E0,1.663141698E-2,2.093862742E-2,-5.124548450E-3,2.722666241E-2
2.853634035E0,1.113362983E-2,1.360824518E-2,-5.124548450E-3,1.831401231E-2
2.855633768E0,9.911899455E-3,1.482997555E-2,-2.681087470E-3,1.803779797E-2
2.857633501E0,7.468438707E-3,1.055391878E-2,-2.376265766E-4,1.293132803E-2
2.859633234E0,5.024977494E-3,5.056131631E-3,2.816699678E-3,7.664767639E-3
2.861633000E0,7.489207783E-4,5.666996818E-3,1.594969188E-3,5.934615571E-3
2.863632733E0,-4.728097119E-4,2.612670651E-3,3.427564865E-3,4.335642727E-3
2.865632533E0,-3.527135821E-3,4.445266444E-3,3.427564865E-3,6.629425448E-3
2.867632266E0,-3.527135821E-3,6.277862005E-3,1.594969188E-3,7.375375595E-3
2.869631999E0,-7.192327641E-3,6.277862005E-3,1.594969188E-3,9.679104037E-3
2.871631732E0,-9.024923667E-3,1.360824518E-2,3.427564865E-3,1.668477704E-2
2.873631465E0,-1.024665311E-2,1.482997555E-2,1.594969188E-3,1.809602171E-2
2.875631198E0,-1.146838348E-2,1.971689798E-2,1.594969188E-3,2.286534085E-2
2.877630931E0,-1.452271082E-2,2.338209003E-2,-2.070222283E-3,2.760284558E-2
2.879630664E0,-1.574444026E-2,2.887987718E-2,-2.070222283E-3,3.295785984E-2
2.881630430E0,-1.818790287E-2,3.437766433E-2,-3.902818076E-3,3.908779355E-2
2.883630196E0,-1.513357554E-2,3.682112321E-2,-2.681087470E-3,3.989998062E-2
2.885629929E0,-1.757703535E-2,4.170804471E-2,-5.124548450E-3,4.554968893E-2
2.887629662E0,-1.635530591E-2,4.476236925E-2,-6.346279290E-3,4.807744786E-2
2.889629395E0,-1.513357554E-2,4.964929447E-2,-5.124548450E-3,5.215686480E-2
2.891629128E0,-1.757703535E-2,5.087102577E-2,-1.001147088E-2,5.474525535E-2
2.893628861E0,-1.818790287E-2,5.331448838E-2,-6.957144476E-3,5.675946037E-2
2.895628594E0,-1.940963231E-2,5.697967857E-2,-1.001147088E-2,6.102169406E-2
2.897628394E0,-1.757703535E-2,5.697967857E-2,-8.178874850E-3,6.018745663E-2
2.899628127E0,-1.940963231E-2,5.881227553E-2,-1.001147088E-2,6.273633021E-2
2.901627927E0,-1.818790287E-2,6.003400311E-2,-8.789739572E-3,6.334146242E-2
2.903627593E0,-1.696617156E-2,5.759054050E-2,-1.123320125E-2,6.107950673E-2
2.905627326E0,-2.063136362E-2,6.003400311E-2,-1.184406690E-2,6.457566581E-2
2.907627059E0,-1.940963231E-2,5.759054050E-2,-1.184406690E-2,6.191676754E-2
2.909626792E0,-1.757703535E-2,5.636881292E-2,-1.428752672E-2,6.074972149E-2
2.911626025E0,-1.269011479E-2,5.514708161E-2,-1.306579728E-2,5.807714423E-2
2.913625825E0,-1.207924914E-2,5.148189142E-2,-1.306579728E-2,5.447025301E-2
2.915625258E0,-9.024923667E-3,4.842756316E-2,-1.184406690E-2,5.066517583E-2
2.917624991E0,-5.970596801E-3,4.537323862E-2,-1.428752672E-2,4.794280164E-2
2.919624724E0,-1.694540144E-3,3.987545148E-2,-1.367666200E-2,4.218974022E-2
2.921624457E0,1.380555477E-4,3.437766433E-2,-1.428752672E-2,3.722870242E-2
2.923624190E0,2.581516514E-3,3.437766433E-2,-1.367666200E-2,3.708826116E-2
2.925623923E0,3.192381933E-3,3.437766433E-2,-1.184406690E-2,3.650064421E-2
2.927623723E0,9.301033802E-3,3.010160662E-2,-1.428752672E-2,3.459406554E-2
2.929623656E0,8.079303429E-3,2.826900966E-2,-1.550925709E-2,3.324077476E-2
2.931623389E0,1.174449548E-2,3.071247041E-2,-1.428752672E-2,3.585139373E-2
2.933623122E0,1.418795623E-2,3.010160662E-2,-1.367666200E-2,3.597854787E-2
2.935622855E0,1.602055132E-2,3.559939563E-2,-1.428752672E-2,4.157052386E-2
2.937622588E0,1.663141698E-2,3.498852998E-2,-1.489839237E-2,4.150618455E-2
2.939622321E0,1.602055132E-2,3.926458210E-2,-1.550925709E-2,4.515420830E-2
2.941622054E0,1.846401207E-2,3.926458210E-2,-1.489839237E-2,4.587580238E-2
2.943621854E0,1.663141698E-2,4.292977601E-2,-1.184406690E-2,4.753789667E-2
2.945621587E0,1.663141698E-2,4.109717906E-2,-1.245493162E-2,4.605113982E-2
2.947621320E0,1.418795623E-2,4.048631713E-2,-1.306579728E-2,4.484590321E-2
2.949621053E0,1.113362983E-2,3.926458210E-2,-1.123320125E-2,4.233024841E-2
2.951620786E0,9.911899455E-3,3.621025756E-2,-1.184406690E-2,3.936636158E-2
2.953620086E0,6.246707868E-3,3.132333606E-2,-8.789739572E-3,3.312751520E-2
2.955619819E0,7.489207783E-4,3.132333606E-2,-4.513683263E-3,3.165573568E-2
2.957619552E0,-1.083674957E-3,2.826900966E-2,-4.513683263E-3,2.864759319E-2
2.959619352E0,1.380555477E-4,2.093862742E-2,-1.459356979E-3,2.098987614E-2
2.961619085E0,-2.305405447E-3,1.727343537E-2,2.205834491E-3,1.756565312E-2
2.963618885E0,-5.970596801E-3,1.299738046E-2,3.427564865E-3,1.470809729E-2
2.965618618E0,-9.635788389E-3,6.888727192E-3,7.092756219E-3,1.380616424E-2
2.967618351E0,-1.696617156E-2,2.001805231E-3,9.536217898E-3,1.956521540E-2
2.969618084E0,-1.879876666E-2,-1.052520820E-3,1.320140809E-2,2.299518653E-2
2.971617817E0,-2.246395871E-2,-6.550308317E-3,1.625573449E-2,2.849183890E-2
2.973617550E0,-2.368569002E-2,-1.143722981E-2,1.931006089E-2,3.262975006E-2
2.975617650E0,-2.612915076E-2,-1.510242186E-2,2.236438729E-2,3.756303348E-2
2.977617383E0,-2.612915076E-2,-1.754588261E-2,2.541871369E-2,4.045616791E-2
2.979617116E0,-3.101607040E-2,-1.937847957E-2,2.725131065E-2,4.560872751E-2
2.981616782E0,-3.162693605E-2,-2.182194032E-2,3.091650084E-2,4.931825410E-2
2.983616515E0,-3.284866735E-2,-2.060020901E-2,3.274909407E-2,5.075339122E-2
2.985616248E0,-3.345953301E-2,-1.815674827E-2,3.458169103E-2,5.143054745E-2
2.987615981E0,-3.162693605E-2,-1.815674827E-2,3.397082910E-2,4.983921971E-2
2.989615581E0,-3.407039493E-2,-1.693501696E-2,3.458169103E-2,5.141478352E-2
2.991615381E0,-3.345953301E-2,-1.510242186E-2,3.213823214E-2,4.879025989E-2
2.993615114E0,-3.345953301E-2,-1.021549944E-2,3.397082910E-2,4.876385964E-2
2.995614847E0,-3.407039493E-2,-7.161173504E-3,3.335996345E-2,4.821785331E-2
2.997614580E0,-3.468126431E-2,-4.416555748E-4,2.908390388E-2,4.526431949E-2
2.999614313E0,-3.407039493E-2,-4.416555748E-4,2.786217444E-2,4.401462978E-2
3.001614113E0,-3.407039493E-2,5.056131631E-3,2.297525294E-2,4.140312217E-2
3.003613846E0,-3.407039493E-2,6.277862005E-3,2.053179219E-2,4.027105478E-2
3.005613646E0,-3.284866735E-2,6.888727192E-3,1.931006089E-2,3.872167301E-2
3.007613446E0,-3.162693605E-2,9.943053126E-3,1.686660014E-2,3.719690296E-2
3.009613179E0,-3.162693605E-2,9.943053126E-3,1.381227374E-2,3.591526549E-2
3.011612912E0,-2.979434282E-2,1.421911083E-2,1.075794827E-2,3.472203087E-2
3.013613078E0,-2.796174586E-2,1.605170593E-2,8.314486593E-3,3.329635388E-2
3.015612811E0,-2.612915076E-2,1.666257158E-2,5.260160659E-3,3.143315290E-2
3.017612544E0,-2.551828325E-2,2.093862742E-2,5.871025845E-3,3.352727014E-2
3.019612277E0,-2.368569002E-2,2.032776177E-2,-8.484918508E-4,3.122418531E-2
3.021612643E0,-1.879876666E-2,2.704728208E-2,-1.459356979E-3,3.297087834E-2
3.023612443E0,-2.124222741E-2,2.887987718E-2,-2.681087470E-3,3.595090765E-2
3.025612176E0,-1.879876666E-2,3.315593302E-2,-6.346279290E-3,3.863916127E-2
3.027611909E0,-1.635530591E-2,3.132333606E-2,-8.178874850E-3,3.627039299E-2
3.029611642E0,-1.635530591E-2,3.437766433E-2,-9.400605224E-3,3.921340606E-2
3.031611375E0,-1.574444026E-2,3.926458210E-2,-1.306579728E-2,4.427538667E-2
3.033611108E0,-1.330097951E-2,3.865372017E-2,-1.489839237E-2,4.350848462E-2
3.035610841E0,-1.452271082E-2,3.987545148E-2,-1.367666200E-2,4.458712643E-2
3.037610641E0,-9.635788389E-3,3.621025756E-2,-1.734185405E-2,4.128887347E-2
3.039610374E0,-1.024665311E-2,3.254506737E-2,-1.612012275E-2,3.773637062E-2
3.041610174E0,-7.192327641E-3,3.010160662E-2,-1.734185405E-2,3.547641752E-2
3.043609907E0,-7.192327641E-3,2.460381947E-2,-1.795271784E-2,3.129500899E-2
3.045609640E0,-4.748866428E-3,2.093862742E-2,-1.856358349E-2,2.838282020E-2
3.047609373E0,-6.581462454E-3,1.849516667E-2,-1.795271784E-2,2.660238554E-2
3.049609106E0,-2.305405447E-3,8.721322753E-3,-1.428752672E-2,1.689703479E-2
3.051608839E0,-4.728097119E-4,-4.416555748E-4,-1.245493162E-2,1.247172524E-2
3.053608639E0,-4.728097119E-4,-7.161173504E-3,-1.245493162E-2,1.437467484E-2
3.055608372E0,7.489207783E-4,-1.326982584E-2,-7.568009198E-3,1.529457169E-2
3.057608138E0,3.803246887E-3,-1.632415131E-2,-3.902818076E-3,1.720972376E-2
3.060178956E0,3.803246887E-3,-1.815674827E-2,-1.459356979E-3,1.860811428E-2
3.062178622E0,8.690169081E-3,-2.976318821E-2,6.481891032E-3,3.167619489E-2
3.064178488E0,8.079303429E-3,-2.731972747E-2,7.092756219E-3,2.935898233E-2
3.066178221E0,9.301033802E-3,-3.342837840E-2,1.014708262E-2,3.615147297E-2
3.068177954E0,9.911899455E-3,-2.854145691E-2,1.564487070E-2,3.402385182E-2
3.070177754E0,1.113362983E-2,-2.915232256E-2,1.869919524E-2,3.637960316E-2
3.072177487E0,1.235536020E-2,-2.609799616E-2,2.175352350E-2,3.615212461E-2
3.074177220E0,1.418795623E-2,-2.304366790E-2,2.297525294E-2,3.549888702E-2
3.076176953E0,1.724228263E-2,-2.060020901E-2,2.664044313E-2,3.783355828E-2
3.078176686E0,1.907487959E-2,-1.998934336E-2,3.030563518E-2,4.101044261E-2
3.080176419E0,1.785314828E-2,-1.326982584E-2,3.030563518E-2,3.759328005E-2
3.082175585E0,1.724228263E-2,-1.388069056E-2,3.335996345E-2,4.003569709E-2
3.084175318E0,2.029660717E-2,-8.382904343E-3,3.397082910E-2,4.045049539E-2
3.086175118E0,2.029660717E-2,-3.495981684E-3,3.274909407E-2,3.868691397E-2
3.088174851E0,2.090747468E-2,-1.052520820E-3,3.641428798E-2,4.200274595E-2
3.090175117E0,2.151833847E-2,2.612670651E-3,3.580342233E-2,4.185391247E-2
3.092174850E0,2.151833847E-2,6.888727192E-3,3.519255668E-2,4.182116089E-2
3.094174583E0,2.335093543E-2,1.360824518E-2,3.641428798E-2,4.534810792E-2
3.096174316E0,2.274006978E-2,1.666257158E-2,3.824688494E-2,4.751395872E-2
3.098174049E0,2.212920412E-2,2.216035873E-2,3.702515364E-2,4.849376430E-2
3.100173849E0,1.907487959E-2,2.704728208E-2,3.763601556E-2,5.011862096E-2
3.102173649E0,2.274006978E-2,3.437766433E-2,3.824688494E-2,5.622951881E-2
3.104173382E0,2.090747468E-2,4.048631713E-2,3.946861252E-2,6.028296398E-2
3.106173115E0,2.396179922E-2,4.354064167E-2,3.702515364E-2,6.197432775E-2
3.108172848E0,2.396179922E-2,5.087102577E-2,3.885775059E-2,6.835169249E-2
3.110172581E0,2.335093543E-2,6.186660007E-2,4.007947817E-2,7.732468532E-2
3.112172314E0,2.457266673E-2,6.553179026E-2,3.824688494E-2,7.975622667E-2
3.114172047E0,2.701612748E-2,7.225131243E-2,3.702515364E-2,8.556275647E-2
3.116171847E0,2.701612748E-2,7.652736455E-2,3.763601556E-2,8.945824913E-2
3.118171547E0,2.823785506E-2,7.958168536E-2,3.641428798E-2,9.195989057E-2
3.120171280E0,2.640526183E-2,8.080342412E-2,3.335996345E-2,9.131986839E-2
3.122171080E0,2.640526183E-2,8.202515543E-2,2.847304009E-2,9.075284010E-2
3.124170680E0,2.762699127E-2,8.446861058E-2,2.786217444E-2,9.313698291E-2
3.126170413E0,2.640526183E-2,8.263601363E-2,2.602957934E-2,9.057310639E-2
3.128170146E0,2.335093543E-2,7.958168536E-2,1.869919524E-2,8.501864933E-2
3.130169879E0,2.029660717E-2,7.958168536E-2,1.992092654E-2,8.451059237E-2
3.132169679E0,1.663141698E-2,7.408390939E-2,1.503400411E-2,7.740187944E-2
3.134169412E0,1.418795623E-2,7.164043933E-2,8.925352246E-3,7.357521704E-2
3.136169145E0,1.296622586E-2,6.553179026E-2,1.014708262E-2,6.756849734E-2
3.138168878E0,1.174449548E-2,6.186660007E-2,4.038430285E-3,6.310085813E-2
3.140168611E0,7.468438707E-3,5.392535031E-2,2.205834491E-3,5.448473812E-2
3.142168277E0,5.024977494E-3,4.354064167E-2,-2.681087470E-3,4.391157143E-2
3.144168010E0,3.803246887E-3,3.987545148E-2,-5.735413637E-3,4.046493898E-2
3.146167743E0,1.970651327E-3,3.010160662E-2,-5.735413637E-3,3.070643512E-2
3.148167543E0,1.970651327E-3,3.132333606E-2,-6.957144476E-3,3.214711042E-2
3.150166743E0,1.970651327E-3,2.216035873E-2,-1.062233560E-2,2.465357944E-2
3.152166476E0,-1.083674957E-3,2.032776177E-2,-1.062233560E-2,2.296140813E-2
3.154166209E0,-3.527135821E-3,1.666257158E-2,-1.184406690E-2,2.074521389E-2
3.156165942E0,1.359786023E-3,8.721322753E-3,-1.001147088E-2,1.334691117E-2
3.158165675E0,1.380555477E-4,1.177564915E-2,-9.400605224E-3,1.506838913E-2
3.160165408E0,1.380555477E-4,5.666996818E-3,-9.400605224E-3,1.097749019E-2
3.162165141E0,2.581516514E-3,5.056131631E-3,-1.245493162E-2,1.368773233E-2
