"Time (s)","Linear Acceleration x (m/s^2)","Linear Acceleration y (m/s^2)","Linear Acceleration z (m/s^2)","Absolute acceleration (m/s^2)"
0.000000000E0,-5.609417615E-2,2.186097146E-2,-1.153938800E0,1.155508205E0
1.997100000E-2,-3.489706375E-1,1.524301421E-1,-9.479956434E-2,3.924314099E-1
2.998000001E-2,-1.111940296E0,1.742294483E-1,7.824612424E-1,1.370770848E0
3.997800000E-2,-1.097650140E0,1.764483752E-1,7.816972306E-1,1.359051294E0
4.997900000E-2,-1.127355238E0,8.876926688E-2,8.454611173E-1,1.411954077E0
5.997700000E-2,-1.199958872E0,8.757723888E-2,8.498291335E-1,1.473017523E0
6.999700000E-2,-5.291772192E-1,-5.205770614E-2,3.136596082E-3,5.317408884E-1
7.999500001E-2,-3.636344676E-1,1.371961353E-1,-7.332697134E-1,8.299019691E-1
8.999300000E-2,-2.784284209E-1,-8.296069767E-2,-6.499626779E-1,7.119384423E-1
9.999600000E-2,-3.190151324E-1,7.200057159E-2,-7.590370041E-1,8.264937451E-1
1.099670000E-1,-4.012231107E-1,1.474643662E-3,-5.567666850E-1,6.862734883E-1
1.199650000E-1,-6.753641521E-1,8.454298164E-2,1.572011137E-1,6.985531074E-1
1.299940000E-1,-8.830692389E-1,-1.853967302E-2,1.544491948E-1,8.966657983E-1
1.399660000E-1,-1.089992041E0,4.460499125E-2,7.682922694E-1,1.334295794E0
1.499640000E-1,-1.106839478E0,2.861650866E-2,2.583891358E-1,1.136959753E0
1.599940000E-1,-9.802524481E-1,2.585145631E-2,6.775654095E-1,1.191913606E0
1.699650000E-1,-6.113045425E-1,-4.985357336E-4,-3.437610744E-2,6.122705358E-1
1.799630000E-1,-3.699955439E-1,8.535825937E-3,-2.221786083E-1,4.316629436E-1
1.899910000E-1,-2.293493047E-1,4.032592117E-2,-6.562925812E-1,6.963815302E-1
1.999920000E-1,-2.131662948E-1,2.315296629E-2,-7.352098196E-1,7.658390222E-1
2.099900000E-1,-1.965525279E-1,2.530955589E-3,-4.841340340E-1,5.225180043E-1
2.199890000E-1,-4.369729142E-1,8.919829720E-2,-2.791943148E-1,5.261664464E-1
2.299610000E-1,-6.027662189E-1,-9.571738534E-2,1.203846686E-1,6.220782917E-1
2.399590000E-1,-5.391010771E-1,-9.740586022E-2,1.169381826E-1,5.601717696E-1
2.499890000E-1,-8.207499068E-1,1.059111379E-1,3.591036064E-1,9.021102919E-1
2.599760000E-1,-8.414853761E-1,3.022076308E-2,4.569643617E-1,9.580330686E-1
2.699740000E-1,-6.108837257E-1,2.634096648E-2,1.485050158E-1,6.292269166E-1
2.799880000E-1,-3.710420859E-1,-2.422117950E-2,-6.980657293E-2,3.783277054E-1
2.899670000E-1,-2.435813179E-1,8.152358911E-2,-4.961311318E-1,5.586806368E-1
2.999650000E-1,-1.389474678E-1,-2.045801200E-2,-5.537530301E-1,5.712856968E-1
3.099860000E-1,-1.722787988E-1,3.730595534E-2,-6.909445699E-1,7.130751135E-1
3.199620000E-1,-3.371556805E-1,2.541872352E-2,-1.850010793E-1,3.854159619E-1
3.299600000E-1,-2.818657432E-1,2.905430523E-2,-1.878391350E-1,3.399646900E-1
3.399840000E-1,-4.551473029E-1,-3.116199121E-2,-3.228021639E-2,4.573534185E-1
3.499790000E-1,-8.114119034E-1,-2.765664660E-4,4.047828225E-1,9.067736691E-1
3.599770000E-1,-8.058630420E-1,-6.922973426E-4,4.045802165E-1,9.017210618E-1
3.699820000E-1,-7.768264999E-1,3.803633882E-2,3.556945701E-1,8.552337699E-1
3.799780000E-1,-3.811970915E-1,-2.409728077E-3,-8.215287742E-2,3.899565676E-1
3.899760000E-1,-4.346634832E-1,-5.016490761E-3,-7.972958112E-2,4.419437916E-1
3.999500000E-1,-2.421031418E-1,1.550076427E-2,-2.823079571E-1,3.722257213E-1
4.099660000E-1,-9.967129997E-2,-1.214203338E-2,-5.687420020E-1,5.775372384E-1
4.199640000E-1,-7.626944101E-2,-1.238416521E-2,-5.699571630E-1,5.751708988E-1
4.299800000E-1,-2.455503130E-1,5.739271483E-2,-2.331118783E-1,3.434094171E-1
4.399540000E-1,-5.687759889E-1,3.303891318E-2,2.116925772E-1,6.077922693E-1
4.499520000E-1,-5.289563407E-1,3.440207502E-2,2.101637679E-1,5.702167328E-1
4.599780000E-1,-6.983830322E-1,-2.642785302E-3,2.718924032E-1,7.494473450E-1
4.699510000E-1,-5.246734379E-1,7.197183001E-3,1.612058900E-1,5.489274587E-1
4.799490000E-1,-5.631447913E-1,7.084135309E-3,1.624768006E-1,5.861577874E-1
4.899760000E-1,-2.281067896E-1,-1.268262503E-3,-2.599223305E-1,3.458235589E-1
4.999580000E-1,-1.262245752E-1,3.783571308E-2,-4.047864040E-1,4.256949816E-1
5.099560000E-1,-1.439484543E-1,3.647753279E-2,-4.040195782E-1,4.304458008E-1
5.199650000E-1,-9.939300905E-2,-8.783140319E-3,-4.868978301E-1,4.970167107E-1
5.299470000E-1,-1.947214358E-1,5.677955205E-2,-3.105884542E-1,3.709522111E-1
5.399450000E-1,-2.545553175E-1,-5.724578527E-2,-1.143696287E-1,2.848787488E-1
5.499740000E-1,-4.067963113E-1,4.346965840E-2,4.660446948E-2,4.117582138E-1
5.599740000E-1,-4.963347976E-1,-1.436203158E-2,1.964098376E-1,5.339768942E-1
5.699720000E-1,-5.509282767E-1,3.304687772E-2,2.850412746E-1,6.211783886E-1
5.799710000E-1,-5.137352709E-1,-1.225665337E-3,1.485473077E-1,5.347819494E-1
5.899710000E-1,-3.791205259E-1,-1.328033152E-3,8.974537731E-2,3.896002690E-1
5.999690000E-1,-2.291511572E-1,2.127647830E-2,-1.682100869E-1,2.850571429E-1
6.099690000E-1,-1.599192285E-1,1.366444163E-2,-2.359049471E-1,2.853279177E-1
6.199700000E-1,-1.330528531E-1,3.458319709E-2,-4.255765812E-1,4.472297907E-1
6.299680000E-1,-1.296946510E-1,1.521655304E-2,-3.094232868E-1,3.358496932E-1
6.399680000E-1,-1.635616601E-1,2.275210083E-2,-2.139504064E-1,2.702681098E-1
6.499690000E-1,-2.467797997E-1,-1.225427794E-3,-7.053875397E-2,2.566661003E-1
6.599670000E-1,-3.625866466E-1,-2.961719795E-3,9.991100840E-2,3.761117622E-1
6.699670000E-1,-4.344841564E-1,3.107981271E-2,1.330319950E-1,4.554557593E-1
6.799670000E-1,-4.534773016E-1,2.438288242E-2,2.373035828E-1,5.123955293E-1
6.899650000E-1,-4.094666250E-1,1.592827368E-3,8.463559605E-2,4.181251466E-1
6.999660000E-1,-3.164642115E-1,1.052356634E-2,9.617476322E-3,3.167851614E-1
7.099650000E-1,-1.870139833E-1,-9.933987705E-3,-1.889688902E-1,2.660491600E-1
7.199630000E-1,-1.217973193E-1,1.957970311E-2,-2.630275675E-1,2.905192817E-1
7.299630000E-1,-1.076147790E-1,2.444824561E-2,-3.027306003E-1,3.222180531E-1
7.399640000E-1,-1.061115421E-1,1.144334821E-2,-2.861557905E-1,3.054107824E-1
7.499620000E-1,-1.466485797E-1,5.900203189E-3,-1.649539187E-1,2.207949583E-1
7.599620000E-1,-2.170280519E-1,6.955991636E-3,-3.027072708E-2,2.192393168E-1
7.699620000E-1,-3.209189493E-1,8.510317459E-3,7.088608772E-2,3.287647106E-1
7.799600000E-1,-3.369154330E-1,1.993472503E-2,1.199227751E-1,3.581771548E-1
7.899560000E-1,-3.594994629E-1,1.533234619E-2,6.461469768E-2,3.655817335E-1
7.999610000E-1,-1.556527710E-1,4.308152662E-2,-1.339946843E-1,2.098532308E-1
8.099590000E-1,2.134682304E-2,1.513547752E-1,-4.175088123E-1,4.446094502E-1
8.199480000E-1,7.995117232E-2,1.832119044E-1,-4.362523910E-1,4.798697120E-1
8.299590000E-1,-6.300887867E-2,2.592917083E-1,-2.217406701E-1,3.469455773E-1
8.399570000E-1,-6.137571023E-2,2.561030206E-1,2.914999628E-2,2.649631243E-1
8.499320000E-1,-6.645944397E-2,8.388645809E-2,2.874030747E-1,3.066827724E-1
8.599580000E-1,-3.915513501E-2,2.180050759E-2,4.169034793E-1,4.193052561E-1
8.699560000E-1,1.397860384E-2,1.537373328E-1,1.102410193E-1,1.896935719E-1
8.799500000E-1,-2.257835812E-1,2.073127203E-1,-5.739450098E-2,3.118507949E-1
8.899570000E-1,-2.430988496E-1,1.086345402E-2,-9.251429887E-2,2.603343250E-1
8.999550000E-1,-8.105050734E-1,-1.415971153E-1,9.618972159E-2,8.283843791E-1
9.099510000E-1,-6.893852636E-1,-3.591797938E-2,-1.171007626E-1,7.001819275E-1
9.199340000E-1,-3.862383050E-1,-1.555462786E-1,-4.063308363E-1,5.817898432E-1
9.299320000E-1,-3.122125548E-1,-1.795288529E-1,-3.699285202E-1,5.162890649E-1
9.399470000E-1,-1.909564502E-2,-1.561855437E-1,-3.682060401E-1,4.004176016E-1
9.499540000E-1,-5.658362007E-2,-1.865327209E-1,-2.266118576E-1,2.989131914E-1
9.599520000E-1,-9.744967779E-2,-1.531354899E-1,-1.794191445E-1,2.552217612E-1
9.699460000E-1,-2.993649430E-1,-1.394268116E-1,1.353797161E-1,3.569129759E-1
9.799510000E-1,-3.907521362E-1,4.058883118E-2,2.121527714E-1,4.464789845E-1
9.899490000E-1,-3.800675922E-1,2.688882774E-2,2.455621171E-1,4.532936543E-1
9.999480000E-1,-2.357545822E-1,-3.448674373E-3,4.393011292E-2,2.398373850E-1
1.009950000E0,-8.892757111E-2,3.209147466E-2,-1.655969480E-1,1.906838347E-1
1.019948000E0,-2.756256631E-2,2.399552265E-2,-2.500463467E-1,2.527027022E-1
1.029944000E0,-2.648734558E-2,1.990252195E-2,-3.308667442E-1,3.325214163E-1
1.039949000E0,-4.501446993E-2,7.886540605E-3,-2.801895840E-1,2.838920622E-1
1.049947000E0,-2.460526391E-2,8.818771789E-3,-2.805813109E-1,2.817961351E-1
1.059933000E0,-5.687020673E-2,3.180251257E-2,-1.997428967E-1,2.101019871E-1
1.069947000E0,-3.340532940E-1,1.424630982E-3,1.408259954E-1,3.625266801E-1
1.079945000E0,-3.274868343E-1,1.820389895E-2,1.442309205E-1,3.583037357E-1
1.089926000E0,-1.915588047E-1,4.391973583E-3,-4.061270426E-2,1.958659155E-1
1.099945000E0,1.544640344E-2,4.015741173E-2,-2.888715846E-1,2.920582159E-1
1.109943000E0,1.437991242E-2,3.980824159E-2,-2.888602373E-1,2.919447117E-1
1.119940000E0,8.750304320E-2,1.103518424E-1,-2.150486232E-1,2.570607360E-1
1.129944000E0,-9.633432141E-2,5.567026671E-3,-1.339529612E-2,9.742036350E-2
1.139942000E0,-6.779746050E-2,6.769870879E-3,-1.362482902E-2,6.948354314E-2
1.149924000E0,-4.739878723E-1,-5.701652416E-2,4.628920406E-2,4.796436985E-1
1.159942000E0,-2.883981794E-1,1.804202015E-2,7.783342045E-2,2.992608656E-1
1.169940000E0,-2.901564920E-1,1.808420576E-2,7.784166137E-2,3.009603837E-1
1.179930000E0,-1.379765102E-1,5.877070713E-3,-3.518460149E-2,1.425132047E-1
1.189940000E0,-9.590138077E-2,-4.005502321E-3,-6.744242487E-2,1.173098442E-1
1.199938000E0,-1.109439826E-1,-3.811033293E-3,-6.733998440E-2,1.298374551E-1
1.209916000E0,-4.201646908E-1,1.042863428E-1,4.513489459E-3,4.329369241E-1
1.219939000E0,-6.836242213E-1,1.623908465E-1,-5.442057055E-2,7.047513473E-1
1.229937000E0,-7.079408178E-1,1.623138095E-1,-5.419349302E-2,7.283288467E-1
1.239931000E0,-5.506081417E-1,7.413977087E-1,-2.076846032E-1,9.465583883E-1
1.249938000E0,-3.214457469E-1,9.050629558E-1,9.037310332E-2,9.646935369E-1
1.259936000E0,-3.303921330E-1,9.135845418E-1,9.064095148E-2,9.757107453E-1
1.269918000E0,-9.947688188E-1,1.672554559E-1,5.941499150E-3,1.008749073E0
1.279937000E0,-1.097425826E0,2.339779789E-1,2.357207004E-2,1.122338977E0
1.289935000E0,-1.155013518E0,2.223742525E-1,2.452253266E-2,1.176481147E0
1.299928000E0,-9.101197010E-1,2.114195122E-1,1.876580952E-2,9.345417251E-1
1.309918000E0,-6.088230573E-1,-1.640564259E-1,-5.566221857E-1,8.410756705E-1
1.319916000E0,-6.302177270E-1,-1.644316710E-1,-5.558937688E-1,8.562885262E-1
1.329921000E0,-4.904332029E-1,-3.443356958E-1,-6.077708143E-1,8.535087349E-1
1.339917000E0,-1.157033329E-1,-5.487370692E-1,-2.941247917E-2,5.615734380E-1
1.349915000E0,-8.992930879E-2,-5.491800324E-1,-3.016130878E-2,5.573111277E-1
1.359913000E0,-7.785081591E-2,-3.571536696E-1,1.520323121E-1,3.958955888E-1
1.369916000E0,-1.305525289E-1,5.796849655E-2,4.728234724E-1,4.939294944E-1
1.379914000E0,-1.690261390E-1,5.494552261E-2,4.738853268E-1,5.061187104E-1
1.389929000E0,-7.879863130E-2,-5.687709548E-2,1.758434260E-1,2.009107731E-1
1.399914000E0,3.642926357E-2,-2.056915067E-1,-7.696412951E-1,7.974859311E-1
1.409912000E0,2.492189292E-2,-2.063666408E-1,-7.691784149E-1,7.967708110E-1
1.419900000E0,-3.504354427E-2,8.197143101E-2,-5.833033231E-1,5.900763783E-1
1.429912000E0,-4.320718876E-1,2.363338951E-1,1.575126972E-1,5.170590642E-1
1.439910000E0,-4.043131449E-1,2.363043119E-1,1.565298717E-1,4.937716554E-1
1.449927000E0,-6.525214195E-1,3.359364264E-1,3.452619313E-1,8.110753890E-1
1.459912000E0,-4.953138372E-1,1.787546815E-1,7.447798204E-2,5.318232821E-1
1.469910000E0,-5.228174951E-1,1.802028176E-1,7.539045832E-2,5.581172904E-1
1.479912000E0,-5.013828451E-1,-1.683693527E-2,-1.061315962E-1,5.127691054E-1
1.489910000E0,3.593142569E-2,-1.839414907E-1,-2.475523631E-1,3.104959127E-1
1.499908000E0,2.896822325E-2,-1.890581151E-1,-2.473453899E-1,3.126689475E-1
1.509894000E0,-2.127649383E-1,-1.466567658E-1,-3.552589616E-2,2.608432771E-1
1.519903000E0,-4.493039245E-1,-1.280417802E-1,-1.203088375E-1,4.824343794E-1
1.529901000E0,-4.435202242E-1,-1.283380878E-1,-1.205336355E-1,4.771888634E-1
1.539893000E0,-5.664010966E-2,-3.165245840E-2,9.981226355E-2,1.190481755E-1
1.549898000E0,-4.041341105E-1,2.068312524E-2,-5.584388791E-2,4.084981160E-1
1.559896000E0,-4.124979678E-1,-1.106323922E-2,-5.267556497E-2,4.159948123E-1
1.569914000E0,-3.859084124E-1,-4.292000185E-3,5.586597028E-2,3.899547803E-1
1.579921000E0,-1.986280885E-1,-8.558283585E-2,-2.941165233E-2,2.182718136E-1
1.589929625E0,-3.174029820E-1,-1.613427514E-1,5.944636661E-2,3.609847738E-1
1.599900625E0,-2.356430649E-1,1.592080609E-1,-2.535693673E-1,3.810148090E-1
1.609929625E0,-2.418374224E-1,1.598558410E-1,-2.533262875E-1,3.849849825E-1
1.619927625E0,-1.013092421E-1,-3.494718627E-2,-2.335596289E-1,2.569727001E-1
1.629925625E0,-2.794477550E-1,-1.685153847E-1,-6.229534934E-2,3.322185925E-1
1.639928625E0,-2.726463651E-1,-1.665517800E-1,-6.252273751E-2,3.255528046E-1
1.649926625E0,-5.971846130E-1,-3.822789223E-2,-9.019385875E-2,6.051658995E-1
1.659923625E0,-5.515553541E-1,1.554612199E-1,2.257393251E-1,6.159056278E-1
1.669927625E0,-5.527672992E-1,1.521648612E-1,2.257467986E-1,6.161716068E-1
1.679925625E0,-4.621395130E-1,3.972247139E-3,3.482969286E-1,5.787049842E-1
1.689925625E0,-1.662817666E-1,-1.928654564E-1,-1.413074314E-1,2.912292917E-1
1.699926625E0,-2.015970305E-1,-1.977580228E-1,-1.399777380E-1,3.151878256E-1
1.709924625E0,-3.259942640E-2,-2.809866874E-1,-5.447267198E-1,6.137942981E-1
1.719923625E0,-1.346578407E-1,-2.135439884E-1,-6.893692569E-1,7.341414996E-1
1.729909625E0,-1.285553210E-1,-2.202493743E-1,-6.896966279E-1,7.353350909E-1
1.739907625E0,-3.603217824E-2,1.332067171E-1,-3.211437017E-1,3.495362992E-1
1.749894625E0,-2.873867207E-1,2.681546620E-1,-4.702194149E-1,6.128656852E-1
1.759922625E0,-1.360274048E-1,2.400872777E-1,-1.535620785E-2,2.763714328E-1
1.769920625E0,-1.030338144E-1,4.698283815E-4,1.576816361E-2,1.042344599E-1
1.779893625E0,-1.463055857E-1,-7.952457226E-2,-1.469827755E-1,2.221112745E-1
1.789920625E0,-1.280373400E-1,-7.745468533E-2,-1.474859741E-1,2.101068805E-1
1.799918625E0,2.119161601E-1,3.266611344E-1,7.133218002E-2,3.958588581E-1
1.809892625E0,9.172424868E-2,8.768496470E-2,1.708777329E-1,2.128407631E-1
1.819919625E0,7.121833290E-2,9.534427816E-2,1.714983417E-1,2.087444934E-1
1.829917625E0,-1.255697601E-1,3.499497469E-3,-7.821694298E-2,1.479793949E-1
1.839894625E0,-2.236040864E-1,4.228202403E-1,-4.558093539E-1,6.607101560E-1
1.849916625E0,7.067683962E-2,-1.156226596E-2,-1.162121320E-1,1.365070008E-1
1.859914625E0,3.419743343E-1,-1.709892137E-1,3.067765446E-1,4.901995562E-1
1.869903625E0,-2.392246900E-2,-1.140088555E-1,2.553995960E-2,1.192585141E-1
1.879915625E0,-3.408251737E-1,1.399987697E-1,-2.087378330E-1,4.234771983E-1
1.889913625E0,-1.898730525E-1,3.290534496E-1,-1.846425353E-1,4.223988809E-1
1.899908625E0,9.647679247E-2,1.939085266E-1,2.947840881E-2,2.185801106E-1
1.909914625E0,2.104549409E-1,-1.634383204E-1,2.321538851E-1,3.534102335E-1
1.919912625E0,-1.097901533E-2,-1.940006020E-1,1.566209786E-1,2.495734427E-1
1.929907625E0,-3.774731826E-1,-2.119883915E-1,-8.228737252E-2,4.406770851E-1
1.939913625E0,-2.970847116E-1,-2.965359870E-1,-3.058710850E-1,5.193746606E-1
1.949911625E0,9.960733691E-2,-3.273966045E-1,-1.753379159E-1,3.845172856E-1
1.959904625E0,1.623212829E-1,-3.292781288E-1,-3.326651285E-1,4.954173722E-1
1.969911625E0,2.273491184E-1,-1.381943921E-1,-1.865772511E-1,3.249559697E-1
1.979909625E0,1.755114503E-1,3.325236853E-2,-2.309094149E-1,2.919403143E-1
1.989884625E0,2.364241067E-1,1.665131244E-2,5.286463103E-2,2.428338808E-1
1.999910625E0,2.239227231E-1,1.595774587E-2,-4.329486776E-2,2.286273850E-1
2.009908625E0,2.221314651E-1,1.153806283E-2,-4.324996754E-2,2.265967219E-1
2.019883625E0,2.262828603E-1,2.003305967E-1,-1.558742161E-1,3.400486025E-1
2.029908625E0,3.034871935E-1,1.097056428E-1,-4.977111134E-2,3.265225386E-1
2.039906625E0,3.134826797E-1,9.258029019E-2,-5.016193375E-2,3.306943002E-1
2.049882625E0,1.856802882E-1,1.245262514E-1,5.613688823E-2,2.305109692E-1
2.059907625E0,2.076640466E-1,1.348928166E-1,1.296629847E-1,2.795226607E-1
2.069905625E0,2.086162291E-1,1.097942464E-1,1.297747304E-1,2.691040473E-1
2.079905625E0,2.824339829E-1,-1.419711178E-1,-6.955479548E-2,3.236705463E-1
2.089906625E0,3.551292539E-1,-5.553411338E-2,-1.098184210E-1,3.758469241E-1
2.099904625E0,3.406303518E-1,-6.687276446E-2,-1.091613767E-1,3.638917550E-1
2.109904625E0,2.171548816E-1,-3.953907781E-2,-2.411820409E-1,3.269378506E-1
2.119903625E0,1.947576885E-1,-3.389002338E-1,-3.610814271E-1,5.321313021E-1
2.129901625E0,1.839480506E-1,-3.334914497E-1,-3.606818430E-1,5.245424904E-1
2.139878625E0,6.296285469E-2,-8.650511535E-2,-1.954554989E-1,2.228234909E-1
2.149902625E0,7.924517585E-2,2.994910236E-1,-1.524443855E-1,3.452737490E-1
2.159900625E0,8.346679246E-2,2.976123497E-1,-1.526097886E-1,3.447166427E-1
2.169900625E0,1.144872034E-1,3.225799606E-1,-2.576539763E-1,4.284281996E-1
2.179901625E0,1.388095009E-1,1.829498578E-1,-3.474119982E-2,2.322620911E-1
2.189899625E0,1.570892126E-1,1.776479132E-1,-3.539531596E-2,2.397678673E-1
2.199899625E0,2.543682979E-1,-1.766115125E-1,1.707771242E-1,3.536377857E-1
2.209899625E0,-6.388996271E-2,-4.038088591E-1,-3.957747757E-2,4.107431056E-1
2.219897625E0,-7.083603920E-2,-4.045168839E-1,-3.929057114E-2,4.125474552E-1
2.229896625E0,-6.902025491E-2,-1.533920913E-1,-1.736447267E-1,2.417548766E-1
2.239897625E0,1.052422804E-1,1.667971621E-1,-1.499686470E-1,2.477656674E-1
2.249895625E0,1.137373345E-1,1.677999596E-1,-1.503161269E-1,2.523647077E-1
2.259895625E0,1.570841009E-2,4.679611654E-2,-6.399646426E-2,8.082189127E-2
2.269895625E0,1.236560669E-1,-1.458510743E-2,7.399456806E-2,1.448404099E-1
2.279893625E0,1.152439336E-1,-8.588532534E-3,7.424650539E-2,1.373589119E-1
2.289894625E0,4.719516617E-2,-2.181565828E-1,-1.526768763E-1,2.704254183E-1
2.299888625E0,7.253349390E-3,-1.467442456E-1,-1.919943675E-1,2.417608774E-1
2.309886625E0,6.882332137E-3,-1.398835065E-1,-1.920589061E-1,2.377002005E-1
2.319892625E0,-5.702117910E-2,-1.381625339E-1,-1.596936173E-1,2.187289465E-1
2.329884625E0,6.985466172E-2,1.709684013E-1,-1.319736581E-1,2.269954062E-1
2.339882625E0,7.707172011E-2,1.822118478E-1,-1.323465917E-1,2.380269477E-1
2.349891625E0,1.365792084E-1,2.439415430E-1,9.177836283E-2,2.942526541E-1
2.359872625E0,1.036484573E-1,1.740461380E-1,1.413788040E-1,2.470283933E-1
2.369870625E0,1.302423889E-2,9.836855403E-3,4.817158723E-2,5.086154086E-2
2.379888625E0,-1.396315098E-1,5.952874382E-3,-1.648483399E-1,2.161188803E-1
2.389890625E0,-2.064935437E-1,7.044503863E-2,-2.237716274E-1,3.125313237E-1
2.399888625E0,-1.718792513E-1,8.266059847E-2,-1.000854747E-1,2.153888433E-1
2.409888625E0,2.871639327E-2,3.989140910E-2,-1.253288548E-1,1.346227233E-1
2.419888625E0,3.845139063E-2,4.009681539E-2,-1.256794685E-1,1.374103084E-1
2.429886625E0,7.819764717E-2,-1.336944846E-1,-8.192129114E-2,1.752146831E-1
2.439886625E0,-2.698953461E-2,-1.834146931E-1,-9.675893890E-2,2.091212014E-1
2.449887625E0,-2.972086041E-2,-1.690583169E-1,-9.671005983E-2,1.970199983E-1
2.459885625E0,3.628279996E-2,-1.503326362E-1,-2.801347115E-2,1.571658285E-1
2.469885625E0,-1.203066539E-1,-3.017044505E-2,-8.738049835E-2,1.517211199E-1
2.479885625E0,-1.311568295E-1,-1.018064998E-2,-8.688737707E-2,1.576552437E-1
2.489883625E0,-2.396366401E-1,1.131496071E-1,-3.254712625E-1,4.197143023E-1
2.499882625E0,-3.031395034E-1,-3.719602769E-2,-5.187960817E-2,3.097879868E-1
2.509884625E0,-2.706096703E-1,-4.391210990E-2,-5.291545613E-2,2.792094421E-1
2.519882625E0,-1.094784145E-1,-5.833340392E-2,2.687892128E-1,2.960336977E-1
2.529881625E0,3.305634199E-1,1.057519657E-1,2.329981363E-2,3.478484356E-1
2.539879625E0,3.297310322E-1,1.101285244E-1,2.333924122E-2,3.484186644E-1
2.549877625E0,3.922384984E-1,-6.575254529E-3,-3.041124984E-1,4.963654755E-1
2.559880625E0,2.850306034E-1,3.141587914E-2,-7.589629272E-2,2.966304934E-1
2.569880625E0,2.888083068E-1,4.629045573E-2,-7.587748113E-2,3.021761680E-1
2.579878625E0,-1.153695391E-1,4.369403525E-1,-2.876372191E-1,5.356885027E-1
2.589860625E0,-2.631616378E-2,4.938555782E-1,-5.086683387E-2,4.971652717E-1
2.599879625E0,1.580812841E-1,2.412460131E-1,1.983597013E-1,3.500512853E-1
2.609877625E0,1.544345402E-1,2.781130002E-1,2.411790990E-1,3.992044913E-1
2.619850625E0,1.418895766E-1,3.116651458E-1,5.195132792E-2,3.463621739E-1
2.629878625E0,1.192159929E-1,3.050446359E-1,5.244621707E-2,3.316855266E-1
2.639876625E0,1.628410639E-1,-1.009332662E-1,-3.665654210E-1,4.136120697E-1
2.649851625E0,1.392127212E-1,-1.223615939E-1,-4.526059203E-1,4.890855349E-1
2.659875625E0,1.441699450E-1,-1.156778427E-1,-4.527056519E-1,4.889874677E-1
2.669873625E0,1.397197296E-1,1.396979853E-1,-1.849127863E-1,2.706101781E-1
2.679857625E0,1.768216651E-1,4.106250681E-1,-5.804361957E-2,4.508302447E-1
2.689874625E0,1.033583988E-1,6.695101391E-1,-3.928486554E-2,6.785794615E-1
2.699872625E0,2.671578214E-1,6.969316801E-1,-6.053682664E-2,7.488336101E-1
2.709855625E0,3.917382326E-1,-2.360793037E-1,2.150417527E-1,5.054060110E-1
2.719872625E0,3.907875850E-1,-2.376735105E-1,2.150498657E-1,5.054206950E-1
2.729870625E0,1.221770503E-1,-3.393397617E-1,-1.773699512E-1,4.019189036E-1
2.739854625E0,2.980578436E-2,-1.431249196E-1,-1.644652377E-1,2.200498621E-1
2.749871625E0,7.255336187E-2,8.474844731E-2,-2.140638607E-1,2.413910232E-1
2.759869625E0,1.092360200E-1,2.586778603E-1,-1.783635211E-1,3.326564130E-1
2.769852625E0,3.970133713E-1,-2.396501800E-1,-5.354803350E-2,4.668181848E-1
2.779870625E0,4.041683898E-1,-2.337911969E-1,-5.364240665E-2,4.699871475E-1
2.789868625E0,3.014130399E-1,-1.012056642E-1,-2.002556427E-1,3.757588715E-1
2.799851625E0,2.111482014E-1,-2.384029735E-2,-1.762431380E-1,2.760680467E-1
2.809868625E0,2.891831315E-1,-1.109780883E-1,1.046959037E-1,3.269621567E-1
2.819866625E0,2.926669757E-1,-1.046231699E-1,1.046976305E-1,3.279657912E-1
2.829850625E0,-2.147890982E-1,-1.169497857E-1,-1.531768772E-1,2.885736730E-1
2.839866625E0,1.415574730E-1,-1.594366505E-1,-2.204943178E-1,3.067186135E-1
2.849864625E0,1.513836001E-1,-1.610758260E-1,-2.206639785E-1,3.123379700E-1
2.859847625E0,4.399283162E-1,-3.939349584E-1,1.765436803E-2,5.907904464E-1
2.869865625E0,4.907067064E-1,-2.255431876E-1,1.724187300E-1,5.669135909E-1
2.879863625E0,4.821435687E-1,-2.260279035E-1,1.725425631E-1,5.597517039E-1
2.889835625E0,1.648084327E-1,-2.261930690E-1,-3.951376576E-2,2.826419319E-1
2.899863625E0,2.929662618E-1,-9.829466441E-2,-3.517685302E-1,4.682223515E-1
2.909861625E0,2.999440001E-1,-9.706412701E-2,-3.518770326E-1,4.724460752E-1
2.919861625E0,2.928915819E-1,-1.815569231E-1,-2.278429523E-1,4.131111303E-1
2.929861625E0,4.327515168E-1,-1.622118304E-1,2.238546944E-1,5.135148269E-1
2.939859625E0,4.199037953E-1,-1.687716389E-1,2.240052968E-1,5.049568659E-1
2.949845625E0,1.905581086E-1,-1.976030213E-2,1.465938260E-1,2.412314493E-1
2.959860625E0,2.099908365E-1,-1.235586834E-1,-1.927128441E-1,3.106463261E-1
2.969858625E0,2.028386136E-1,-1.279649807E-1,-1.925944197E-1,3.075892553E-1
2.979825625E0,3.079292136E-1,-1.711597697E-1,-2.994117024E-1,4.623455795E-1
2.989859625E0,3.151007505E-1,-9.302290614E-2,-1.070796217E-1,3.455543219E-1
2.999857625E0,3.201692997E-1,-9.717272990E-2,-1.072155969E-1,3.513489777E-1
3.009857625E0,3.845559149E-1,2.543571699E-2,-8.455677741E-2,3.945631457E-1
3.019858625E0,3.216104557E-1,1.107937914E-1,-1.611089541E-1,3.763836401E-1
3.029856625E0,3.310954434E-1,1.147978459E-1,-1.612749785E-1,3.857620468E-1
3.039855625E0,2.732019603E-1,4.590921727E-2,1.824823272E-2,2.776327886E-1
3.049856625E0,3.501411770E-1,2.648762424E-2,1.493003011E-1,3.815639107E-1
3.059854625E0,3.385277662E-1,2.841204112E-2,1.495898114E-1,3.711945638E-1
3.069854625E0,2.054930303E-1,1.374830874E-1,-2.934161685E-1,3.836952342E-1
3.079854625E0,9.767634876E-2,-1.126114349E-2,-5.428443092E-2,1.123133202E-1
3.089852625E0,1.063759550E-1,-1.650887564E-2,-5.452416220E-2,1.206700917E-1
3.099853625E0,5.562618876E-2,-9.827519501E-2,7.605178754E-2,1.361475715E-1
3.109824625E0,8.448941566E-2,-1.226565859E-1,-1.477698381E-1,2.098071126E-1
3.119822625E0,8.029342630E-2,-1.202828539E-1,-1.476505092E-1,2.066777011E-1
3.129850625E0,2.132954452E-1,-7.511891454E-2,-2.478004678E-1,3.354740975E-1
3.139823625E0,1.418295238E-1,-1.565313700E-1,-1.575670033E-1,2.635242762E-1
3.149821625E0,1.597534599E-1,-1.557523199E-1,-1.579752120E-1,2.733790788E-1
3.159849625E0,7.981058333E-2,4.098082303E-2,1.037475219E-1,1.371594159E-1
3.169824625E0,1.648535110E-1,1.034358562E-1,6.305865310E-2,2.045777363E-1
3.179822625E0,1.572505227E-1,1.011596448E-1,6.320912297E-2,1.973737415E-1
3.189848625E0,2.607413975E-1,-1.492461687E-1,-3.357677251E-2,3.023043085E-1
3.199820625E0,1.683380313E-1,-2.385361210E-1,-2.580113325E-1,3.896242055E-1
3.209818625E0,8.158006042E-2,-2.315318510E-1,-3.905359354E-1,4.612814988E-1
3.219847625E0,1.493870957E-1,-2.548705372E-1,-1.546949057E-1,3.334756497E-1
3.229846625E0,1.739479231E-1,-2.490725478E-1,-1.551465301E-1,3.411238189E-1
3.239844625E0,1.702219494E-1,-1.263870364E-1,1.572785094E-2,2.125948266E-1
3.249844625E0,7.131715542E-2,-7.710774444E-2,3.708628961E-2,1.113873143E-1
3.259845625E0,7.668579474E-2,-7.459387568E-2,3.702863972E-2,1.132081162E-1
3.269843625E0,2.202283792E-1,-1.256063966E-1,-2.328055573E-1,3.442033314E-1
3.279843625E0,3.573243352E-1,-4.928595233E-2,7.370870316E-2,3.681613214E-1
3.289843625E0,3.684069285E-1,-4.717522168E-2,7.356456930E-2,3.786303110E-1
3.299841625E0,2.273296581E-1,1.784250219E-2,7.545348034E-2,2.401881680E-1
3.309841625E0,7.202179972E-2,-8.387890239E-2,-1.825013032E-1,2.133765113E-1
3.319843625E0,8.211831490E-2,-8.173106477E-2,-1.826218290E-1,2.162732462E-1
3.329841625E0,-6.090144622E-2,-3.144928136E-2,-1.197733422E-1,1.379989020E-1
3.339840625E0,-1.352608714E-1,4.474355655E-2,9.260525506E-3,1.427699076E-1
3.349834625E0,-1.305789510E-1,3.932727613E-2,9.121576475E-3,1.366773582E-1
3.359832625E0,-2.591815797E-1,8.097450358E-3,2.535364036E-1,3.626587485E-1
3.369838625E0,-1.985438337E-1,-2.305005301E-2,1.144840331E-1,2.303422512E-1
3.379839625E0,-2.283304091E-1,-2.601512125E-2,1.148963532E-1,2.569294343E-1
3.389837625E0,4.976818865E-1,3.902016209E-1,-1.896502297E0,1.999166208E0
3.399836625E0,-1.463521350E-1,8.261517291E-2,2.714091811E-2,1.702376094E-1
3.409837625E0,-1.255608591E-2,8.415703800E-2,2.771697620E-2,8.948906697E-2
3.419835625E0,-4.166467135E-1,-2.615027187E-2,7.458176190E-1,8.547059385E-1
3.429835625E0,-7.843390757E-1,4.967303344E-2,7.373803061E-1,1.077675699E0
3.439836625E0,-8.165968488E-1,5.646543323E-2,7.367208132E-1,1.101261238E0
3.449834625E0,-6.821102310E-1,-2.724564951E-2,4.764116528E-1,8.324570593E-1
3.459825625E0,1.818900134E-1,5.955255752E-2,-3.067992757E-1,3.616023778E-1
3.469833625E0,8.819268574E-2,5.202171835E-2,-3.065738290E-1,3.232208558E-1
3.479831625E0,3.707388347E-1,5.647066831E-2,-1.248373233E0,1.303484541E0
3.489833625E0,1.670650194E-1,1.264964890E-1,-6.646859669E-1,6.969358055E-1
3.499819625E0,2.442252974E-1,1.337520431E-1,-6.649804473E-1,7.209262099E-1
3.509817625E0,3.733567108E-2,-9.732598177E-2,-2.560451880E-1,2.764515100E-1
3.519822625E0,-6.103143531E-1,-7.684182404E-2,2.698673480E-1,6.717266267E-1
3.529804625E0,-5.787746911E-1,-8.615121262E-2,2.702883110E-1,6.445602730E-1
3.539802625E0,-6.190237442E-1,1.598837980E-1,6.460477477E-1,9.089174424E-1
3.549821625E0,-5.443671161E-1,-1.249564603E-1,2.110944619E-1,5.970850407E-1
3.559806625E0,-3.255591169E-1,4.122721922E-2,2.645671576E-1,4.215260409E-1
3.569804625E0,-3.988081376E-1,3.900717305E-2,2.646812697E-1,4.802350099E-1
3.579820625E0,2.990431451E-1,-3.268380218E-2,-8.279026596E-1,8.808619910E-1
3.589811625E0,3.337342188E-1,-3.129303622E-3,-7.674728552E-1,8.369007736E-1
3.599809625E0,2.236392245E-1,4.834901368E-2,-5.615250760E-1,6.063518293E-1
3.609819625E0,9.804772918E-2,-4.688520892E-2,-2.800455780E-1,3.003949164E-1
3.619809625E0,-3.304211133E-1,6.956875571E-2,3.847319526E-1,5.118951057E-1
3.629807625E0,-4.417732224E-1,-3.197177805E-2,2.636248788E-1,5.154452942E-1
3.639817625E0,-5.530423376E-1,8.676909886E-2,5.957717430E-1,8.175137145E-1
3.649825625E0,-4.741628502E-1,-2.739372339E-2,2.568118493E-1,5.399380988E-1
3.659823625E0,-3.064951657E-1,-1.194883886E-2,2.095913985E-1,3.714978003E-1
3.669816625E0,7.181994287E-2,8.609374546E-2,-2.360189495E-1,2.612952003E-1
3.679801625E0,1.920855658E-1,-5.647126674E-2,-7.235351226E-1,7.507256105E-1
3.689799625E0,2.548540736E-1,5.058180038E-2,-5.881403957E-1,6.429760823E-1
3.699810625E0,1.769611030E-1,-4.827014479E-2,-5.842641303E-1,6.123804477E-1
3.709822625E0,-9.635260081E-3,6.763242741E-2,-3.150013158E-2,7.522793207E-2
3.719820625E0,-3.195363752E-1,-6.151284114E-2,1.935937637E-1,3.786368577E-1
3.729819625E0,-4.472823593E-1,4.521403814E-2,3.930332812E-1,5.971440181E-1
3.739820625E0,-4.675355429E-1,-4.255082213E-3,3.666078499E-1,5.941455253E-1
3.749818625E0,-4.195503677E-1,3.327993723E-2,3.636722187E-1,5.562261662E-1
3.759818625E0,-2.451445528E-1,-4.352437098E-2,3.082360873E-2,2.508790894E-1
3.769819625E0,4.931913984E-2,1.082317516E-1,-2.094737599E-1,2.408853372E-1
3.779817625E0,1.775469391E-1,-8.799418190E-2,-7.076932613E-1,7.349119973E-1
3.789817625E0,1.702881691E-1,7.171906470E-2,-4.724188085E-1,5.072683860E-1
3.799817625E0,9.243427425E-2,-7.127219581E-2,-5.415488312E-1,5.539846185E-1
3.809815625E0,-1.374597260E-1,1.127763995E-1,1.865299252E-1,2.576957616E-1
3.819815625E0,-3.154074369E-1,-8.477837775E-2,8.733272477E-2,3.380772536E-1
3.829816625E0,-3.972097281E-1,9.641682196E-2,4.363506608E-1,5.978910192E-1
3.839814625E0,-4.097585107E-1,9.635347104E-2,4.361690682E-1,6.061596197E-1
3.849814625E0,-4.230459428E-1,-5.887126097E-2,1.722600329E-1,4.605509896E-1
3.859795625E0,-8.768691072E-2,-3.573273000E-2,-1.480402901E-1,1.757320398E-1
3.869793625E0,1.392356259E-1,5.896982767E-2,-4.025966217E-1,4.300558567E-1
3.879813625E0,1.577816326E-1,-3.439608162E-2,-6.280204164E-1,6.484502891E-1
3.889793625E0,1.451128359E-1,4.199214009E-2,-4.333948567E-1,4.589686011E-1
3.899791625E0,-6.132408457E-3,2.197327226E-2,-1.542212447E-1,1.558994017E-1
3.909811625E0,-2.485327036E-1,2.145072304E-2,1.799732961E-1,3.076020572E-1
3.919808625E0,-3.095183771E-1,3.567252652E-2,2.678962699E-1,4.109045709E-1
3.929806625E0,-3.121857673E-1,3.745674727E-2,2.678911170E-1,4.130721629E-1
3.939809625E0,-3.572832585E-1,-6.571842131E-3,2.078261059E-1,4.133838485E-1
3.949789625E0,-1.214245502E-1,-1.608110842E-2,-7.708737055E-2,1.447238271E-1
3.959787625E0,1.043809764E-1,7.072599735E-2,-3.244170095E-1,3.480573961E-1
3.969808625E0,9.549469778E-2,7.200952514E-2,-3.244222355E-1,3.457663892E-1
3.979789625E0,1.033745426E-1,6.161900922E-2,-3.570686292E-1,3.768039335E-1
3.989787625E0,1.381328319E-1,6.293074069E-2,-3.568516244E-1,3.877938102E-1
3.999806625E0,-7.047405087E-2,-5.471641682E-3,-8.515717682E-2,1.106719272E-1
4.009778625E0,-3.299327612E-1,5.151553306E-4,1.606504228E-1,3.669665524E-1
4.019776625E0,-3.357380596E-1,7.905117220E-4,1.605870353E-1,3.721677921E-1
4.029805625E0,-3.425024476E-1,2.032146810E-2,1.986448992E-1,3.964601930E-1
4.039787625E0,-7.155973721E-2,1.674586832E-2,-1.613108658E-1,1.772636892E-1
4.049785625E0,-9.310145983E-2,1.624778947E-2,-1.614247038E-1,1.870556267E-1
4.059802625E0,1.019057952E-1,-4.860933697E-3,-4.702219365E-1,4.811622277E-1
4.069783625E0,-4.326628949E-2,2.357915065E-2,-1.479763362E-1,1.559645608E-1
4.079781625E0,-1.551319189E-2,2.534101266E-2,-1.477338229E-1,1.506920983E-1
4.089802625E0,-2.579178319E-1,2.582593813E-3,1.635888131E-1,3.054334258E-1
4.099784625E0,-2.556383680E-1,1.312033537E-2,1.216789589E-1,2.834235125E-1
4.109782625E0,-2.718987986E-1,1.228605647E-2,1.214884310E-1,2.980592940E-1
4.119800625E0,-2.001532433E-1,8.480273391E-3,7.634260430E-2,2.143861681E-1
4.129783625E0,1.018654128E-1,3.217537536E-2,-3.533917173E-1,3.691849441E-1
4.139781625E0,1.028515001E-1,3.231855220E-2,-3.533838235E-1,3.694631871E-1
4.149798625E0,1.311495936E-1,-4.317428436E-3,-3.817246200E-1,4.036490327E-1
4.159793625E0,-1.874409579E-1,1.670814806E-2,7.292046652E-2,2.018184069E-1
4.169791625E0,-1.770468195E-1,1.723321090E-2,7.302987340E-2,1.922912433E-1
4.179797625E0,-2.339026777E-1,1.284492352E-2,1.431958811E-1,2.745551221E-1
4.189782625E0,-1.491070963E-1,1.391125009E-2,-2.820277704E-2,1.523871572E-1
4.199780625E0,-1.674125084E-1,1.303456859E-2,-2.835075956E-2,1.702956650E-1
4.209794625E0,-1.906711129E-2,7.827422628E-3,-2.146101003E-1,2.155975844E-1
4.219779625E0,6.702231613E-2,5.440637164E-3,-3.408977158E-1,3.474663207E-1
4.229777625E0,-1.657729606E-2,2.143421836E-2,-2.031999716E-1,2.049986851E-1
4.239794625E0,-1.231142402E-1,1.656268144E-2,-2.211329480E-2,1.261762115E-1
4.249794625E0,-2.342369740E-1,2.594151257E-2,8.268371324E-2,2.497529149E-1
4.259792625E0,-2.187060383E-1,1.414557725E-2,5.751615961E-2,2.265845034E-1
4.269772625E0,-1.539354255E-1,6.109738505E-3,-1.321544855E-2,1.546224182E-1
4.279793625E0,-5.492410261E-2,2.376797517E-3,-1.917181596E-1,1.994446263E-1
4.289791625E0,-5.205279082E-2,2.512075478E-3,-1.916929070E-1,1.986503817E-1
4.299791625E0,-2.048030908E-2,1.804161473E-2,-1.945835877E-1,1.964884615E-1
4.309791625E0,-9.203839034E-2,2.620365056E-2,-8.206082946E-2,1.260621923E-1
4.319789625E0,-1.550029444E-1,1.476150948E-2,2.580538436E-2,1.578281749E-1
4.329789625E0,-1.882446577E-1,2.811926236E-2,3.358451550E-2,1.932735465E-1
4.339789625E0,-1.156714016E-1,1.835049847E-2,-4.975103895E-2,1.272469246E-1
4.349787625E0,-3.865485089E-2,8.787556565E-3,-1.538431126E-1,1.588682534E-1
4.359787625E0,1.101015747E-2,2.409945598E-4,-2.119103494E-1,2.121963191E-1
4.369788625E0,7.921892276E-3,-1.524009808E-3,-1.456709344E-1,1.458941401E-1
4.379786625E0,-7.915412374E-2,1.358668165E-2,-6.831156780E-2,1.054345461E-1
4.389786625E0,-1.030198542E-1,1.681958006E-3,-1.389328246E-2,1.039660648E-1
4.399786625E0,-1.395238571E-1,1.150475996E-2,5.279689698E-3,1.400968997E-1
4.409784625E0,-9.548742531E-2,2.153956360E-3,-4.820461943E-2,1.069867901E-1
4.419755625E0,-2.533395717E-2,3.237107378E-3,-1.040876106E-1,1.071751787E-1
4.429785625E0,1.173916936E-2,1.463522104E-2,-1.584279692E-1,1.595350094E-1
4.439783625E0,-2.495147389E-2,2.164186304E-2,-1.429494301E-1,1.467156633E-1
4.449783625E0,-6.477212939E-2,3.558572049E-3,-9.180656651E-2,1.124123562E-1
4.459784625E0,-6.520738151E-2,5.093779075E-3,-3.082742770E-2,7.230684260E-2
4.469782625E0,-7.790405299E-2,-7.825167110E-3,-2.303701098E-2,8.161481843E-2
4.479781625E0,-5.205841420E-2,1.974502086E-3,-6.498672678E-2,8.329016631E-2
4.489781625E0,-1.284906225E-2,2.288272214E-2,-1.201151028E-1,1.229485880E-1
4.499779625E0,5.788565767E-4,7.102768170E-4,-1.114256104E-1,1.114293777E-1
4.509751625E0,-1.928292951E-2,9.695737649E-3,-9.415995204E-2,9.660194236E-2
4.519780625E0,-4.407049178E-2,5.659356148E-3,-5.742002773E-2,7.260369234E-2
4.529778625E0,-5.017808212E-2,1.716088929E-2,-4.391856467E-2,6.885620066E-2
4.539750625E0,-7.301829774E-2,4.977057958E-4,-6.037986545E-2,9.475044943E-2
4.549778625E0,-4.824694779E-2,5.892411660E-3,-7.088341992E-2,8.594735427E-2
4.559776625E0,-1.969354794E-2,3.829283002E-3,-9.829387869E-2,1.003204158E-1
4.569761625E0,-5.570080471E-3,-3.031424430E-3,-1.187847973E-1,1.189539549E-1
4.579777625E0,-2.089669707E-2,7.040948140E-3,-9.104913281E-2,9.368132944E-2
4.589775625E0,-5.150995451E-2,5.769214709E-3,-7.153850451E-2,8.834204479E-2
4.599748625E0,-6.992518462E-2,1.511744845E-2,-4.696419658E-2,8.557864484E-2
4.609776625E0,-6.204807151E-2,1.578450441E-3,-5.294670219E-2,8.158313524E-2
4.619774625E0,-2.867675097E-2,1.190181760E-3,-9.442552526E-2,9.869119718E-2
4.629746625E0,-3.305024216E-2,1.229916017E-2,-1.171830530E-1,1.223742447E-1
4.639774625E0,-4.408329627E-2,5.894302298E-3,-1.041340685E-1,1.132342000E-1
4.649772625E0,-1.766745117E-2,-2.637463993E-3,-9.422099149E-2,9.589937583E-2
4.659745625E0,-4.146887824E-2,1.795416231E-2,-7.353956331E-2,8.631388753E-2
4.669772625E0,-4.574732705E-2,9.213615875E-3,-5.721411894E-2,7.383199886E-2
4.679770625E0,-2.186518785E-2,1.123857047E-3,-7.129310417E-2,7.457919413E-2
4.689762625E0,-1.042294284E-2,2.986551582E-4,-8.327772640E-2,8.392798488E-2
4.699771625E0,-4.784771429E-3,1.421717367E-2,-8.417676321E-2,8.550292118E-2
4.709769625E0,8.259555240E-5,2.060616354E-2,-8.821337940E-2,9.058819517E-2
4.719746625E0,-1.572293562E-2,5.997987735E-4,-7.307171754E-2,7.474654753E-2
4.729770625E0,-2.225101728E-2,1.921502415E-3,-7.605306662E-2,7.926454998E-2
4.739768625E0,-1.683524049E-2,2.925230657E-3,-7.725324875E-2,7.912045715E-2
4.749742625E0,-9.204407082E-3,-1.600881565E-3,-8.160195094E-2,8.213502498E-2
4.759768625E0,-1.275242673E-2,7.735713847E-3,-9.313354642E-2,9.432032191E-2
4.769766625E0,-1.243508852E-2,7.778840488E-3,-9.312780884E-2,9.427582174E-2
4.779761625E0,3.434942267E-3,6.035652027E-4,-6.497177983E-2,6.506531560E-2
4.789766625E0,-3.023788446E-2,4.910000630E-3,-7.078605921E-2,7.713043460E-2
4.799764625E0,-3.017867227E-2,5.161946532E-3,-7.078101142E-2,7.711906074E-2
4.809747625E0,-3.766716709E-2,1.408628055E-2,-6.658348717E-2,7.778559982E-2
4.819764625E0,-4.163151763E-2,1.910745365E-2,-7.870570625E-2,9.106517579E-2
4.829762625E0,-4.167951962E-2,1.925698249E-2,-7.870406172E-2,9.111719411E-2
4.839755625E0,-2.902553739E-2,1.084639432E-2,-8.018791147E-2,8.596643086E-2
4.849763625E0,-4.624586157E-2,1.116092655E-2,-8.286005247E-2,9.554597998E-2
4.859761625E0,-4.603239252E-2,1.120455911E-2,-8.285583152E-2,9.544428805E-2
4.869744625E0,3.557782903E-3,-3.984790958E-3,-8.869421239E-2,8.885493621E-2
4.879763625E0,-8.955788497E-3,-1.192892093E-3,-5.381908849E-2,5.457218545E-2
4.889761625E0,-9.212806744E-3,-1.147217787E-3,-5.382256941E-2,5.461740469E-2
4.899747625E0,-1.645637290E-2,-4.791325564E-3,-9.003433940E-2,9.165124811E-2
4.909732625E0,-8.519882567E-3,2.606947123E-3,-7.670355566E-2,7.721929825E-2
4.919730625E0,-8.304816380E-3,2.702087432E-3,-7.669845762E-2,7.719407136E-2
4.929734625E0,-1.288085078E-2,7.543278782E-3,-7.983992904E-2,8.122334419E-2
4.939758625E0,6.552942176E-4,-8.488297753E-4,-8.073963281E-2,8.074675367E-2
4.949756625E0,5.058407917E-4,-7.531686277E-4,-8.074055557E-2,8.074565284E-2
4.959749625E0,-1.222901871E-2,1.006525156E-3,-9.989162123E-2,1.006424264E-1
4.969748625E0,-1.093396779E-2,1.593089094E-2,-7.698580259E-2,7.937353928E-2
4.979746625E0,-1.077240077E-2,1.602727977E-2,-7.698154508E-2,7.936672224E-2
4.989728625E0,7.808528241E-4,-3.468186600E-3,-7.607618596E-2,7.615920247E-2
4.999756625E0,4.114026201E-4,-1.453140441E-3,-8.490293258E-2,8.491636373E-2
5.009754625E0,4.189905102E-4,-1.305673691E-3,-8.490040183E-2,8.491147489E-2
5.019731625E0,-1.435148832E-2,-5.186005768E-3,-9.731117187E-2,9.850037586E-2
5.029746625E0,-2.025122613E-2,5.058770584E-3,-9.161041983E-2,9.395835430E-2
5.039744625E0,-1.998625362E-2,5.208311412E-3,-9.160351281E-2,9.390303723E-2
5.049728625E0,-2.302396209E-2,1.457174905E-2,-9.144549181E-2,9.541863902E-2
5.059745625E0,-2.618020859E-3,8.953170669E-4,-5.267121153E-2,5.274383519E-2
5.069743625E0,-2.664061972E-3,9.393005911E-4,-5.267127092E-2,5.274696477E-2
5.079730625E0,-1.986292305E-2,6.784219398E-3,-7.646624093E-2,7.929468675E-2
5.089744625E0,-2.097119882E-2,1.180656994E-2,-5.879736678E-2,6.353201252E-2
5.099742625E0,-2.086034384E-2,1.179747478E-2,-5.879562632E-2,6.349220449E-2
5.109727625E0,-2.592205459E-2,1.904486674E-2,-7.914634877E-2,8.543304037E-2
5.119720625E0,-1.401474124E-2,1.662037131E-2,-8.094142570E-2,8.381028641E-2
5.129718625E0,-1.406170854E-2,1.671774915E-2,-8.094064912E-2,8.383676677E-2
5.139726625E0,-1.896765152E-2,1.069342339E-2,-5.024934506E-2,5.476420169E-2
5.149741625E0,-8.640521932E-3,2.137746325E-3,-9.021406819E-2,9.065211899E-2
5.159739625E0,-8.533619527E-3,2.181953759E-3,-9.021151003E-2,9.064049938E-2
5.169725625E0,-2.588735959E-3,1.098848051E-2,-9.574855831E-2,9.641179739E-2
5.179740625E0,-1.008420976E-2,5.449273227E-3,-8.825917041E-2,8.900037655E-2
5.189738625E0,-1.007874398E-2,5.649025306E-3,-8.825582653E-2,8.900889553E-2
5.199719625E0,-1.226360693E-3,2.127646231E-2,-9.350089774E-2,9.589895561E-2
5.209739625E0,1.675854832E-2,9.206229197E-3,-8.437877538E-2,8.651809829E-2
5.219737625E0,1.676239812E-2,9.302173784E-3,-8.437715826E-2,8.652752893E-2
5.229714625E0,-1.232570447E-2,7.509002906E-3,-9.065713182E-2,9.179882170E-2
5.239726625E0,-1.127318281E-2,5.840497065E-3,-5.891823513E-2,6.027067684E-2
5.249724625E0,-1.127326847E-2,5.992049585E-3,-5.891577747E-2,6.028316577E-2
5.259742625E0,-2.693891908E-3,1.323862728E-2,-7.822623457E-2,7.938426847E-2
5.269737625E0,1.083431616E-2,1.658623248E-3,-7.358336261E-2,7.439519266E-2
5.279735625E0,-6.924517742E-3,3.494542468E-3,-6.474755738E-2,6.521048198E-2
5.289740625E0,-9.926784894E-3,2.096534304E-3,-8.690229661E-2,8.749254637E-2
5.299740625E0,-9.926908234E-3,2.195677157E-3,-8.690068862E-2,8.749339511E-2
5.309738625E0,-5.795804694E-3,9.631117922E-3,-9.078925149E-2,9.148244624E-2
5.319738625E0,1.135475376E-2,3.716621888E-3,-9.288756137E-2,9.365277768E-2
5.329738625E0,1.135724339E-2,3.761248592E-3,-9.288679392E-2,9.365410003E-2
5.339736625E0,-1.723718061E-2,-9.709963971E-4,-7.820620785E-2,8.008916391E-2
5.349737625E0,-8.218755529E-3,1.184612273E-3,-6.712746095E-2,6.763909566E-2
5.359737625E0,-8.162340748E-3,1.332799861E-3,-6.712407139E-2,6.763165769E-2
5.369735625E0,-2.028762277E-2,3.966582934E-3,-7.175516212E-2,7.467345384E-2
5.379716625E0,-4.145579510E-2,1.256891838E-3,-8.072213684E-2,9.075365613E-2
5.389735625E0,-4.155772851E-2,1.249620077E-3,-8.072403719E-2,9.080185312E-2
5.399733625E0,-7.434112864E-3,1.090060326E-2,-6.934888670E-2,7.059289817E-2
5.409734625E0,-1.212263850E-3,1.195055391E-3,-9.628310345E-2,9.629815030E-2
5.419734625E0,-1.262971172E-3,1.293489327E-3,-9.628239082E-2,9.629936133E-2
5.429732625E0,2.697121867E-3,7.102030416E-3,-7.757321022E-2,7.794431503E-2
5.439732625E0,-8.696638643E-3,-8.594720647E-3,-7.950899491E-2,8.044365120E-2
5.449715625E0,-8.798324236E-3,-8.549516074E-3,-7.951004558E-2,8.045092966E-2
5.459713625E0,-6.583392665E-3,1.334828542E-2,-8.280284112E-2,8.412982991E-2
5.469703625E0,1.034787693E-2,7.382134315E-3,-7.487883608E-2,7.595007938E-2
5.479731625E0,1.045330382E-2,7.425917055E-3,-7.487627336E-2,7.596625644E-2
5.489729625E0,1.433394525E-3,3.387945842E-3,-9.059157905E-2,9.066623954E-2
5.499705625E0,4.763653216E-3,-1.930198578E-3,-1.015170467E-1,1.016470798E-1
5.509730625E0,4.712143472E-3,-1.938117729E-3,-1.015180882E-1,1.016458697E-1
5.519728625E0,-2.740633374E-3,1.977355430E-2,-7.368018428E-2,7.633658413E-2
5.529710625E0,-2.120717737E-4,1.040472739E-2,-8.954891087E-2,9.015159879E-2
5.539728625E0,-4.714977430E-3,4.254419548E-3,-6.933365653E-2,6.962389694E-2
5.549726625E0,-4.047971722E-3,1.157101166E-2,-7.801449227E-2,7.897173792E-2
5.559709625E0,-9.811531934E-3,3.044282309E-3,-6.304157740E-2,6.387311089E-2
5.569703625E0,-2.127007148E-2,1.658548787E-2,-5.195921710E-2,5.854275865E-2
5.579701625E0,-2.127054429E-2,1.657839355E-2,-5.195934044E-2,5.854103045E-2
5.589700625E0,-2.725483146E-2,1.421012047E-2,-7.036237362E-2,7.678292117E-2
5.599724625E0,-2.183016708E-3,2.947747462E-2,-7.800246893E-2,8.341505998E-2
5.609722625E0,-2.078422211E-3,2.967951420E-2,-7.799734348E-2,8.347921294E-2
5.619704625E0,-1.225843865E-2,1.008549454E-2,-7.319908177E-2,7.490054800E-2
5.629723625E0,-2.372944693E-2,-4.012149532E-3,-9.339097009E-2,9.644198925E-2
5.639721625E0,-2.383941113E-2,-3.807438740E-3,-9.338960879E-2,9.645948964E-2
5.649705625E0,1.846876468E-3,1.592519447E-2,-9.025250450E-2,9.166535518E-2
5.659722625E0,-3.005531086E-3,1.037550388E-2,-6.106425006E-2,6.201231276E-2
5.669720625E0,-1.145242281E-2,-1.023310933E-2,-8.066095121E-2,8.211006982E-2
5.679704625E0,9.719879113E-3,1.800261083E-2,-8.291378290E-2,8.540061734E-2
5.689721625E0,-3.850591363E-3,2.149779084E-2,-6.495663646E-2,6.852989628E-2
5.699719625E0,-3.748966869E-3,2.154216801E-2,-6.495409657E-2,6.853578931E-2
5.709718625E0,-1.980386132E-3,-4.766561978E-3,-9.144648766E-2,9.159204195E-2
5.719719625E0,3.564305918E-3,1.174694633E-3,-8.725342191E-2,8.733409311E-2
5.729717625E0,3.665721990E-3,1.114308997E-3,-8.725258137E-2,8.733665988E-2
5.739717625E0,3.363206524E-3,1.048475659E-2,-1.032702977E-1,1.038556483E-1
5.749717625E0,3.484038322E-4,-3.217410142E-3,-1.040155711E-1,1.040659029E-1
5.759715625E0,2.919376768E-4,-3.118768641E-3,-1.040149863E-1,1.040621417E-1
5.769715625E0,1.431395965E-3,2.863703273E-3,-1.002738921E-1,1.003249875E-1
5.779715625E0,1.179348208E-3,-9.837359504E-5,-6.464418501E-2,6.465501678E-2
5.789713625E0,1.382403835E-3,-5.530725826E-5,-6.463984528E-2,6.465464946E-2
5.799714625E0,-1.144322830E-2,4.627678044E-3,-7.511651170E-2,7.612393321E-2
5.809714625E0,1.258529458E-2,-1.778601518E-3,-7.841338201E-2,7.943683995E-2
5.819712625E0,1.247349742E-2,-1.628259982E-3,-7.841293434E-2,7.941553777E-2
5.829698625E0,-6.346638675E-3,-1.255707834E-2,-7.242492869E-2,7.377892880E-2
5.839713625E0,-3.367006072E-3,4.459598573E-3,-7.975803148E-2,7.995353860E-2
5.849711625E0,-3.162480861E-3,4.554039386E-3,-7.975283294E-2,7.994532458E-2
5.859711625E0,-2.189462207E-3,-2.986533917E-3,-8.108640924E-2,8.117092394E-2
5.869682625E0,-3.359744732E-3,1.867416669E-3,-7.149375047E-2,7.159700752E-2
5.879680625E0,-3.679460092E-3,1.912818957E-3,-7.149877999E-2,7.161894192E-2
5.889709625E0,-8.748842173E-3,-9.809262712E-3,-7.122691187E-2,7.242953022E-2
5.899680625E0,1.022607997E-3,-5.826523133E-3,-9.474735053E-2,9.493184151E-2
5.909678625E0,2.479044991E-3,-5.735149539E-3,-9.471992344E-2,9.492576837E-2
5.919707625E0,5.407445650E-2,-9.197116906E-3,-1.206804189E-1,1.325609192E-1
5.929679625E0,-6.606596747E-2,1.055077417E-2,-1.641232349E-2,6.888682933E-2
5.939677625E0,-7.025367937E-2,1.087119131E-2,-1.648504138E-2,7.297615264E-2
5.949706625E0,-7.259362087E-2,1.159443250E-2,8.081731398E-3,7.395660240E-2
5.959678625E0,4.542242286E-2,-7.942752675E-3,-1.779208686E-1,1.837991276E-1
5.969676625E0,4.708887475E-2,-7.331659825E-3,-1.778822404E-1,1.841553877E-1
5.979705625E0,2.560458047E-2,1.687582383E-2,-1.469807929E-1,1.501457341E-1
5.989677625E0,-3.972847735E-2,-9.829176364E-3,-2.760172439E-2,4.936415511E-2
5.999675625E0,-4.140804436E-2,-1.004339916E-2,-2.763536643E-2,5.078591815E-2
6.009703625E0,-6.229205572E-2,8.681086420E-3,-6.751043873E-3,6.325534017E-2
6.019675625E0,1.816481054E-2,5.253511759E-2,-1.037556349E-1,1.177078192E-1
6.029673625E0,1.547830959E-2,5.274424691E-2,-1.037967207E-1,1.174533647E-1
6.039701625E0,4.892642622E-2,4.341065177E-2,-1.641107685E-1,1.766652886E-1
6.049687625E0,1.466541071E-2,-2.338357728E-2,-1.232639563E-1,1.263165424E-1
6.059685625E0,2.365145056E-2,-2.390292651E-2,-1.231123398E-1,1.276220562E-1
6.069700625E0,2.545811914E-2,1.405826959E-3,-7.235335512E-2,7.671440658E-2
6.079699625E0,3.789225749E-2,-1.723643486E-2,-5.394400877E-2,6.813863769E-2
6.089697625E0,4.491521801E-2,-1.733330107E-2,-5.380293556E-2,7.219817179E-2
6.099699625E0,3.160882356E-2,-6.225530505E-2,-1.302252767E-1,1.477615086E-1
6.109684625E0,6.862729004E-2,-1.929116679E-4,-1.775939544E-1,1.903926332E-1
6.119682625E0,1.567277634E-1,-2.002636529E-3,-1.789873824E-1,2.379161311E-1
6.129698625E0,1.028804730E0,-3.635504048E-2,7.137956988E-2,1.031918555E0
6.139696625E0,1.043186834E0,-3.356116775E-2,7.177796626E-2,1.046191760E0
6.149694625E0,1.240010837E0,-1.192801935E-1,2.192501765E-1,1.264881528E0
6.159679625E0,7.209348658E-1,-4.602792579E-1,7.926345753E-2,8.590033596E-1
6.169695625E0,6.844532834E-1,-4.627340287E-1,7.849962845E-2,8.299164236E-1
6.179693625E0,4.637327697E-1,-5.657087954E-1,-9.286470241E-2,7.373590549E-1
6.189694625E0,1.014345393E-2,-2.485547769E-1,-3.117510268E-1,3.988371466E-1
6.199695625E0,6.554052091E-3,-2.519917337E-1,-3.118521105E-1,4.009919305E-1
6.209693625E0,-3.534857113E-1,2.153793380E-1,-2.870061949E-1,5.036992786E-1
6.219693625E0,8.166161423E-3,5.344951888E-1,1.091753643E-1,5.455923874E-1
6.229693625E0,9.084384986E-3,5.405393094E-1,1.092934780E-1,5.515526588E-1
6.239691625E0,3.378599776E-1,2.925810765E-1,4.726295732E-2,4.494294582E-1
6.249691625E0,4.714157918E-1,-5.875477004E-3,-1.884540063E-1,5.077226432E-1
6.259691625E0,4.592149550E-1,-7.484878002E-3,-1.886104924E-1,4.964960384E-1
6.269689625E0,1.563195181E-1,9.064321727E-2,-2.568930708E-1,3.140796625E-1
6.279690625E0,-2.889331083E-1,5.376274326E-1,-2.289161174E-1,6.518651594E-1
6.289690625E0,-2.855548794E-1,5.360614751E-1,-2.289113665E-1,6.490792771E-1
6.299688625E0,-1.182547472E-1,5.454840439E-1,-3.509615779E-1,6.593262140E-1
6.309688625E0,3.192627986E-1,-6.552043139E-2,1.225620255E-1,3.481998156E-1
6.319689625E0,3.228050053E-1,-6.404250652E-2,1.226329961E-1,3.512027417E-1
6.329687625E0,6.209118102E-1,-2.040662366E-1,5.045447726E-2,6.555304411E-1
6.339686625E0,4.820379534E-1,-2.174406826E-1,-1.853203921E-1,5.603433649E-1
6.349687625E0,4.857152307E-1,-2.186142918E-1,-1.852952308E-1,5.639555093E-1
6.359685625E0,4.858115636E-1,-1.349832817E-2,-8.682246384E-2,4.936934478E-1
6.369685625E0,3.338113289E-1,5.359152216E-2,-4.098413379E-3,3.381107090E-1
6.379684625E0,3.283147635E-1,5.274914852E-2,-4.180784602E-3,3.325515532E-1
6.389682625E0,2.443966208E-1,2.120981364E-1,-2.395162788E-1,4.025957967E-1
6.399683625E0,6.887433855E-1,5.190955962E-1,-2.055727351E-1,8.866159476E-1
6.409683625E0,6.884380147E-1,5.184773262E-1,-2.055866223E-1,8.860200320E-1
6.419681625E0,4.908515346E-1,9.450935972E-2,-3.882039562E-2,5.013723878E-1
6.429673625E0,-1.952767659E-2,-2.089306266E-1,-1.488756836E-1,2.572883714E-1
6.439682625E0,-2.350658807E-2,-2.091537527E-1,-1.489160294E-1,2.578252039E-1
6.449680625E0,-8.055284168E-2,5.840686414E-2,-4.542471149E-2,1.093779068E-1
6.459672625E0,4.947889034E-1,-2.372416206E-1,-6.647066331E-2,5.527368222E-1
6.469680625E0,4.815370297E-1,-2.401903166E-1,-6.658824717E-2,5.422207058E-1
6.479678625E0,1.391258992E-1,-2.233310214E-1,-3.031958560E-2,2.648623005E-1
6.489671625E0,-5.721400931E-2,1.019060481E-3,-2.900702638E-1,2.956606827E-1
6.499679625E0,-4.064682825E-2,1.890577696E-3,-2.899716469E-1,2.928127301E-1
6.509677625E0,2.459050380E-1,-1.664502943E-1,-6.542236262E-2,3.040642592E-1
6.519670625E0,5.452136832E-1,-2.388997128E-2,-8.655451518E-2,5.525580288E-1
6.529671625E0,5.492832723E-1,-2.235298496E-2,-8.649282706E-2,5.565004746E-1
6.539669625E0,5.489442068E-1,-2.052766924E-2,-8.646935597E-2,5.560917882E-1
6.549668625E0,1.311086082E-1,-1.374586753E-1,-7.353099806E-2,2.036937953E-1
6.559676625E0,1.324203580E-1,-1.339234396E-1,-7.346590210E-2,2.021580512E-1
6.569674625E0,7.683639709E-2,-1.124889289E-2,9.108720367E-2,1.196964836E-1
6.579644625E0,4.256946584E-1,3.245255119E-1,3.718973280E-2,5.365778847E-1
6.589654625E0,4.145903208E-1,3.261065625E-1,3.715580753E-2,5.287827326E-1
6.599652625E0,4.009628731E-1,1.950031254E-1,-2.281865493E-1,5.008657962E-1
6.609631625E0,-2.586566322E-2,-1.303378402E-2,-1.937699842E-1,1.959227369E-1
6.619652625E0,-1.176299904E-1,-9.659230239E-2,-9.808119535E-2,1.810712799E-1
6.629650625E0,-1.205163588E-1,-9.769764542E-2,-9.810514153E-2,1.835582781E-1
6.639634625E0,-2.054139467E-1,-1.510264175E-1,3.291642543E-2,2.570746182E-1
6.649650625E0,-1.954051763E-1,-1.606939663E-1,-1.918293481E-1,3.174968228E-1
6.659648625E0,-2.021189858E-1,-1.620805238E-1,-1.918512386E-1,3.223803319E-1
6.669649625E0,-2.597619889E-1,9.597659058E-2,-3.371402584E-1,4.362927351E-1
6.679637625E0,-1.049183606E-2,3.881987485E-2,-3.738125698E-1,3.759692788E-1
6.689635625E0,4.194161821E-3,3.801788583E-2,-3.737882307E-1,3.757400592E-1
6.699647625E0,-6.475403957E-2,8.640428742E-2,1.293489801E-1,1.684931606E-1
6.709635625E0,-1.287071636E-2,1.148855450E-1,1.117387380E-1,1.607790078E-1
6.719633625E0,-1.623020419E-1,5.142866907E-2,-3.065028447E-2,1.729921986E-1
6.729646625E0,-2.024312272E-1,-6.210128574E-2,-9.283660837E-2,2.312003617E-1
6.739643625E0,-1.955261771E-1,3.576734506E-2,-1.547183860E-1,2.518880066E-1
6.749641625E0,-2.938700723E-2,-1.258746216E-2,-1.668080708E-1,1.698439663E-1
6.759644625E0,2.783722328E-1,-6.478982636E-2,-1.158638024E-1,3.084043487E-1
6.769624625E0,1.406315390E-1,5.420447482E-2,-8.175661893E-2,1.714628227E-1
6.779622625E0,-6.560022304E-2,-1.390643938E-1,-5.467256727E-2,1.631912513E-1
6.789642625E0,-8.318752396E-2,-1.959716984E-1,1.421148771E-1,2.559720864E-1
6.799623625E0,1.824611402E-1,-2.051910764E-1,4.979260900E-2,2.790604763E-1
6.809621625E0,-1.887957943E-1,-2.058010141E-1,-1.656478621E-2,2.797718740E-1
6.819641625E0,-1.514883658E-1,-1.576399838E-1,-2.110253916E-1,3.038598450E-1
6.829612625E0,-1.110067762E-1,-7.072453554E-2,-3.193364552E-2,1.354408432E-1
6.839610625E0,-3.811442838E-1,-1.430184729E-1,-2.840077153E-2,4.080831441E-1
6.849639625E0,-2.422367142E-1,-1.253919865E-1,-1.898011317E-1,3.323044471E-1
6.859620625E0,1.844697684E-1,9.767987536E-2,-8.129327391E-3,2.088936080E-1
6.869618625E0,1.837854066E-1,1.002341127E-1,-8.083430745E-3,2.094977205E-1
6.879637625E0,1.492062066E-1,2.561023354E-2,-2.101178672E-1,2.589746982E-1
6.889619625E0,2.137669318E-1,1.621058679E-1,-1.265878791E-1,2.966464304E-1
6.899617625E0,2.097157067E-1,1.602903074E-1,-1.266225422E-1,2.927574567E-1
6.909636625E0,1.830526774E-1,2.640294239E-2,-1.220521209E-1,2.215899778E-1
6.919610625E0,5.862203254E-2,-8.125436137E-2,-1.291318656E-1,1.634437293E-1
6.929608625E0,4.440545958E-2,-8.660920492E-2,-1.291806259E-1,1.617424908E-1
6.939635625E0,-1.413711592E-2,2.532892993E-2,-3.926987109E-1,3.937685745E-1
6.949627625E0,-2.420794423E-1,5.408493580E-2,-3.739769496E-2,2.508510001E-1
6.959625625E0,-2.408604440E-1,5.264186582E-2,-3.742581184E-2,2.493704292E-1
6.969634625E0,1.163117448E-1,7.897959349E-2,-2.459249368E-1,2.832759656E-1
6.979629625E0,-7.259911634E-2,2.127228201E-1,3.011957884E-2,2.267792294E-1
6.989627625E0,-7.439114175E-2,2.149107203E-1,3.015975789E-2,2.294128825E-1
6.999631625E0,-4.900241719E-2,1.045728381E-1,-2.260789387E-1,2.538668980E-1
7.009628625E0,2.895414014E-1,-5.493573766E-2,-1.660098710E-1,3.382475952E-1
7.019626625E0,3.035935763E-1,-5.059625854E-2,-1.659558208E-1,3.496718110E-1
7.029630625E0,5.170861640E-1,1.903260015E-2,-1.462878156E-1,5.377178311E-1
7.039624625E0,4.018844308E-1,2.415260765E-1,1.788474695E-1,5.018290134E-1
7.049622625E0,3.803772022E-1,2.381937117E-1,1.788608085E-1,4.831296400E-1
7.059629625E0,1.812124125E-1,3.605804304E-1,1.309897088E-1,4.242811438E-1
7.069612625E0,-2.163230193E-2,4.539586371E-1,2.485778140E-2,4.551530621E-1
7.079610625E0,-3.170416058E-2,4.445476897E-1,2.482058077E-2,4.463674086E-1
7.089628625E0,-1.673931943E-1,2.407760797E-1,-5.880572191E-2,2.990847957E-1
7.099611625E0,-1.353497948E-1,-1.013745391E-1,-1.979103793E-1,2.603168883E-1
7.109609625E0,-1.422286877E-1,-1.112652505E-1,-1.979296203E-1,2.679273972E-1
7.119624625E0,2.396864328E-1,-3.480320863E-1,-2.344630785E-1,4.832689255E-1
7.129609625E0,2.350210856E-1,-3.450489831E-1,-2.865514094E-1,5.063649095E-1
7.139607625E0,2.341971764E-1,-3.368498345E-1,-2.864570317E-1,5.003736199E-1
7.149624625E0,1.038849041E-1,-2.140286130E-1,-2.030314438E-1,3.127652277E-1
7.159624625E0,1.041625737E-1,-1.915968299E-1,-2.027338023E-1,2.977585962E-1
7.169622625E0,1.134825147E-1,-1.113553799E-1,-1.844560092E-1,2.435206790E-1
7.179623625E0,-2.091743642E-2,5.571619933E-1,-3.906417335E-1,6.807848338E-1
7.189624625E0,-2.469440197E-3,5.492177834E-1,-3.909662905E-1,6.741668281E-1
7.199622625E0,1.526736969E-1,2.763723754E-1,2.921995639E-1,4.301994105E-1
7.209621625E0,7.427440301E-2,1.959269855E-1,2.701939150E-1,3.419193213E-1
7.219621625E0,6.657821097E-2,1.910228709E-1,2.701896209E-1,3.375275198E-1
7.229619625E0,-4.468155779E-2,1.412405630E-1,2.000247964E-2,1.494839036E-1
7.239620625E0,-2.238167058E-1,-2.358855233E-1,-1.510036681E-1,3.585219738E-1
7.249621625E0,-2.459170248E-1,-2.392999136E-1,-1.507243814E-1,3.747765612E-1
7.259619625E0,-1.075612404E-1,-4.012356640E-2,-7.039509519E-2,1.346654761E-1
7.269618625E0,-3.071867268E-1,1.911075641E-1,-1.143554857E-1,3.794245160E-1
7.279618625E0,-3.160708036E-1,1.889018117E-1,-1.142133527E-1,3.855247557E-1
7.289616625E0,-4.804399916E-2,2.499343177E-1,5.869766719E-2,2.611911277E-1
7.299618625E0,-7.871148951E-2,5.878221975E-1,4.157205876E-2,5.945239024E-1
7.309616625E0,-8.752095030E-2,5.829885967E-1,4.171871881E-2,5.909958309E-1
7.319614625E0,-7.115031334E-2,4.872899956E-1,1.104852594E-1,5.046988205E-1
7.329615625E0,2.480800012E-1,1.400560085E-1,-1.482663307E-1,3.211577141E-1
7.339616625E0,2.320199108E-1,1.280412503E-1,-1.479112768E-1,3.034889563E-1
7.349614625E0,-1.106327462E-1,7.520206377E-2,-2.593255308E-1,2.917956235E-1
7.359584625E0,2.408700874E-2,1.964312164E-1,2.547080394E-1,3.225547894E-1
7.369614625E0,1.672461003E-1,2.849946979E-1,-1.657951138E-1,3.697042813E-1
7.379612625E0,8.530224259E-2,2.044712842E-1,-7.034037439E-1,7.374698675E-1
7.389583625E0,-1.162494902E-1,1.004382993E-1,-7.118116745E-1,7.282016589E-1
7.399613625E0,-3.884272833E-1,1.115459352E-1,3.560154908E-2,4.056916567E-1
7.409611625E0,-3.033014165E-1,1.795506886E-1,-3.016916597E-1,4.639483339E-1
7.419580625E0,3.760840714E-2,6.689109639E-2,-1.399291011E-2,7.800392681E-2
7.429611625E0,-4.839538484E-2,-2.086759987E-1,-1.843590002E-1,2.826234715E-1
7.439609625E0,-6.132433239E-2,-2.020381481E-1,-1.837827571E-1,2.799217548E-1
7.449588625E0,-8.032504695E-2,5.877717105E-2,-4.738517418E-1,4.841924640E-1
7.459609625E0,-9.176832207E-2,-8.373031916E-2,3.368105851E-2,1.287113242E-1
7.469607625E0,-2.575168043E-1,-7.279527215E-2,-8.426072557E-2,2.805600221E-1
7.479608625E0,-4.402456008E-1,8.881610856E-2,1.044147806E-1,4.610931972E-1
7.489575625E0,-3.691794919E-1,1.815924084E-1,1.403090650E-1,4.346906184E-1
7.499573625E0,-3.672484124E-1,1.856881271E-1,1.402580572E-1,4.347686736E-1
7.509606625E0,-3.323503656E-1,2.009893586E-1,-4.770384813E-5,3.883986226E-1
7.519606625E0,-4.697413228E-2,7.992209156E-2,-4.084337875E-1,4.188224786E-1
7.529604625E0,9.185639575E-2,1.339327312E-1,-2.351054499E-1,2.857448976E-1
7.539604625E0,-1.199416232E-1,1.888813681E-3,-1.783755810E-1,2.149590856E-1
7.549604625E0,-2.308585076E-1,-1.190443131E-1,-9.373293171E-2,2.761395689E-1
7.559602625E0,-2.235711775E-1,-1.075359695E-1,-9.387811624E-2,2.652567753E-1
7.569603625E0,-4.515794416E-1,-1.802045535E-1,8.874233315E-2,4.942396937E-1
7.579603625E0,-1.659438523E-1,2.027357803E-2,-2.070849895E-1,2.661438953E-1
7.589601625E0,-3.447153994E-1,-5.776420946E-2,-1.767953504E-2,3.499685364E-1
7.599602625E0,-5.111158279E-1,1.041651593E-1,-1.119000389E-1,5.334898206E-1
7.609582625E0,-6.349060245E-1,2.373978691E-1,9.696722768E-2,6.847379436E-1
7.619580625E0,-6.284764992E-1,2.352718398E-1,9.676231932E-2,6.780106895E-1
7.629600625E0,-3.935275902E-1,1.186255063E-1,1.436932462E-2,4.112693187E-1
7.639589625E0,6.793124754E-2,1.335617436E-1,-1.738584790E-1,2.295215991E-1
7.649587625E0,4.210466245E-2,1.307808901E-1,3.092080727E-1,3.383579112E-1
7.659598625E0,-2.832564120E-1,2.107455064E-2,4.059436776E-2,2.869254857E-1
7.669586625E0,-5.804451675E-1,-1.573923725E-1,2.067093425E-1,6.359384433E-1
7.679584625E0,-6.015696228E-1,-1.729461854E-1,2.072805058E-1,6.593645442E-1
7.689596625E0,-4.118824387E-1,-3.119377357E-1,-2.716402238E-1,5.837299936E-1
7.699586625E0,-2.354924625E-1,-4.464380579E-1,-4.022880349E-1,6.454450422E-1
7.709584625E0,-2.462185949E-1,-4.442635150E-1,-4.018756966E-1,6.476864540E-1
7.719595625E0,-5.475842541E-1,-2.846580627E-1,-3.208787132E-1,6.955874327E-1
7.729582625E0,-4.407443317E-1,-1.244491230E-1,-3.528676971E-1,5.781511583E-1
7.739580625E0,-4.136114604E-1,-1.175122787E-1,-3.536918622E-1,5.567598308E-1
7.749594625E0,-2.975064238E-1,-8.966180781E-2,6.911084563E-2,3.183168562E-1
7.759585625E0,-9.430139070E-2,1.399729598E-1,2.083443884E-1,2.681278910E-1
7.769583625E0,-8.205412343E-2,1.452468285E-1,2.080908751E-1,2.667045794E-1
7.779593625E0,-4.721841342E-2,1.383591123E-3,1.404085956E-1,1.481420488E-1
7.789588625E0,-1.701008572E-1,8.106562079E-3,-1.752175181E-1,2.443382831E-1
7.799586625E0,-1.818547108E-1,5.127619836E-3,-1.749477056E-1,2.523967671E-1
7.809591625E0,-3.746599775E-1,-2.509503446E-1,-4.991877181E-2,4.536937931E-1
7.819587625E0,-9.247074625E-2,-1.719840261E-1,-3.588221772E-2,1.985368421E-1
7.829585625E0,-8.762371511E-2,-1.744989683E-1,-3.603355325E-2,1.985603746E-1
7.839589625E0,-2.100445395E-1,1.634183828E-2,2.996572627E-2,2.127996922E-1
7.849580625E0,-4.433323459E-1,1.158242149E-1,1.788002167E-1,4.918621099E-1
7.859578625E0,-4.128876482E-1,4.646120082E-1,-3.578782402E-2,6.225924000E-1
7.869588625E0,-3.604966325E-1,2.085253780E-1,-1.103619745E-1,4.308368841E-1
7.879567625E0,-7.961087351E-2,1.413103916E-1,-1.706847930E-1,2.354566128E-1
7.889565625E0,-8.406668024E-2,1.333992915E-1,-1.706003373E-1,2.323080989E-1
7.899586625E0,3.026215863E-1,5.972397961E-1,-7.004350851E-2,6.731874120E-1
7.909578625E0,5.930646649E-1,3.944929655E-1,-1.368946017E-1,7.253209831E-1
7.919576625E0,5.787321526E-1,4.016169207E-1,-1.363694030E-1,7.175121390E-1
7.929584625E0,5.489802403E-1,-2.739006843E-1,1.172959683E-1,6.246272755E-1
7.939585625E0,2.793433640E-1,-3.489815645E-1,1.331334374E-2,4.472114628E-1
7.949583625E0,-5.338476371E-2,-2.152250446E-1,1.836179935E-1,2.879015811E-1
7.959583625E0,-3.177545458E-1,-2.991414743E-2,-2.296780827E-1,3.932109221E-1
7.969583625E0,-3.537534406E-1,1.481290033E-1,-1.424921595E-1,4.091304363E-1
7.979581625E0,-2.388326479E-1,1.089158119E-1,-3.773465903E-1,4.596674200E-1
7.989582625E0,-7.748023949E-2,3.947370137E-1,-2.243293421E-1,4.605910890E-1
7.999574625E0,5.224045903E-2,5.765181775E-1,-1.279307653E-1,5.928478348E-1
8.009572625E0,-1.161495394E-1,4.185360950E-1,-1.335926722E-2,4.345591425E-1
8.019557625E0,-2.140473606E-1,1.556057558E-1,-7.815909209E-2,2.759316355E-1
8.029580625E0,-2.496415732E-1,-1.106971341E-2,-4.415874362E-2,2.537586418E-1
8.039578625E0,-5.534674210E-2,2.418893713E-1,-2.005538507E-1,3.190541910E-1
8.049556625E0,-1.643344793E-1,2.907138595E-1,-5.518227546E-2,3.384751878E-1
8.059579625E0,1.727154785E-2,2.172089501E-1,-2.088297073E-1,3.018076888E-1
8.069577625E0,7.432392390E-3,-2.459507468E-2,-8.143021639E-2,8.538757694E-2
8.079554625E0,-2.000034449E-1,-2.818281200E-1,4.406636675E-2,3.483824219E-1
8.089577625E0,5.082887265E-2,-3.035369496E-1,-5.080690448E-2,3.119288310E-1
8.099575625E0,-2.427166975E-1,-2.912588748E-1,3.819527710E-1,5.381738071E-1
8.109553625E0,-2.389750185E-2,-3.010300473E-1,-3.825321205E-1,4.873612655E-1
8.119576625E0,1.185685942E-2,-2.715875258E-1,-5.267862562E-1,5.927934961E-1
8.129574625E0,-2.465927985E-1,-1.280277651E-1,-3.510538908E-1,4.477029720E-1
8.139552625E0,-3.131217603E-1,-1.322057560E-1,2.131375338E-1,4.011872469E-1
8.149548625E0,-3.741872301E-1,-7.057370022E-2,1.624069081E-1,4.139719002E-1
8.159546625E0,-9.921022874E-2,-1.964623118E-2,-9.718986955E-2,1.402658712E-1
8.169561625E0,-1.022857545E-1,-1.504700777E-2,-9.705176563E-2,1.418020918E-1
8.179573625E0,-4.544379626E-1,-1.151601722E-1,-1.887552293E-1,5.053753691E-1
8.189571625E0,-4.495819231E-1,-1.160937899E-1,-1.888967684E-1,5.012820192E-1
8.199550625E0,2.526793480E-1,1.231406166E-1,1.182377811E-1,3.049436624E-1
8.209572625E0,-1.171031106E-1,-3.242716194E-3,2.221900287E-1,2.511813340E-1
8.219570625E0,-3.775568343E-1,1.001220906E-2,7.330904597E-2,3.847383834E-1
8.229549625E0,-3.371316703E-1,8.590411294E-2,-1.208225154E-1,3.682870619E-1
8.239569625E0,-1.338722125E-1,-9.220266969E-2,-1.636606973E-1,2.306684318E-1
8.249567625E0,-1.481488291E-1,-1.062306699E-1,-1.632997779E-1,2.447444550E-1
8.259539625E0,-3.994144390E-2,-3.030586657E-1,-2.238089765E-1,3.788539715E-1
8.269568625E0,-1.683771894E-1,-9.689740827E-2,-8.364079281E-2,2.115083163E-1
8.279566625E0,9.265797593E-2,-1.751209842E-1,2.585236035E-1,3.257104744E-1
8.289566625E0,1.864080244E-2,-3.302507035E-1,5.530608568E-2,3.353681109E-1
8.299567625E0,-1.953332738E-1,-2.609674838E-1,-4.310209237E-1,5.404055441E-1
8.309565625E0,-2.002999901E-1,-2.653078902E-1,-4.308579326E-1,5.441938264E-1
8.319565625E0,-1.825226638E-1,-1.183417336E-1,-4.464963108E-2,2.220650317E-1
8.329565625E0,1.993110021E-2,-2.297527808E-1,-4.977172347E-2,2.359254406E-1
8.339563625E0,8.586615172E-2,-1.759764136E-1,-2.338865613E-1,3.050305193E-1
8.349563625E0,7.911780705E-2,-1.453017558E-2,2.052674419E-2,8.301867634E-2
8.359564625E0,-1.018395115E-1,2.588001585E-1,-1.665752237E-1,3.241853070E-1
8.369562625E0,-1.043248979E-1,2.665123618E-1,-1.664648027E-1,3.310937237E-1
8.379562625E0,-3.280157150E-1,5.194368909E-1,-1.166236481E-1,6.253079786E-1
8.389562625E0,-5.863561361E-2,4.004722186E-1,-2.725271002E-1,4.879417521E-1
8.399560625E0,1.195425964E-1,1.810325558E-1,-1.519342342E-2,2.174719723E-1
8.409541625E0,1.251220918E-1,-4.281910541E-2,1.307416315E-1,1.859634046E-1
8.419560625E0,2.832729670E-1,-1.112242652E-1,4.244475113E-2,3.072718143E-1
8.429558625E0,2.795469019E-1,-1.196804628E-1,4.252796432E-2,3.070480602E-1
8.439559625E0,9.447032955E-2,-1.561956302E-1,1.460706704E-3,1.825482175E-1
8.449551625E0,4.766182423E-2,3.011036948E-2,-2.764889908E-1,2.821780393E-1
8.459549625E0,-1.258707912E-1,1.993548974E-1,-2.317341281E-1,3.305851438E-1
8.469557625E0,-1.667984411E-1,4.991913087E-1,-7.880878170E-2,5.321884128E-1
8.479554625E0,-2.808913960E-1,4.450997399E-1,2.294465512E-1,5.741597989E-1
8.489552625E0,-2.909605024E-1,4.430866897E-1,2.297809388E-1,5.777396545E-1
8.499556625E0,-1.986163392E-1,2.613825447E-1,1.384968210E-1,3.563013533E-1
8.509553625E0,-1.033795402E-1,-1.405756158E-1,-3.237242972E-1,3.677584176E-1
8.519551625E0,-1.149530803E-1,-1.540162450E-1,-3.232761812E-1,3.760886913E-1
8.529555625E0,-4.969746383E-2,-4.846151137E-1,-3.569335220E-1,6.039231618E-1
8.539552625E0,-2.934526222E-1,-6.186791240E-1,-4.097760889E-1,7.979941998E-1
8.549550625E0,-2.873226389E-1,-6.152487818E-1,-4.100263863E-1,7.932256928E-1
8.559552625E0,-2.706844964E-1,-4.173504624E-1,-3.906803251E-1,6.325208467E-1
8.569551625E0,-1.002583970E-1,-1.818009347E-1,-1.335785452E-1,2.468735583E-1
8.579549625E0,-7.865850826E-2,-1.642401198E-1,-1.342653281E-1,2.262502071E-1
8.589552625E0,-3.520281831E-1,5.422375236E-2,-5.741090516E-2,3.607770351E-1
8.599547625E0,6.651454027E-2,-6.131071020E-2,1.419301599E-1,1.683073306E-1
8.609545625E0,6.832259985E-2,-5.617635237E-2,1.419089181E-1,1.672181247E-1
8.619550625E0,-3.489757630E-3,8.455955484E-3,4.020273222E-2,4.123034403E-2
8.629547625E0,-2.261385803E-1,3.011188439E-3,-1.019913472E-1,2.480926433E-1
8.639545625E0,-2.247332751E-1,-1.001143676E-3,-1.020561051E-1,2.468228025E-1
8.649549625E0,-5.797139275E-2,-6.629584527E-2,1.273668288E-1,1.548487344E-1
8.659547625E0,-1.463540605E-2,-1.502121013E-1,-2.122471673E-1,2.604356553E-1
8.669545625E0,-1.872707971E-2,-1.549157660E-1,-2.121445122E-1,2.633531700E-1
8.679546625E0,1.789095962E-1,-2.306572537E-1,-1.188828843E-1,3.151897087E-1
8.689546625E0,-1.941154815E-1,-1.137320629E-1,-1.588907215E-1,2.754306876E-1
8.699544625E0,-1.994613167E-1,-1.052825348E-1,-1.586651834E-1,2.757605291E-1
8.709546625E0,-7.779191435E-2,3.972301842E-2,-2.197870788E-1,2.365076323E-1
8.719545625E0,-1.476110223E-1,2.872981902E-1,-1.147552526E-1,3.427798594E-1
8.729543625E0,-1.319201287E-1,2.966325574E-1,-1.151646947E-1,3.444658203E-1
8.739544625E0,2.907027087E-2,4.034057667E-1,3.285043595E-1,5.210531714E-1
8.749518625E0,-2.630102999E-1,6.795410193E-2,-1.610237858E-1,3.157860628E-1
8.759516625E0,-2.762888516E-1,7.137914961E-2,-1.605643591E-1,3.274315591E-1
8.769543625E0,-7.466931664E-1,9.514685241E-2,8.450296476E-2,7.574591470E-1
8.779528625E0,1.860541994E-1,1.490039478E-1,1.034560565E-1,2.598489892E-1
8.789526625E0,2.273271365E-1,-1.504170645E-1,-9.773661163E-2,2.895779093E-1
8.799542625E0,-3.195412905E-2,-2.125433105E-1,-3.781805495E-1,4.349899461E-1
8.809541625E0,-1.410332427E-2,-1.081690219E-1,-4.028374173E-1,4.173456911E-1
8.819539625E0,-3.558684882E-1,-1.130955021E-1,-4.128427525E-2,3.756825320E-1
8.829539625E0,-4.551303826E-1,3.349548707E-2,9.068920928E-2,4.652850153E-1
8.839540625E0,-4.108477373E-1,1.231173739E-1,1.823129498E-1,4.660383704E-1
8.849538625E0,-3.578237605E-1,7.609428949E-2,6.552610958E-2,3.716474883E-1
8.859537625E0,-1.928665528E-1,2.448346138E-1,-1.419285633E-2,3.119982892E-1
8.869539625E0,-3.797281430E-2,3.284545485E-1,-1.372552470E-1,3.579990613E-1
8.879537625E0,-6.346721359E-2,-9.488734224E-3,-9.393985005E-2,1.137665096E-1
8.889514625E0,-8.016177258E-2,-1.436103299E-1,-4.970310092E-2,1.718145363E-1
8.899537625E0,-4.440629555E-2,-1.387503709E-1,-7.843556489E-2,1.654561040E-1
8.909535625E0,-3.172622697E-2,-1.936563106E-1,-7.046905333E-2,2.085070924E-1
8.919535625E0,1.852729565E-2,-2.037974839E-1,-7.127639850E-2,2.166956394E-1
8.929535625E0,3.104100638E-2,-2.038222980E-1,-1.145911194E-1,2.358775061E-1
8.939533625E0,-5.762051870E-2,-1.859467385E-1,-2.230689200E-1,2.960676558E-1
8.949533625E0,-1.330388381E-1,-6.847263118E-2,-2.465849961E-1,2.884302237E-1
8.959533625E0,-2.011218528E-1,4.190107428E-2,-2.303855775E-1,3.086797921E-1
8.969531625E0,-2.079709158E-1,1.930740193E-1,-8.531748190E-2,2.963250774E-1
8.979518625E0,-1.429398004E-1,3.085039218E-1,8.903390821E-2,3.514733178E-1
8.989532625E0,-5.704776566E-3,1.461840915E-1,1.053374621E-1,1.802728876E-1
8.999530625E0,3.669519311E-2,1.273489491E-1,8.875023831E-3,1.328271737E-1
9.009517625E0,3.113786003E-2,1.880166346E-1,-1.240791495E-1,2.274103264E-1
9.019531625E0,-9.532512853E-2,2.082427565E-1,-1.832232516E-1,2.932962422E-1
9.029529625E0,-2.808547778E-1,4.357351317E-1,-2.199662594E-1,5.631426698E-1
9.039516625E0,-2.817217737E-1,2.931706403E-1,-3.177998983E-1,5.160551884E-1
9.049528625E0,-9.195271036E-2,2.715687005E-2,-2.626735917E-1,2.796251282E-1
9.059526625E0,1.521943782E-2,-8.846611616E-2,-1.246431500E-1,1.536027339E-1
9.069502625E0,3.978981372E-2,-1.757977994E-1,-5.225959496E-2,1.876676872E-1
9.079527625E0,-4.095007947E-2,-1.064858187E-1,-9.011852103E-2,1.453873668E-1
9.089525625E0,-1.707896889E-2,-1.031705844E-1,-9.120362721E-2,1.387586476E-1
9.099525625E0,-1.333491425E-1,-4.012508759E-2,-1.965681144E-1,2.408963264E-1
9.109509625E0,-2.977935951E-1,-1.166940614E-1,2.239162455E-2,3.206242569E-1
9.119507625E0,-1.137095054E-1,-7.217423389E-2,1.302843427E-1,1.873845821E-1
9.129524625E0,-6.723150484E-2,-7.447102934E-2,1.089856496E-1,1.481346727E-1
9.139524625E0,-1.352978322E-2,-7.579296146E-2,1.539946012E-2,7.851605831E-2
9.149522625E0,-7.073713675E-3,-7.531606620E-2,1.519388709E-2,7.715828833E-2
9.159522625E0,1.050291037E-1,-2.344187013E-3,-1.466262598E-1,1.803770160E-1
9.169523625E0,1.565132436E-1,1.637684734E-2,-2.201099365E-1,2.705789731E-1
9.179521625E0,9.260366078E-2,-5.493375052E-2,-2.462729923E-1,2.687815873E-1
9.189521625E0,7.905256491E-2,-2.985524587E-2,-1.178315732E-1,1.449997358E-1
9.199521625E0,3.164891581E-2,-3.888609000E-2,1.145914026E-1,1.250798602E-1
9.209519625E0,5.369015738E-2,-3.920976080E-2,1.141303314E-1,1.320824397E-1
9.219508625E0,-8.235481764E-3,6.984047422E-3,2.069134469E-1,2.071950158E-1
9.229519625E0,1.407174017E-1,-1.237320054E-2,-1.363800467E-1,1.963517262E-1
9.239517625E0,9.591556940E-2,-6.720088462E-2,-1.674808478E-1,2.043663126E-1
9.249517625E0,6.293265017E-2,-7.676616655E-2,-1.296890687E-1,1.633181476E-1
9.259518625E0,7.936425805E-2,-8.844971198E-3,-1.765824044E-1,1.937995472E-1
9.269516625E0,9.985983613E-2,-7.532861716E-3,-1.768952304E-1,2.032748224E-1
9.279517625E0,1.461342166E-1,3.782881006E-3,-2.772004508E-1,3.133841243E-1
9.289516625E0,9.142193849E-2,6.432817726E-3,-7.307772464E-2,1.172164912E-1
9.299514625E0,1.344016048E-1,5.664137275E-3,-7.339721102E-2,1.532417189E-1
9.309516625E0,-1.482338878E-1,-1.110128838E-2,2.030868462E-1,2.516759647E-1
9.319490625E0,-1.242629166E-1,-1.576589439E-2,1.689937783E-1,2.103538280E-1
9.329488625E0,-1.265908667E-1,-1.948416509E-2,1.689214372E-1,2.119889907E-1
9.339514625E0,1.922080284E-1,2.350775112E-1,-5.472092100E-2,3.085445538E-1
9.349513625E0,8.746187515E-2,-1.089958182E-1,-2.493473304E-1,2.858386943E-1
9.359511625E0,9.754902564E-2,-1.127771030E-1,-2.494079770E-1,2.905835961E-1
9.369512625E0,1.113805320E-1,1.309708332E-1,-5.011822125E-2,1.790832716E-1
9.379487625E0,2.845759230E-2,-8.432145439E-2,-1.480233880E-1,1.727161418E-1
9.389485625E0,2.629733848E-2,5.587245704E-2,-1.357543604E-2,6.322637053E-2
9.399511625E0,7.709830781E-3,1.558078090E-2,-2.461781943E-2,3.013700811E-2
9.409510625E0,1.113306663E-2,1.633488100E-2,-2.458487631E-2,3.154662665E-2
9.419508625E0,3.138177559E-5,-2.442435425E-2,-5.422060491E-2,5.946784057E-2
9.429500625E0,3.342192407E-2,4.248734787E-3,-1.040805848E-1,1.093976457E-1
9.439510625E0,3.162058194E-2,4.027347724E-3,-1.040943714E-1,1.088656001E-1
9.449508625E0,3.033196982E-2,8.508336172E-4,-9.107036551E-2,9.599251943E-2
9.459508625E0,5.411027069E-2,6.719451778E-3,-8.794074384E-2,1.034729281E-1
9.469507625E0,5.523596020E-2,6.905336705E-3,-8.793182683E-2,1.040706546E-1
9.479505625E0,3.520739650E-2,-5.680862938E-3,-1.079879318E-1,1.137243439E-1
9.489506625E0,1.671723066E-2,-5.254124689E-3,-8.627692776E-2,8.803851368E-2
9.499506625E0,1.737310782E-2,-5.381065799E-3,-8.627589536E-2,8.817205263E-2
9.509504625E0,3.396187104E-2,1.870844514E-2,-6.023960993E-2,7.163955059E-2
9.519504625E0,3.428032046E-2,-6.720022795E-3,-7.940083056E-2,8.674555303E-2
9.529505625E0,3.404914302E-2,-6.633956234E-3,-7.940039202E-2,8.664742217E-2
9.539503625E0,1.298722328E-2,1.258155213E-2,-8.180177953E-2,8.377645586E-2
9.549503625E0,3.648947619E-2,-5.790196164E-3,-7.552053602E-2,8.407353689E-2
9.559504625E0,3.688261922E-2,-5.705993974E-3,-7.551719672E-2,8.423617375E-2
9.569502625E0,5.325697463E-2,1.624233169E-3,-8.869441339E-2,1.034680745E-1
9.579502625E0,2.059552435E-2,9.645633892E-4,-6.354917054E-2,6.681020193E-2
9.589501625E0,2.088519222E-2,9.439977782E-4,-6.354827518E-2,6.689892125E-2
9.599499625E0,4.332159593E-2,1.171133798E-2,-7.493422932E-2,8.734446081E-2
9.609500625E0,3.830473287E-2,-1.927770898E-3,-8.632692145E-2,9.446325332E-2
9.619500625E0,3.864663738E-2,-1.896196219E-3,-8.632493888E-2,9.459996413E-2
9.629498625E0,3.268935246E-2,4.210125462E-3,-6.477205174E-2,7.267556403E-2
9.639498625E0,3.335413977E-2,7.113075600E-3,-8.752313387E-2,9.393291993E-2
9.649499625E0,3.364219737E-2,7.145268405E-3,-8.752137970E-2,9.403639832E-2
9.659497625E0,1.621366091E-2,1.838253595E-2,-1.012982329E-1,1.042215545E-1
9.669475625E0,1.034142557E-2,1.313076214E-2,-8.603488044E-2,8.764338338E-2
9.679497625E0,1.063111971E-2,1.326740541E-2,-8.603123507E-2,8.769502927E-2
9.689495625E0,-1.120523734E-3,3.815047258E-3,-7.615127244E-2,7.625500936E-2
9.699479625E0,5.298417918E-3,2.587263020E-3,-8.962055753E-2,8.981431676E-2
9.709496625E0,-1.807492523E-4,4.404194207E-3,-8.393053148E-2,8.404619986E-2
9.719494625E0,3.425315203E-3,-2.127819049E-3,-7.045750965E-2,7.057280683E-2
9.729487625E0,1.935198832E-2,3.205791656E-3,-7.929174344E-2,8.168204901E-2
9.739494625E0,8.526795301E-3,5.159259325E-3,-8.273464797E-2,8.333274368E-2
9.749492625E0,2.552354628E-2,-4.034509564E-4,-6.881342336E-2,7.339551363E-2
9.759486625E0,2.278184625E-2,-1.600004197E-3,-7.135679314E-2,7.492238958E-2
9.769471625E0,1.765411792E-2,1.422156194E-3,-6.477072241E-2,6.714861792E-2
9.779469625E0,3.178637791E-2,-1.806353808E-3,-8.333036047E-2,8.920530092E-2
9.789486625E0,1.137477704E-2,9.196096498E-3,-7.869215716E-2,8.004004836E-2
9.799491625E0,2.010704202E-2,-2.034437502E-2,-7.314528282E-2,7.853928401E-2
9.809489625E0,3.336184850E-2,-5.988278017E-3,-7.299567633E-2,8.048130946E-2
9.819484625E0,3.520925116E-2,4.076446349E-3,-7.838644828E-2,8.602757730E-2
9.829490625E0,1.649216539E-2,-1.078976811E-3,-7.179919439E-2,7.367686222E-2
9.839488625E0,3.623945290E-2,-2.116980608E-4,-6.461421346E-2,7.408332703E-2
9.849482625E0,2.449942702E-2,-7.049205048E-3,-5.173869484E-2,5.767846877E-2
9.859488625E0,1.706040626E-2,7.331933913E-3,-8.661907210E-2,8.858712304E-2
9.869486625E0,2.277830823E-2,-6.487320171E-3,-8.616637884E-2,8.936208083E-2
9.879474625E0,2.167894032E-2,3.531371361E-3,-7.074988414E-2,7.408099043E-2
9.889487625E0,8.376955832E-3,-6.309012071E-3,-7.374013195E-2,7.448210578E-2
9.899485625E0,8.559611657E-3,-6.433442419E-3,-7.374175820E-2,7.451511951E-2
9.909480625E0,-6.086085832E-3,5.052933076E-3,-8.586611518E-2,8.622970665E-2
9.919485625E0,-6.608377521E-3,-2.609445609E-3,-8.810841274E-2,8.839441304E-2
9.929483625E0,-6.526772318E-3,-2.472004635E-3,-8.810559877E-2,8.838159366E-2
9.939479625E0,1.514025716E-2,5.068592650E-3,-8.870674736E-2,9.013215323E-2
9.949484625E0,7.140200628E-3,1.072105120E-3,-8.601176566E-2,8.631428449E-2
9.959482625E0,7.169287100E-3,1.104967728E-3,-8.601105304E-2,8.631639981E-2
9.969478625E0,1.962105389E-2,6.891102817E-4,-8.331595257E-2,8.559794730E-2
9.979483625E0,-1.218971445E-3,-4.188591834E-3,-8.585910765E-2,8.596985844E-2
9.989481625E0,-1.088385818E-3,-4.207849387E-3,-8.585898888E-2,8.596892783E-2
9.999474625E0,7.974525212E-3,-4.070335609E-3,-8.316176880E-2,8.364233662E-2
1.000948062E1,-1.422810294E-2,1.696368766E-3,-7.477629967E-2,7.613679513E-2
1.001947863E1,-1.424999916E-2,1.624358935E-3,-7.477770209E-2,7.614069706E-2
1.002947563E1,4.692283781E-3,1.518148346E-2,-7.462614957E-2,7.629912953E-2
1.003947963E1,1.077219406E-2,-7.250006656E-3,-7.117817441E-2,7.235285256E-2
1.004947762E1,1.079821531E-2,-7.268732021E-3,-7.117842566E-2,7.235885708E-2
1.005947863E1,2.235334813E-2,5.787177767E-3,-7.491993105E-2,7.839744681E-2
1.006947862E1,1.966492399E-2,9.096367781E-3,-8.151084401E-2,8.434139454E-2
1.007947663E1,1.974808922E-2,9.286049972E-3,-8.150706159E-2,8.437783382E-2
1.008947662E1,2.010004592E-2,-5.760362230E-3,-1.135355690E-1,1.154448745E-1
1.009947763E1,1.191934782E-4,1.700617705E-3,-8.374820799E-2,8.376555765E-2
1.010947562E1,1.974438845E-4,1.681715610E-3,-8.374827194E-2,8.376538787E-2
1.011947563E1,3.001440662E-2,1.349571976E-2,-7.746960486E-2,8.416970200E-2
1.012947463E1,5.691793920E-3,-7.616974827E-3,-7.866198004E-2,7.923460057E-2
1.013947263E1,5.719416874E-3,-7.531153233E-3,-7.866030810E-2,7.922672573E-2
1.014947462E1,1.491502744E-2,1.298723812E-2,-8.839670788E-2,9.058203112E-2
1.015947362E1,-1.419969626E-3,-3.976601287E-4,-8.345492444E-2,8.346795110E-2
1.016947163E1,-1.392463730E-3,-3.642352471E-4,-8.345422095E-2,8.346663175E-2
1.017946962E1,1.187633567E-2,-1.134422877E-2,-8.195124898E-2,8.358077581E-2
1.018945262E1,-1.112517060E-2,-3.536804589E-3,-8.119840169E-2,8.203327889E-2
1.019945063E1,-1.109777662E-2,-3.555734665E-3,-8.119865751E-2,8.203063986E-2
1.020947063E1,1.273533505E-2,-1.168888102E-2,-7.580340879E-2,7.774944040E-2
1.021945363E1,-9.073512820E-3,1.846572630E-2,-8.374277190E-2,8.623319273E-2
1.022945162E1,-8.939953049E-3,1.849845929E-2,-8.374170296E-2,8.622522004E-2
1.023946962E1,1.575219226E-2,-1.004947435E-3,-8.538790430E-2,8.683453046E-2
1.024945262E1,-4.154715385E-3,-1.177603651E-2,-8.867211174E-2,8.954708313E-2
1.025945063E1,-4.228874810E-3,-1.174375462E-2,-8.867176456E-2,8.954597135E-2
1.026946762E1,-5.549475888E-3,3.593766406E-3,-7.490180011E-2,7.519302826E-2
1.027945162E1,1.094933957E-2,3.677020421E-3,-8.537938929E-2,8.615711597E-2
1.028944962E1,1.092628533E-2,3.866686909E-3,-8.537594492E-2,8.615907932E-2
1.029946663E1,-1.221578959E-4,6.318280250E-3,-8.926999868E-2,8.949339781E-2
1.030944962E1,2.225505552E-2,2.702458136E-2,-9.257559414E-2,9.897401742E-2
1.031944763E1,2.223017059E-2,2.705732805E-2,-9.257506424E-2,9.897687611E-2
1.032946363E1,1.570139800E-2,1.699969343E-2,-9.048677685E-2,9.339903779E-2
1.033944762E1,2.634789634E-2,-1.393859581E-3,-8.734259195E-2,9.124079600E-2
1.034944563E1,2.647970766E-2,-1.414185936E-3,-8.734254627E-2,9.127921575E-2
1.035946363E1,-1.747001742E-2,9.155138009E-3,-9.542516160E-2,9.744218556E-2
1.036944863E1,1.099892099E-2,2.870544630E-4,-6.848047467E-2,6.935873467E-2
1.037944662E1,1.107888738E-2,4.766345134E-4,-6.847671053E-2,6.936878845E-2
1.038946163E1,6.406104402E-3,2.993926533E-2,-7.357776208E-2,7.969369395E-2
1.039943662E1,2.071245496E-2,9.933259087E-3,-7.882258661E-2,8.210161744E-2
1.040943463E1,2.079357137E-2,9.965255462E-3,-7.882173694E-2,8.212517970E-2
1.041946062E1,-1.333882366E-3,-2.127987214E-3,-7.597375005E-2,7.601525024E-2
1.042945962E1,1.690887658E-2,-5.089310866E-3,-7.791868016E-2,7.989450488E-2
1.043945763E1,-1.672258566E-3,-1.105271195E-2,-8.569610738E-2,8.642211355E-2
1.044942862E1,-9.812565475E-3,6.304571271E-3,-6.534052901E-2,6.637332891E-2
1.045945863E1,1.918714709E-4,1.452542814E-2,-9.542550878E-2,9.652488074E-2
1.046945662E1,8.340217730E-3,6.402954100E-3,-9.467806103E-2,9.526012961E-2
1.047945762E1,1.595272663E-2,8.203204448E-3,-6.669000699E-2,6.906040170E-2
1.048945762E1,1.608165431E-2,8.236049926E-3,-6.668898373E-2,6.909321728E-2
1.049945563E1,-3.748456380E-3,9.851507703E-3,-8.809754971E-2,8.872587782E-2
1.050945063E1,-1.585029072E-2,6.600987988E-3,-7.522572215E-2,7.716031384E-2
1.051945563E1,-1.592887639E-2,6.686826142E-3,-7.522439739E-2,7.718259331E-2
1.052945363E1,-9.026392912E-4,1.198311902E-3,-7.581928763E-2,7.583412877E-2
1.053942463E1,5.606942484E-3,1.326211322E-3,-7.087922637E-2,7.111301830E-2
1.054945462E1,5.634325040E-3,1.358899770E-3,-7.087853658E-2,7.111511215E-2
1.055945263E1,9.612433099E-3,8.361671987E-3,-6.444371230E-2,6.569100763E-2
1.056945263E1,1.198733912E-2,-9.901219314E-3,-6.594213897E-2,6.775024823E-2
1.057945062E1,1.196262322E-2,-9.763460284E-3,-6.593967675E-2,6.772348544E-2
1.058944863E1,1.507156608E-2,1.441771832E-2,-8.136318354E-2,8.399398991E-2
1.059945062E1,1.775805903E-2,1.047319235E-2,-6.356135833E-2,6.682127424E-2
1.060945062E1,1.767942883E-2,1.055905392E-2,-6.356002443E-2,6.681266743E-2
1.061944863E1,2.627780741E-2,1.925465045E-2,-6.551606425E-2,7.316843172E-2
1.062942063E1,2.118635580E-2,9.818731318E-3,-8.527917350E-2,8.841836115E-2
1.063944962E1,1.098177106E-2,1.187163963E-2,-8.962190056E-2,9.106931527E-2
1.064944762E1,2.427991204E-2,6.168697168E-3,-8.827678515E-2,9.176250732E-2
1.065944563E1,1.626004578E-2,3.166624447E-3,-6.926757842E-2,7.122088191E-2
1.066944863E1,2.652627525E-2,8.876561009E-3,-9.307186743E-2,9.718440781E-2
1.067944662E1,9.152208120E-3,1.188652362E-3,-8.783103545E-2,8.831458881E-2
1.068941862E1,-4.094135604E-3,5.817393140E-3,-7.106548303E-2,7.142063349E-2
1.069944663E1,-1.290122124E-2,2.048156446E-3,-7.091219919E-2,7.210531498E-2
1.070944462E1,1.432271134E-2,1.593603466E-2,-8.424106431E-2,8.692326603E-2
1.071944162E1,2.436224357E-2,6.444708587E-3,-8.394130315E-2,8.764243011E-2
1.072941362E1,-1.381911761E-2,9.493228700E-3,-6.358413963E-2,6.575737384E-2
1.073941163E1,-1.608418848E-2,1.498260846E-2,-8.633922801E-2,8.909344515E-2
1.074941563E1,-3.282130939E-4,9.961945846E-3,-8.139812979E-2,8.200611942E-2
1.075944363E1,-4.833788113E-3,-4.870358407E-4,-9.846172119E-2,9.858150562E-2
1.076944163E1,2.483282509E-3,-3.638517305E-3,-8.423875283E-2,8.435385575E-2
1.077941462E1,-1.899551259E-2,-2.780897792E-4,-7.420727423E-2,7.660043330E-2
1.078944163E1,1.304209460E-2,1.518015527E-2,-6.702781617E-2,6.995185120E-2
1.079943962E1,-2.527590985E-2,-1.262626049E-2,-1.047419232E-1,1.084857804E-1
1.080941363E1,5.780191800E-4,-8.637139084E-4,-9.216704736E-2,9.217290668E-2
1.081944062E1,-7.623780780E-3,-8.604779685E-3,-6.207324651E-2,6.312885394E-2
1.082943863E1,-1.243811834E-2,9.521629951E-3,-6.506914054E-2,6.692803057E-2
1.083941263E1,5.194911923E-3,3.523306315E-3,-7.180585931E-2,7.207969359E-2
1.084944062E1,-1.287464667E-3,-1.762765927E-3,-8.871893515E-2,8.874578504E-2
1.085943863E1,7.330678246E-3,6.549763181E-3,-7.704468587E-2,7.766931095E-2
1.086941162E1,-2.082479859E-3,6.530920186E-3,-6.596801747E-2,6.632321592E-2
1.087943763E1,6.498649723E-3,1.414221853E-2,-7.585093112E-2,7.743125044E-2
1.088943562E1,6.150622762E-3,1.475857216E-2,-8.917896484E-2,9.060095685E-2
1.089942763E1,8.650549565E-3,1.350538251E-2,-8.005226520E-2,8.164308010E-2
1.090943663E1,6.895669384E-3,9.628060696E-3,-6.658306233E-2,6.762805630E-2
1.091943463E1,6.872229130E-3,9.713226763E-3,-6.658157312E-2,6.763638212E-2
1.092940863E1,4.857819941E-3,7.904409444E-3,-8.514023817E-2,8.564425409E-2
1.093943463E1,-6.495329258E-3,-2.002094277E-4,-8.917898311E-2,8.941543723E-2
1.094943262E1,-6.363390035E-3,-1.153625598E-4,-8.917705536E-2,8.940387712E-2
1.095943363E1,1.142603269E-2,1.743100667E-2,-7.031574208E-2,7.333960595E-2
1.096943362E1,4.620785010E-3,-3.545519739E-4,-6.612098155E-2,6.628319215E-2
1.097943163E1,4.695877477E-3,-3.209304125E-4,-6.612014558E-2,6.628746422E-2
1.098941562E1,-2.127179367E-2,-1.101310049E-2,-5.578982857E-2,6.071476394E-2
1.099943263E1,-2.239494787E-2,-1.003112115E-2,-6.970184839E-2,7.389522820E-2
1.100943062E1,-2.236903511E-2,-9.945420610E-3,-6.970019929E-2,7.387423708E-2
1.101942962E1,-1.755128116E-2,-4.912752362E-3,-7.643164186E-2,7.857466820E-2
1.102943062E1,-2.427017505E-2,6.179408879E-3,-9.708653829E-2,1.002647615E-1
1.103942862E1,-2.434879726E-2,6.265590785E-3,-9.708519526E-2,1.002878691E-1
1.104942962E1,-1.539083662E-2,8.124329278E-4,-5.981120089E-2,6.176501963E-2
1.105942862E1,-2.896727479E-3,1.211106369E-2,-9.080073578E-2,9.165065473E-2
1.106942663E1,-2.817000637E-3,1.219628229E-2,-9.079892680E-2,9.165767782E-2
1.107942762E1,-3.042430500E-3,2.948734009E-3,-8.076940793E-2,8.088045915E-2
1.108942763E1,1.589751041E-2,3.235469130E-3,-9.454257921E-2,9.592444101E-2
1.109942562E1,1.597721756E-2,3.320713997E-3,-9.454077023E-2,9.593881310E-2
1.110942563E1,7.205988085E-4,1.331298171E-2,-7.942835815E-2,8.053954820E-2
1.111942563E1,1.269026352E-2,4.520449873E-3,-8.377228207E-2,8.484852679E-2
1.112942362E1,1.261459804E-2,4.606056194E-3,-8.377092990E-2,8.484051234E-2
1.113942363E1,1.673331151E-4,2.328285899E-2,-8.423169049E-2,8.739048693E-2
1.114941562E1,-6.102839475E-3,9.162354523E-3,-8.318702146E-2,8.391229904E-2
1.115941363E1,-6.283159840E-3,9.195981724E-3,-8.318694837E-2,8.392921158E-2
1.116942262E1,-3.994279978E-4,1.353568468E-3,-7.884416649E-2,7.885679603E-2
1.117941463E1,1.601792309E-2,4.009303011E-3,-8.528295591E-2,8.686674243E-2
1.118941262E1,1.610048760E-2,4.041538357E-3,-8.528212451E-2,8.688268236E-2
1.119942163E1,-1.485644679E-2,1.242933466E-3,-8.887240629E-2,9.011416922E-2
1.120940062E1,9.409759697E-3,7.727460936E-3,-7.450455033E-2,7.549294834E-2
1.121939863E1,9.487992473E-3,7.813074680E-3,-7.450275048E-2,7.550977398E-2
1.122941963E1,-7.973680106E-3,-2.130844369E-4,-9.396197811E-2,9.429993801E-2
1.123941263E1,6.775596754E-4,3.255453017E-3,-5.878430191E-2,5.887827454E-2
1.124941062E1,7.586459670E-4,3.288056384E-3,-5.878346137E-2,5.888023598E-2
1.125941762E1,-1.127241994E-2,-4.547156345E-3,-6.566386633E-2,6.677939370E-2
1.126941863E1,4.172386652E-3,4.571923929E-3,-8.721643827E-2,8.743579589E-2
1.127941662E1,-1.914116422E-2,7.090101296E-3,-6.326433348E-2,6.647578201E-2
1.128941663E1,-2.008799745E-2,5.602963065E-3,-7.194666300E-2,7.490823155E-2
1.129941662E1,-3.024068930E-2,7.634059089E-3,-8.092634171E-2,8.672860503E-2
1.130941463E1,-1.434428894E-2,-7.498049655E-3,-7.777658368E-2,7.944291248E-2
1.131941562E1,-1.076467034E-2,1.530562801E-3,-8.780798463E-2,8.847860145E-2
1.132941563E1,-1.089234749E-2,1.615764413E-3,-8.780683346E-2,8.849459832E-2
1.133941362E1,-3.683335585E-3,5.572116147E-3,-6.176248527E-2,6.212262089E-2
1.134939163E1,4.950213371E-3,3.574422343E-3,-8.048565351E-2,8.071692220E-2
1.135941462E1,4.923934020E-3,3.555002621E-3,-8.048610119E-2,8.071490355E-2
1.136941263E1,1.569295037E-3,-5.162239464E-3,-8.901371704E-2,8.917708913E-2
1.137941262E1,-1.896447752E-3,4.306415513E-3,-8.452517504E-2,8.465605084E-2
1.138940463E1,-2.133335503E-3,4.288240037E-3,-8.452627139E-2,8.466186083E-2
1.139940263E1,2.372866635E-3,-3.492154760E-3,-6.940533517E-2,6.953363352E-2
1.140941062E1,6.361187479E-4,1.116144732E-2,-8.047739432E-2,8.125019108E-2
1.141941163E1,5.564988640E-4,1.135230409E-2,-8.047414181E-2,8.127282448E-2
1.142940962E1,-1.380104492E-2,1.012648330E-2,-7.448885878E-2,7.643039046E-2
1.143940963E1,1.947769432E-2,4.883056044E-3,-7.897669729E-2,8.148953017E-2
1.144940962E1,1.945005709E-2,4.916482246E-3,-7.897617652E-2,8.148443395E-2
1.145940763E1,2.390150354E-2,1.812532927E-2,-7.823733514E-2,8.379075153E-2
1.146940862E1,-9.226629356E-3,1.087503953E-3,-9.949232035E-2,9.992514780E-2
1.147940762E1,-9.200507035E-3,1.120393043E-3,-9.949163513E-2,9.992242027E-2
1.148940563E1,1.088624903E-2,7.602836442E-3,-8.811805151E-2,8.911287529E-2
1.149938262E1,2.799670552E-3,1.610114198E-2,-6.282630393E-2,6.491709632E-2
1.150940663E1,2.719636787E-3,1.608239206E-2,-6.282689779E-2,6.490962059E-2
1.151940462E1,-3.361696469E-3,8.714112339E-3,-7.959520480E-2,8.014133380E-2
1.152940463E1,-2.101413018E-2,7.043264756E-3,-6.791847046E-2,7.144312335E-2
1.153940562E1,-2.103856514E-2,7.180915864E-3,-6.791603107E-2,7.146169640E-2
1.154940363E1,-2.182059141E-2,4.836087599E-3,-6.731727162E-2,7.093053652E-2
1.155938262E1,-1.664767321E-4,9.597585654E-4,-8.408229413E-2,8.408793634E-2
1.156940363E1,-1.938454058E-4,1.098092467E-3,-8.407985475E-2,8.408724848E-2
1.157940163E1,-1.076069149E-2,1.573652326E-3,-6.731354402E-2,6.818637746E-2
1.158937642E1,3.800388606E-4,8.491253480E-3,-7.554885391E-2,7.602549008E-2
1.159939742E1,-1.790954874E-2,9.123535064E-3,-9.755257051E-2,9.960168092E-2
1.160939542E1,-1.896409865E-2,2.700094582E-3,-9.455759925E-2,9.647832463E-2
1.161937542E1,-1.487318901E-2,-2.947120600E-3,-9.335595075E-2,9.457923034E-2
1.162939542E1,-8.189209389E-3,1.318896135E-2,-8.393175574E-2,8.535544197E-2
1.163939342E1,-1.239136345E-2,-8.485419826E-4,-8.378100721E-2,8.469665331E-2
1.164937442E1,2.848661596E-2,1.052617361E-2,-1.045924263E-1,1.089121814E-1
1.165939442E1,-1.442599807E-2,-1.448689362E-2,-8.587226389E-2,8.827244877E-2
1.166939242E1,1.795019032E-2,1.636581529E-2,-8.333405153E-2,8.680215082E-2
1.167937342E1,7.830772214E-3,7.023276158E-4,-8.902201278E-2,8.936852364E-2
1.168939242E1,3.741132514E-3,-1.199514378E-2,-8.871683381E-2,8.960221062E-2
1.169939042E1,2.237018856E-2,8.205963032E-3,-9.530723057E-2,9.824068080E-2
1.170936642E1,-5.882995944E-4,1.220140660E-2,-6.327712426E-2,6.444544106E-2
1.171938742E1,-5.194784586E-3,-6.420362700E-4,-6.566875423E-2,6.587703151E-2
1.172938542E1,-1.483949215E-2,8.982613170E-3,-9.545523821E-2,9.701855683E-2
1.173936342E1,-4.099713121E-5,9.026759077E-3,-9.380792225E-2,9.424123480E-2
1.174936942E1,-7.433043064E-4,-2.863994206E-3,-8.946251825E-2,8.951143579E-2
1.175936742E1,2.327443220E-3,-1.522434229E-3,-6.610867042E-2,6.616714519E-2
1.176935942E1,6.710578742E-3,2.042199738E-3,-9.110754102E-2,9.137716606E-2
1.177938642E1,-4.102948397E-3,2.695692325E-3,-8.407355072E-2,8.421676124E-2
1.178938442E1,-9.514659545E-3,1.102595180E-2,-8.018170794E-2,8.149359881E-2
1.179936842E1,1.950255555E-3,1.125983586E-2,-6.581298860E-2,6.679773101E-2
1.180938342E1,-1.566925088E-2,2.296814145E-3,-8.422373280E-2,8.569969629E-2
1.181938142E1,3.746483801E-3,1.929580309E-3,-8.946148586E-2,8.956068821E-2
1.182938442E1,1.529644748E-2,-5.913678052E-3,-9.125424217E-2,9.271617771E-2
1.183938142E1,8.078118573E-3,6.798183623E-3,-1.038288987E-1,1.043643210E-1
1.184937942E1,-1.406305271E-2,2.381183557E-2,-9.590081432E-2,9.980851242E-2
1.185938442E1,-8.574508352E-3,-5.982856780E-3,-9.035663975E-2,9.095954659E-2
1.186936742E1,-1.722268820E-3,-3.396820305E-3,-9.858563648E-2,9.865917250E-2
1.187936542E1,1.773620392E-3,5.630510646E-3,-7.568498896E-2,7.591485977E-2
1.188938242E1,-4.341229573E-3,2.192161119E-2,-7.299597783E-2,7.634013420E-2
1.189938242E1,-1.112485997E-2,2.432025440E-3,-7.957926200E-2,8.038990109E-2
1.190938042E1,-9.275512993E-3,5.972115948E-3,-8.227444469E-2,8.301075568E-2
1.191938042E1,-3.686140707E-3,1.776708110E-2,-8.407383394E-2,8.600968758E-2
1.192937242E1,-8.040646143E-3,1.185305644E-2,-6.955770995E-2,7.101705395E-2
1.193937042E1,1.063631254E-2,-6.802896227E-3,-7.913240681E-2,8.013331610E-2
1.194937942E1,8.407288834E-3,6.362325659E-3,-8.616835227E-2,8.681098218E-2
1.195934942E1,1.615029657E-3,9.389357254E-3,-6.461275165E-2,6.531137747E-2
1.196934742E1,1.587580291E-3,9.423176887E-3,-6.461222175E-2,6.531505089E-2
1.197937842E1,7.399262546E-3,2.208268050E-4,-7.928310966E-2,7.962794314E-2
1.198937642E1,7.768160183E-3,1.205594226E-2,-8.991383194E-2,9.105046530E-2
1.199937442E1,-5.843840941E-3,8.112707937E-3,-8.841736500E-2,8.898087964E-2
1.200937542E1,-1.096108768E-2,3.722652686E-3,-1.039822511E-1,1.046246248E-1
1.201937542E1,2.271670005E-2,1.544022046E-2,-1.018928034E-1,1.055300538E-1
1.202937342E1,2.274460451E-2,1.552560009E-2,-1.018911497E-1,1.055469928E-1
1.203937442E1,-1.155292069E-2,-1.363084983E-2,-7.883806346E-2,8.083755497E-2
1.204935542E1,-6.534742575E-3,9.910899197E-3,-8.333046097E-2,8.417181541E-2
1.205935342E1,-6.459093652E-3,9.944654305E-3,-8.332959303E-2,8.416909833E-2
1.206937342E1,-2.060207506E-2,2.558697887E-4,-8.871464110E-2,9.107578444E-2
1.207936242E1,-1.218496131E-2,-9.026216611E-3,-7.733223184E-2,7.880494876E-2
1.208936042E1,-1.210792310E-2,-9.045150398E-3,-7.733232320E-2,7.879533463E-2
1.209937142E1,-1.064779790E-4,1.466431722E-3,-7.598442122E-2,7.599864491E-2
1.210936742E1,-1.430702893E-2,8.413154893E-3,-1.066711663E-1,1.079546663E-1
1.211936542E1,-1.427927749E-2,8.393807119E-3,-1.066714312E-1,1.079497476E-1
1.212937042E1,-2.533334447E-3,-7.932947740E-3,-9.379591718E-2,9.416487415E-2
1.213935442E1,7.264000002E-3,3.804303856E-3,-5.801996119E-2,5.859653847E-2
1.214935242E1,7.185905412E-3,3.890588260E-3,-5.801863643E-2,5.859126289E-2
1.215936842E1,-8.992717889E-3,7.900222176E-3,-8.346534893E-2,8.431931545E-2
1.216936942E1,2.135840099E-2,-3.696625724E-3,-6.325527943E-2,6.686611032E-2
1.217936742E1,-1.764021480E-2,1.775045223E-3,-8.480770519E-2,8.664106892E-2
1.218936742E1,-7.096765637E-3,6.899775569E-3,-9.304147105E-2,9.356648075E-2
1.219936742E1,1.056765458E-2,1.385047102E-2,-9.544178962E-2,9.701879239E-2
1.220936542E1,1.038640117E-2,1.388449337E-2,-9.544177135E-2,9.700406282E-2
1.221936642E1,5.597688580E-3,1.376723157E-2,-9.873903452E-2,9.985122794E-2
1.222933642E1,-7.069447035E-3,-1.515794042E-2,-9.618654217E-2,9.762986804E-2
1.223933442E1,-7.150499494E-3,-1.507092083E-2,-9.618520827E-2,9.762098436E-2
1.224936442E1,1.048123227E-2,-2.398011947E-3,-9.200286850E-2,9.262901545E-2
1.225936442E1,1.045429054E-2,-2.259724154E-3,-9.200041085E-2,9.262005258E-2
1.226936242E1,-1.041302313E-2,-1.842994265E-3,-8.062115360E-2,8.131173400E-2
1.227936242E1,-3.763669419E-3,5.161114560E-3,-6.295729070E-2,6.328050856E-2
1.228936342E1,-3.684523301E-3,5.298673163E-3,-6.295450414E-2,6.328444706E-2
1.229936142E1,-9.067930556E-3,1.492092490E-2,-6.206285857E-2,6.447216281E-2
1.230936142E1,2.936594469E-3,1.383626754E-2,-8.930854462E-2,9.042169004E-2
1.231936242E1,2.963173890E-3,1.381680956E-2,-8.930881871E-2,9.041985249E-2
1.232936042E1,-4.625858212E-3,-3.930423558E-3,-8.181977799E-2,8.204463946E-2
1.233934942E1,-4.983993033E-3,9.002026040E-3,-7.119324013E-2,7.193298339E-2
1.234933142E1,-1.410925714E-2,7.829509124E-3,-5.712376119E-2,5.935904684E-2
1.235932942E1,-1.419007205E-2,7.863612553E-3,-5.712340944E-2,5.938247598E-2
1.236934542E1,-2.183980042E-2,-5.293130942E-4,-7.882851605E-2,8.179970659E-2
1.237935842E1,-1.399360332E-2,-3.856307530E-3,-8.076837553E-2,8.206230881E-2
1.238935642E1,-1.838072012E-2,-2.578168144E-3,-6.863797948E-2,7.110323516E-2
1.239934342E1,-6.039767205E-3,-5.865300337E-3,-9.602791817E-2,9.639627381E-2
1.240935742E1,1.872212928E-3,-5.465517523E-3,-8.599476306E-2,8.618860909E-2
1.241935542E1,-5.362026374E-3,6.337029028E-3,-7.895946627E-2,7.939462563E-2
1.242934242E1,-6.438578718E-3,8.749023186E-3,-6.968079384E-2,7.052243426E-2
1.243935542E1,-1.677465672E-3,4.869428719E-3,-8.524778126E-2,8.540321678E-2
1.244935342E1,1.049074313E-2,1.557033243E-2,-7.237959450E-2,7.477497338E-2
1.245934142E1,1.256085419E-3,-4.267951227E-3,-9.438014539E-2,9.448494590E-2
1.246935442E1,7.105580429E-3,2.318013072E-2,-4.588647708E-2,5.189775055E-2
1.247935242E1,-2.481633126E-3,1.051325491E-2,-5.844526390E-2,5.943514032E-2
1.248934042E1,1.253715669E-2,2.280627950E-3,-7.176856960E-2,7.289107726E-2
1.249935342E1,5.686935706E-2,7.955914621E-3,-1.238654429E-1,1.365286355E-1
1.250935142E1,8.739479662E-2,2.606880371E-2,-1.407972436E-1,1.677536790E-1
1.251933842E1,7.158025728E-2,3.690653798E-2,-1.159530455E-1,1.411769618E-1
1.252935042E1,3.776302031E-2,1.803137639E-2,-7.987542347E-2,9.017349673E-2
1.253934842E1,3.475761086E-2,3.510883437E-2,-1.024765200E-1,1.137636098E-1
1.254933742E1,5.054630139E-2,5.027604582E-2,-1.198500960E-1,1.394512635E-1
1.255935042E1,3.374213222E-2,1.386083041E-2,-1.533658336E-1,1.576443245E-1
1.256934842E1,6.893772237E-2,-6.912764268E-2,-3.257126429E-1,3.400290668E-1
1.257932842E1,-1.388085256E-2,-4.854330569E-2,1.513390608E-1,1.595388414E-1
1.258934942E1,-5.191899191E-1,-2.175475770E-2,3.588668673E-1,6.315194930E-1
1.259934742E1,-1.396180429E-1,-8.712380558E-2,5.107629667E-2,1.723152445E-1
1.260934642E1,2.086716681E-1,6.665644489E-2,-3.315846361E-1,3.974107668E-1
1.261934742E1,7.936952854E-3,2.398950870E-2,-7.773273870E-2,8.173659165E-2
1.262934542E1,1.240914949E-2,2.473667779E-2,-7.766681135E-2,8.245012920E-2
1.263934542E1,-2.099731486E-1,6.637384165E-2,1.319392600E-1,2.567141958E-1
1.264934542E1,-4.947334645E-2,3.705162750E-1,-5.021280910E-2,3.771620981E-1
1.265934342E1,-2.832144034E-1,3.686109598E-1,7.316564758E-2,4.705716205E-1
1.266934442E1,-4.553176396E-1,1.722095459E-1,2.141570142E-1,5.318209354E-1
1.267934442E1,-5.803965260E-1,7.114343829E-2,2.037180531E-1,6.192112413E-1
1.268934242E1,-6.445144616E-1,7.519971575E-2,2.039131674E-1,6.801723813E-1
1.269934242E1,-6.389891352E-1,-4.716957546E-2,1.876513481E-1,6.676414548E-1
1.270934242E1,3.127792597E-1,-8.163859836E-1,-1.133909510E-1,8.815749811E-1
1.271934042E1,1.828804952E-1,-2.768249590E-2,-5.531257700E-1,5.832321266E-1
1.272934142E1,1.841076065E-1,-6.580105662E-2,-9.306762455E-1,9.509908852E-1
1.273934042E1,1.780944578E-1,-1.812187348E-1,-7.262648953E-1,7.694274260E-1
1.274933842E1,1.948974370E-1,-1.816993028E-1,-7.269409065E-1,7.742368689E-1
1.275934042E1,6.873254449E-2,-1.511666616E-2,-1.252010749E-1,1.436244597E-1
1.276931442E1,5.038647940E-3,2.499078956E-1,4.792356022E-1,5.405054178E-1
1.277931242E1,-2.022871664E-1,3.176927115E-1,2.064478258E-1,4.294990820E-1
1.278933842E1,-8.496981559E-1,6.237320685E-1,-1.657649458E-1,1.067008279E0
1.279932342E1,-1.369797390E0,8.364827907E-1,-1.256341343E-1,1.609916856E0
1.280932142E1,-1.394133940E0,8.382139320E-1,-1.246205743E-1,1.631484700E0
1.281933642E1,-1.486412505E0,4.235550526E-1,1.050092962E-1,1.549144270E0
1.282931142E1,-1.197419645E0,-4.161342781E-2,2.465805010E-1,1.223252806E0
1.283930942E1,-1.252664943E0,-5.000150991E-2,2.492765974E-1,1.278205160E0
1.284933542E1,-5.091771470E-1,-1.457386890E-1,-4.304663518E-1,6.824971887E-1
1.285930842E1,-2.905854766E-1,-2.259156552E-1,-1.157642572E0,1.214748586E0
1.286930642E1,-3.028126623E-1,-2.307268356E-1,-1.156880680E0,1.217909393E0
1.287933342E1,2.816049939E-1,-7.919036186E-1,-7.282593074E-1,1.112103562E0
1.288930942E1,-1.259468233E-1,-5.325645844E-1,3.404527061E-1,6.445119734E-1
1.289930742E1,-9.291095937E-2,-5.279793075E-1,3.385257562E-1,6.340301910E-1
1.290933242E1,-8.565135974E-1,-3.479769032E-1,4.894979042E-1,1.046093526E0
1.291930842E1,-1.300339631E0,-3.713199611E-2,-6.579945778E-2,1.302532729E0
1.292930642E1,-1.326444818E0,-3.921799715E-2,-6.427256704E-2,1.328580020E0
1.293933142E1,-1.215391355E0,2.088474865E-1,-3.510183324E-1,1.282188476E0
1.294933042E1,-6.104455500E-1,-3.612528602E-1,-5.773078805E-1,9.145664478E-1
1.295932842E1,-6.025783406E-1,-3.548101787E-1,-5.777278568E-1,9.070614069E-1
1.296932942E1,-7.508007623E-1,-4.864283352E-1,-1.867464732E-1,9.138865112E-1
1.297930542E1,-6.150143816E-1,-9.895729098E-2,1.398060766E-1,6.384206873E-1
1.298930342E1,-6.057368238E-1,-9.786678527E-2,1.392730389E-1,6.291994808E-1
1.299932842E1,-4.868949065E-1,-4.462819281E-2,5.211549307E-2,4.917055523E-1
1.300930442E1,-4.163070633E-1,-5.948981873E-2,7.903548008E-2,4.278986055E-1
1.301930242E1,-4.046232301E-1,-5.401349014E-2,7.845381003E-2,4.156830713E-1
1.302932642E1,-4.146885175E-1,-1.651080040E-4,-7.170784992E-2,4.208427373E-1
1.303930342E1,-3.636060356E-1,7.180430157E-2,-2.120460962E-1,4.269997116E-1
1.304930142E1,-3.493262944E-1,7.791339026E-2,-2.126844843E-1,4.163340560E-1
1.305932542E1,-2.948487729E-1,-1.592478585E-1,1.215439990E-3,3.351076791E-1
1.306930342E1,-6.679946413E-2,-1.011372792E-1,-4.034340800E-2,1.277439165E-1
1.307930142E1,-6.383376549E-2,-1.039518547E-1,-4.054443345E-2,1.285480019E-1
1.308932342E1,-3.527180815E-1,-1.776686891E-1,1.776784398E-2,3.953377093E-1
1.309929942E1,-2.648512410E-1,-7.963193262E-2,-8.402024969E-2,2.890446797E-1
1.310929742E1,-2.817597076E-1,-7.546495093E-2,-8.304853382E-2,3.032829547E-1
1.311932142E1,-2.076383737E-1,2.199133787E-1,-2.670982894E-1,4.035059907E-1
1.312932142E1,-1.966117858E-1,2.616411561E-1,2.332951337E-2,3.281105836E-1
1.313931942E1,-3.281618223E-1,8.615451082E-2,-1.863947083E-1,3.871120879E-1
1.314932042E1,-3.213137095E-1,-3.796459165E-2,-1.547603946E-1,3.586566462E-1
1.315932142E1,-3.564697647E-1,5.582700864E-2,-4.550497275E-1,5.807388419E-1
1.316931942E1,-1.147923184E-1,-1.263512405E-1,-2.764569956E-1,3.249159626E-1
1.317931942E1,2.058536390E-1,-2.782107583E-1,-1.320157763E-1,3.704120839E-1
1.318931842E1,1.893921190E-1,-4.422530595E-1,1.078096283E-1,4.930314993E-1
1.319931642E1,-1.252169012E-2,-3.377010064E-1,2.678641650E-1,4.312191709E-1
1.320931842E1,-3.923002231E-1,-1.651553736E-1,9.702832195E-2,4.365664414E-1
1.321931842E1,-2.608687755E-1,3.881287464E-1,-1.027743442E-1,4.788099911E-1
1.322931642E1,-1.608098165E-2,6.338884628E-1,-1.368850269E-1,6.486992306E-1
1.323931642E1,3.689738892E-1,1.430864102E-1,7.016032035E-2,4.019178053E-1
1.324931642E1,2.871013583E-1,-6.937931506E-2,-9.870102305E-3,2.955301985E-1
1.325931442E1,-5.058763161E-3,2.296032337E-2,-2.946865812E-2,3.769839977E-2
1.326931442E1,3.646610331E-2,1.879316855E-1,-1.652570055E-1,2.528991359E-1
1.327931542E1,-1.294825889E-1,2.302891350E-1,-4.127581689E-1,4.900695180E-1
1.328931342E1,-9.250096905E-2,2.352592317E-1,2.150909789E-1,3.319148454E-1
1.329931242E1,-1.320915800E-1,3.780947781E-1,2.949093464E-1,4.973684443E-1
1.330930342E1,2.959183109E-2,7.595862038E-2,3.830170648E-2,9.006891360E-2
1.331930142E1,5.165392666E-1,-1.816192873E-1,-5.858176624E-1,8.018607816E-1
1.332930742E1,-4.025879605E-1,-3.122464322E-1,-8.103707336E-1,9.572228717E-1
1.333931242E1,-7.054466148E-1,-6.327152921E-1,-4.479289883E-1,1.048152635E0
1.334931042E1,-1.424125278E-1,-1.431789790E-1,1.656540680E-1,2.611949814E-1
1.335930442E1,6.974161859E-2,2.844698737E-1,3.101878102E-1,4.266186588E-1
1.336931042E1,5.715076801E-2,1.610999092E-1,4.384875988E-1,4.706280542E-1
1.337930842E1,3.787635808E-2,8.969242346E-2,1.159091457E-1,1.513746326E-1
1.338929342E1,-3.682794958E-1,1.254044118E-1,-3.125703314E-1,4.990553732E-1
1.339930942E1,-5.431782309E-1,-2.173116555E-2,-4.730524274E-1,7.206201726E-1
1.340930742E1,-2.895833186E-1,-1.851045750E-1,-7.820380501E-2,3.524741654E-1
1.341929542E1,-9.169849352E-2,-3.937338142E-1,-1.288148369E-1,4.242972924E-1
1.342930842E1,6.342670335E-2,-3.130654078E-1,-1.471052290E-1,3.516715010E-1
1.343930642E1,1.096553019E-1,3.124393674E-2,4.568615512E-2,1.228319730E-1
1.344930142E1,-3.600410613E-1,5.307469774E-1,-1.474583094E-1,6.580774064E-1
1.345928642E1,-4.113195711E-1,6.715058669E-1,-6.239202483E-2,7.899346072E-1
1.346928442E1,-3.395787301E-1,4.256685287E-1,1.628287482E-1,5.683490226E-1
1.347929842E1,-3.661291457E-1,5.080719913E-3,2.551049375E-1,4.462677382E-1
1.348930442E1,-2.261940923E-1,-1.402154548E-1,5.735096206E-2,2.722375323E-1
1.349930242E1,-6.698507668E-2,-1.466432532E-1,-2.897944762E-1,3.316203894E-1
1.350929842E1,-2.749798610E-1,-2.974345761E-1,-6.737563871E-1,7.861481541E-1
1.351930342E1,-3.893887848E-1,-2.682036324E-1,-6.212692943E-1,7.807255281E-1
1.352930142E1,-8.752257655E-2,-1.433412392E-1,7.658347304E-2,1.845858624E-1
1.353929242E1,3.832771745E-2,-2.047330384E-2,8.590522757E-2,9.626981987E-2
1.354930242E1,1.578364685E-1,1.795825742E-1,3.493739492E-1,4.233490382E-1
1.355930042E1,-2.506086296E-1,4.294517137E-1,-2.192751551E-1,5.434289773E-1
1.356928942E1,-1.385234990E-1,3.274692196E-1,-1.978184135E-1,4.068869306E-1
1.357930142E1,-3.403177085E-1,4.799570938E-2,-3.999247365E-1,5.273134985E-1
1.358929942E1,-8.087405481E-2,-4.744460473E-3,-1.706525968E-1,1.889058799E-1
1.359929342E1,4.219852214E-1,-2.147072737E-1,2.892835392E-1,5.548474623E-1
1.360929842E1,4.335127877E-1,-1.248348382E-1,4.467899507E-1,6.349317554E-1
1.361929642E1,-7.406767196E-2,1.690433151E-1,-2.241433459E-1,2.903478981E-1
1.362929242E1,-3.968909543E-2,4.031830974E-1,-2.025925007E-1,4.529630842E-1
1.363929742E1,-1.047120658E-1,2.220773784E-1,-8.139744457E-2,2.586668179E-1
1.364929542E1,-1.006004774E-1,2.193567969E-1,-8.154060999E-2,2.547287409E-1
1.365927742E1,-1.428277349E-1,-2.177740652E-1,-2.116800605E-1,3.356095251E-1
1.366929642E1,1.237670361E-1,-1.450320804E-1,-2.674449516E-2,1.925301317E-1
1.367929442E1,1.447228632E-1,-1.448724331E-1,-2.722041055E-2,2.065760871E-1
1.368928842E1,3.270013692E-1,-2.471641445E-1,3.839217478E-1,5.616190152E-1
1.369929542E1,-3.613274122E-2,-7.847314239E-2,-2.398896601E-1,2.549718770E-1
1.370929342E1,-4.879906656E-2,-7.681765859E-2,-2.395586711E-1,2.562628699E-1
1.371926342E1,1.371196190E-1,1.519202272E-3,-1.153476669E-1,1.791903517E-1
1.372929342E1,8.822128228E-2,3.170076371E-1,-2.420410152E-1,4.084858500E-1
1.373929142E1,2.448962106E-1,4.781353024E-1,-1.805266437E-1,5.667251454E-1
1.374929142E1,3.569640371E-1,3.581760918E-1,1.371540628E-1,5.239510220E-1
1.375929242E1,1.813084164E-1,3.018118931E-1,6.860721307E-2,3.587061616E-1
1.376929042E1,1.791442888E-1,2.967531745E-1,6.860437626E-2,3.533577270E-1
1.377928942E1,-4.112799197E-1,-2.153480920E-1,-2.056568802E-1,5.077605001E-1
1.378929142E1,-9.584979736E-2,-1.556583076E-1,-1.508920594E-2,1.834240347E-1
1.379928942E1,-9.709617706E-2,-1.514325431E-1,-1.501830731E-2,1.805132468E-1
1.380928842E1,3.559990638E-1,3.104921213E-1,-8.139777347E-2,4.793394292E-1
1.381928842E1,2.235807341E-1,2.168016367E-1,-9.314280147E-2,3.250644179E-1
1.382928642E1,2.288338178E-1,2.136110121E-1,-9.328348182E-2,3.266441315E-1
1.383928742E1,7.045268570E-2,1.342035669E-1,1.825242912E-3,1.515833428E-1
1.384928742E1,2.720346276E-2,5.796370001E-2,-9.805848258E-2,1.171122748E-1
1.385928542E1,3.328252965E-2,5.885379698E-2,-9.816937868E-2,1.192003486E-1
1.386927542E1,2.653174102E-1,-1.546357392E-1,2.778576047E-1,4.141381274E-1
1.387926642E1,1.427560882E-1,2.999910108E-2,-3.750202893E-2,1.506175586E-1
1.388926442E1,1.258026346E-1,2.945088121E-2,-3.714173081E-2,1.344364737E-1
1.389928342E1,8.388171636E-2,-2.633284616E-1,-2.768514999E-1,3.911838110E-1
1.390926742E1,1.776743171E-1,-2.086883144E-1,7.544760571E-2,2.842733134E-1
1.391926542E1,1.852693751E-1,-2.091274402E-1,7.527345919E-2,2.893529355E-1
1.392928242E1,2.883013303E-2,-2.417198203E-1,-3.099012236E-1,3.940792008E-1
1.393928042E1,3.664762510E-1,4.333735875E-1,1.753458827E-1,5.940233055E-1
1.394927842E1,3.654804702E-1,4.295020363E-1,1.753242297E-1,5.905815429E-1
1.395928042E1,2.823992468E-1,1.069182842E-1,-5.963709090E-2,3.077944715E-1
1.396926542E1,3.317640726E-1,-2.768262838E-1,1.366352343E-2,4.323041558E-1
1.397926342E1,3.251176522E-1,-2.768932161E-1,1.380180095E-2,4.272725484E-1
1.398926542E1,2.478096954E-1,-1.207983865E-1,-1.697741806E-1,3.237671504E-1
1.399926442E1,8.811316361E-2,1.337618189E-1,-2.664768400E-1,3.109116596E-1
1.400926242E1,1.073124322E-1,1.397461883E-1,-2.668105698E-1,3.197386987E-1
1.401925142E1,2.770941776E-1,2.174184631E-1,-3.239343539E-2,3.536966300E-1
1.402926342E1,1.921661477E-1,3.003124477E-1,-2.938381547E-1,4.620132636E-1
1.403926142E1,1.956546697E-1,2.952621528E-1,-2.939581688E-1,4.602954417E-1
1.404927642E1,3.728250481E-1,2.127216323E-1,5.234463540E-2,4.324222129E-1
1.405926142E1,-2.230383866E-2,1.287124284E-1,2.329569317E-2,1.326915211E-1
1.406925942E1,-2.407156843E-2,1.259417984E-1,2.330175509E-2,1.303217126E-1
1.407925842E1,1.600036659E-1,-2.308971723E-1,-7.759801520E-2,2.914380367E-1
1.408926042E1,1.459395317E-1,-3.282747101E-1,-2.614659772E-1,4.443276825E-1
1.409925842E1,1.447305102E-1,-3.270001998E-1,-2.614290118E-1,4.429685987E-1
1.410925642E1,3.785387645E-1,-1.486755170E-1,-1.814342047E-1,4.453250231E-1
1.411924942E1,2.976412386E-1,6.201662902E-2,-3.035616176E-1,4.296347575E-1
1.412924742E1,2.143268575E-1,5.522897644E-1,-9.114959529E-2,5.993898851E-1
1.413925442E1,1.822249127E-1,4.228569316E-1,8.485140399E-2,4.682025888E-1
1.414927242E1,4.449821104E-2,8.909515779E-2,1.610845237E-1,1.893839004E-1
1.415927042E1,2.293576507E-2,2.694964883E-1,-1.098608041E-1,2.919311611E-1
1.416925242E1,2.792323034E-1,4.532975819E-2,-1.689439125E-1,3.294958449E-1
1.417927142E1,2.804310009E-1,4.973445204E-2,-1.689124837E-1,3.311291125E-1
1.418926942E1,3.491337017E-1,2.424948139E-1,-2.670155467E-2,4.259237602E-1
1.419925242E1,2.597804442E-1,-2.424583145E-2,-2.184004939E-2,2.618219381E-1
1.420926942E1,-7.146261404E-3,-2.434930433E-2,-2.577906184E-1,2.590366009E-1
1.421926742E1,-3.611688750E-2,1.129179021E-1,-1.875405981E-1,2.218701380E-1
1.422925642E1,-1.676112407E-1,6.796575068E-2,-1.340842106E-1,2.251476111E-1
1.423926842E1,2.434828792E-2,-1.721714111E-1,2.484990090E-1,3.032945621E-1
1.424926642E1,1.856153110E-1,-3.117973294E-1,2.022966133E-1,4.154449880E-1
1.425923742E1,3.402151630E-1,-2.874780652E-1,-8.290390659E-2,4.530596570E-1
1.426926742E1,2.851128847E-1,-9.449361792E-2,-3.286468488E-1,4.452270792E-1
1.427926542E1,2.578540424E-1,2.731125024E-2,-3.855279779E-1,4.646142845E-1
1.428923742E1,3.219031088E-1,-4.619394926E-2,-2.017154549E-1,3.826808293E-1
1.429926642E1,4.607847497E-1,5.753977688E-3,2.432267757E-1,5.210709724E-1
1.430926442E1,4.398425449E-1,-1.514071077E-1,1.884309281E-1,5.018882258E-1
1.431924642E1,4.714908919E-1,7.498302616E-2,1.756090805E-1,5.086891630E-1
1.432926442E1,1.959039438E-1,-1.308195845E-2,-1.093006409E-1,2.247134240E-1
1.433926242E1,-5.032197113E-1,2.833399107E-3,-4.856177284E-1,6.993301682E-1
1.434923342E1,-1.126155097E-1,-6.159374742E-2,-3.566974772E-1,3.790898745E-1
1.435926242E1,4.679236153E-1,-1.621670626E-1,-8.544724440E-2,5.025454184E-1
1.436926042E1,6.309876591E-1,-1.393522230E-1,1.464152849E-1,6.625721875E-1
1.437923242E1,4.472053223E-1,-8.851284821E-2,-2.741767414E-2,4.567043392E-1
1.438926142E1,4.976071152E-1,-1.361702139E-1,7.940661382E-2,5.219775652E-1
1.439925942E1,3.073412395E-1,-2.131930276E-1,-2.035802416E-1,4.258577453E-1
1.440923142E1,1.974636886E-1,-1.798456075E-1,2.059061589E-2,2.678811757E-1
1.441926042E1,1.125597875E-1,4.062964748E-2,-1.900861469E-1,2.246179362E-1
1.442925842E1,9.428487232E-2,-1.315609269E-1,-1.971464223E-1,2.550776871E-1
1.443924142E1,8.802825107E-2,-1.257647374E-1,-1.940754646E-1,2.474490415E-1
1.444925842E1,-5.279840675E-2,-1.322545392E-3,-1.440453993E-1,1.534226122E-1
1.445925642E1,1.863826484E-1,8.664633474E-2,1.079684624E-1,2.321707730E-1
1.446923642E1,2.840002510E-1,5.320923760E-2,-2.476668223E-1,3.805604031E-1
1.447925642E1,1.082519519E-1,-1.027885420E-1,-2.305406201E-1,2.746505907E-1
1.448925442E1,4.691961156E-2,3.918295953E-1,-2.966356637E-1,4.936847159E-1
1.449924842E1,3.624292103E-1,2.596131955E-1,2.952806628E-1,5.347378925E-1
1.450925542E1,6.278565482E-1,-1.513491015E-2,3.617335196E-2,6.290798217E-1
1.451925342E1,3.987317583E-1,7.377119985E-2,-2.391156714E-1,4.707499436E-1
1.452924142E1,1.627606829E-1,1.777518475E-1,-1.343105161E-1,2.759095394E-1
1.453925442E1,-2.098314633E-1,-8.884793934E-2,-8.895965771E-2,2.446160665E-1
1.454925242E1,-4.488605046E-2,3.382008748E-2,4.839806634E-3,5.640903803E-2
1.455924142E1,7.077789139E-2,-6.385688940E-2,-1.316202670E-1,1.625149437E-1
1.456925242E1,1.766269528E-1,-1.233752635E-1,-2.120297240E-2,2.164904205E-1
1.457925042E1,2.929084109E-1,-1.238957388E-1,-2.961723678E-2,3.194098809E-1
1.458922442E1,2.885903883E-1,-4.638124289E-2,-6.516437250E-2,2.994695767E-1
1.459925142E1,-4.307350497E-2,8.952719394E-2,-2.397180626E-1,2.594902596E-1
1.460924942E1,-3.345367948E-2,1.556330367E-1,-2.390341941E-1,2.871900708E-1
1.461922242E1,3.460641693E-2,1.548209315E-1,-7.943252429E-2,1.774166025E-1
1.462924942E1,3.880137755E-1,8.421981334E-2,1.637295414E-2,3.973861353E-1
1.463924742E1,4.260354049E-1,-2.264675730E-2,1.454274024E-2,4.268846837E-1
1.464922142E1,4.291814262E-1,-2.251292458E-2,-5.727900933E-2,4.335716934E-1
1.465924842E1,4.831355854E-1,3.113608531E-2,6.380012115E-2,4.883235660E-1
1.466924642E1,4.824959365E-1,3.248094262E-2,6.382761677E-2,4.877820262E-1
1.467922042E1,4.434297020E-1,-5.119678586E-2,-7.409197445E-2,4.524827424E-1
1.468924742E1,3.264313388E-1,-2.718807271E-1,-1.585228768E-1,4.534380346E-1
1.469924542E1,3.308213187E-1,-2.706472935E-1,-1.585795766E-1,4.558949270E-1
1.470924542E1,3.890760684E-1,-1.717017335E-1,-1.449971615E-1,4.493170920E-1
1.471924642E1,5.153758899E-1,2.933398258E-1,1.636014394E-1,6.151633867E-1
1.472924442E1,5.065621625E-1,2.946098045E-1,1.637523707E-1,6.084529565E-1
1.473924342E1,8.557136983E-2,4.360659379E-1,-1.659860071E-1,4.743704418E-1
1.474924342E1,-4.148065033E-2,1.562669479E-1,-1.431500901E-1,2.159443254E-1
1.475924142E1,-3.023165352E-2,1.566137427E-1,-1.433230854E-1,2.144372264E-1
1.476924242E1,2.940881415E-1,-1.679045334E-1,-4.844581251E-2,3.420917480E-1
1.477924242E1,6.869876859E-1,-2.780768570E-1,2.458180789E-1,7.808363125E-1
1.478924042E1,6.740882166E-1,-2.749041396E-1,2.460417167E-1,7.684424090E-1
1.479924042E1,2.526126897E-1,-1.866300770E-1,2.115355201E-2,3.147879118E-1
1.480924142E1,-3.747486724E-1,4.946389955E-2,-5.391534097E-1,6.584600550E-1
1.481923942E1,-3.673040340E-1,4.841623839E-2,-5.393127098E-1,6.543046572E-1
1.482923942E1,-4.348657238E-1,3.672786671E-2,-2.481197075E-1,5.020164571E-1
1.483924042E1,1.560736975E-1,-2.557016641E-1,2.828296567E-1,4.119890226E-1
1.484923842E1,1.586325852E-1,-2.555113189E-1,2.827940069E-1,4.128229421E-1
1.485923842E1,3.244542490E-1,-1.972309511E-1,3.040978803E-2,3.809138524E-1
1.486923942E1,-2.235659699E-1,-6.470212269E-2,-1.680577669E-1,2.870740681E-1
1.487923742E1,-2.170301532E-1,-6.500245944E-2,-1.681719521E-1,2.821510457E-1
1.488923642E1,-1.092490118E-1,-2.361455965E-1,1.066374169E-1,2.811967781E-1
1.489922742E1,-1.430535562E-1,-1.031638236E-1,-1.397412821E-1,2.250215998E-1
1.490922542E1,-1.540308265E-1,-1.025153217E-1,-1.395348480E-1,2.317430916E-1
1.491923442E1,-5.162643013E-1,-1.995259102E-1,-3.393933368E-1,6.492513032E-1
1.492922642E1,1.051450704E-1,-1.482853433E-1,6.289127198E-2,1.923521275E-1
1.493922442E1,1.201912262E-1,-1.472087795E-1,6.269124696E-2,2.001163363E-1
1.494923342E1,1.585332191E-1,-1.475917973E-2,1.692620741E-1,2.323795703E-1
1.495922942E1,-4.440831284E-1,1.343998963E-1,-1.853749905E-1,4.996369123E-1
1.496922742E1,-4.475949296E-1,1.340759423E-1,-1.853304968E-1,5.026579078E-1
1.497920842E1,-4.948846151E-1,-6.126876100E-2,-2.542984465E-2,4.993108454E-1
1.498922342E1,-1.577735744E-1,-2.317739806E-1,-1.099631578E-1,3.011703420E-1
1.499922142E1,-1.616149027E-1,-2.335277981E-1,-1.099374940E-1,3.045338435E-1
1.500923142E1,-1.805078527E-2,-2.403636865E-1,-2.987656947E-1,3.838768982E-1
1.501922242E1,6.606060904E-2,-8.588097076E-2,3.895822703E-4,1.083498822E-1
1.502922042E1,8.262087394E-2,-8.766448117E-2,1.924964670E-4,1.204628869E-1
1.503922942E1,7.561444322E-2,-2.402006040E-2,4.561692044E-2,9.151727026E-2
1.504922042E1,3.949622868E-2,1.575183937E-2,-1.730401017E-2,4.590752979E-2
1.505921842E1,3.502226360E-2,1.513311373E-2,-1.727310330E-2,4.187994958E-2
1.506922842E1,4.748762105E-1,7.476604878E-2,-1.668858936E-1,5.088696089E-1
1.507922042E1,4.835031560E-1,-2.700327328E-2,-1.145881044E-1,4.976292920E-1
1.508921842E1,4.861342568E-1,-2.559464477E-2,-1.145977432E-1,5.001142312E-1
1.509922742E1,4.385852839E-1,-3.982790742E-2,6.999076936E-2,4.459170564E-1
1.510921942E1,-4.269175305E-1,-2.009430011E-1,-1.873647614E-1,5.076831899E-1
1.511921742E1,-4.389992302E-1,-2.042633608E-1,-1.872473785E-1,5.191391196E-1
1.512922142E1,-4.337165632E-1,-2.162037224E-1,-3.935502116E-1,6.242882955E-1
1.513920342E1,1.616172234E-1,-2.767595433E-2,-1.333100187E-2,1.645107928E-1
1.514920142E1,1.829241117E-1,-2.745552115E-2,-1.354672644E-2,1.854684612E-1
1.515922342E1,6.894039747E-1,-2.918642033E-2,2.450141599E-1,7.322305825E-1
1.516921642E1,6.815263865E-1,-2.935018805E-2,2.450777666E-1,7.248467153E-1
1.517921442E1,1.252862140E0,-2.311675147E-1,4.460377612E-2,1.274790751E0
1.518922242E1,2.790370064E-1,1.865016941E-1,-2.479135931E-1,4.172597303E-1
1.519922142E1,2.548623328E-1,1.892958226E-1,-2.475044525E-1,4.025495884E-1
1.520921942E1,4.656935535E-3,1.835962492E-1,-2.195389924E-1,2.862282987E-1
1.521922042E1,-2.656240053E-1,-1.872242638E-1,-1.927073806E-1,3.778163200E-1
1.522922142E1,-2.698158194E-1,-1.870064367E-1,-1.926231442E-1,3.806253531E-1
1.523921942E1,-1.559893879E-1,5.074221966E-2,-2.148590638E-1,2.703181076E-1
1.524920842E1,5.823846433E-2,3.335998790E-1,-1.497936782E-1,3.702954821E-1
1.525922042E1,1.724414976E-1,4.310743892E-1,-1.431666359E-1,4.858578853E-1
1.526921842E1,1.931898490E-1,4.310543625E-1,-1.434863689E-1,4.936785586E-1
1.527921842E1,-1.352937803E-1,-8.473361372E-4,-7.259302701E-2,1.535411102E-1
1.528921842E1,-1.461812501E-1,4.084406214E-2,1.575070876E-1,2.187365491E-1
1.529921642E1,-2.398582130E-1,1.119282791E-1,1.032081619E-1,2.840982694E-1
1.530919442E1,-6.948037139E-2,1.565747856E-1,-2.685797683E-2,1.733912812E-1
1.531921642E1,6.136869357E-2,1.994150871E-1,-2.341993691E-1,3.136587923E-1
1.532921442E1,9.428026764E-2,-2.118859373E-1,-3.095693941E-1,3.868043809E-1
1.533921542E1,-1.815478782E-1,-1.180907876E-1,7.926440999E-3,2.167207758E-1
1.534921542E1,-1.227025962E-1,-1.946615201E-1,1.700043781E-1,2.860953042E-1
1.535921342E1,-3.710549863E-1,-2.542305640E-2,4.487128624E-2,3.746218987E-1
1.536921442E1,9.160948793E-2,1.898607025E-2,-3.011653372E-1,3.153622195E-1
1.537920842E1,8.517556814E-2,1.940935499E-2,-3.011311858E-1,3.135467932E-1
1.538920642E1,-4.635303921E-2,-6.740694758E-3,-1.393440186E-1,1.470061112E-1
1.539921242E1,-1.290094670E-1,1.761424151E-2,1.641112892E-2,1.312365392E-1
1.540921342E1,-1.283156948E-1,1.764165604E-2,1.640963971E-2,1.305581167E-1
1.541921142E1,-1.071499893E-1,3.009346052E-2,-1.034681438E-1,1.519618154E-1
1.542921042E1,-1.230450238E-1,-7.734004792E-3,-7.815952149E-2,1.459753524E-1
1.543919142E1,-1.197340014E-1,-7.560510937E-3,-7.816790859E-2,1.431908319E-1
1.544918942E1,-1.672562599E-1,1.202417201E-2,-3.556372719E-2,1.714176650E-1
1.545920942E1,-8.764795365E-2,-1.083037728E-2,-1.435108633E-1,1.685076518E-1
1.546920942E1,-9.050413577E-2,-1.047326316E-2,-1.435027046E-1,1.699815109E-1
1.547920742E1,-8.607391060E-2,1.038498476E-3,-1.176169530E-1,1.457516525E-1
1.548918742E1,-1.227402651E-1,1.541539835E-2,-2.842384519E-2,1.269280196E-1
1.549920842E1,-1.220452047E-1,1.523389712E-2,-2.842612926E-2,1.262344978E-1
1.550920642E1,-7.914718017E-2,1.276440439E-2,-9.099836254E-2,1.212761647E-1
1.551918642E1,-4.675933390E-2,1.924932629E-2,-9.998700393E-2,1.120462977E-1
1.552920642E1,-8.488927385E-2,-1.433562547E-3,-8.352136343E-2,1.190968600E-1
1.553920442E1,-8.916978288E-2,-1.051620236E-3,-5.791971342E-2,1.063346100E-1
1.554918542E1,-5.423240441E-2,-9.507067872E-3,-1.052163882E-1,1.187519531E-1
1.555920542E1,-2.910609420E-2,-1.691300960E-2,-1.140375982E-1,1.189024323E-1
1.556920342E1,-2.182262423E-2,3.819070645E-3,-6.838340176E-2,7.188255605E-2
1.557918342E1,-5.518631826E-2,-4.956258730E-3,-6.673167297E-2,8.673644217E-2
1.558920342E1,-3.026755223E-2,2.358394263E-2,-1.053578634E-1,1.121276346E-1
1.559920142E1,2.626264062E-3,2.060442080E-2,-7.333188209E-2,7.621682459E-2
1.560918242E1,-2.134861375E-2,6.229545898E-3,-7.123590196E-2,7.462656551E-2
1.561920242E1,-3.202464282E-2,-2.267730100E-3,-9.248815999E-2,9.790189011E-2
1.562920042E1,-3.287921110E-2,1.084309155E-2,-1.115001441E-1,1.167514338E-1
1.563918142E1,-1.497058626E-2,-2.632870731E-3,-9.652817488E-2,9.771764941E-2
1.564917442E1,-4.077131912E-2,-9.775009677E-3,-6.493693865E-2,7.729590725E-2
1.565917242E1,-4.048913615E-2,-9.745372745E-3,-6.493575093E-2,7.714268718E-2
1.566918142E1,-2.624167116E-2,3.317193391E-3,-8.439132862E-2,8.843938842E-2
1.567919542E1,-2.637749102E-2,3.453478340E-3,-8.438972063E-2,8.848346452E-2
1.568919342E1,-3.209105668E-2,-4.279126318E-3,-7.195927106E-2,7.890680283E-2
1.569917042E1,-4.237055087E-2,9.841029538E-3,-6.058285063E-2,7.458144028E-2
1.570917442E1,-3.809521525E-2,-8.622569153E-3,-7.868899601E-2,8.784959998E-2
1.571917242E1,-3.986098530E-2,-2.770674586E-3,-8.092849787E-2,9.025517467E-2
1.572919642E1,-4.187918833E-2,1.563202627E-2,-9.050834759E-2,1.009454687E-1
1.573919642E1,-4.279455624E-2,-1.203270758E-2,-1.018758373E-1,1.111523564E-1
1.574919442E1,-4.832686735E-2,5.414630187E-3,-1.081599770E-1,1.185891435E-1
1.575919542E1,-3.484557947E-2,-2.494912594E-4,-9.932521789E-2,1.052605128E-1
1.576919542E1,-5.293083705E-2,1.409831873E-2,-7.881738807E-2,9.598237736E-2
1.577919342E1,-3.019516324E-2,1.129077585E-2,-9.483290261E-2,1.001624127E-1
1.578919342E1,-5.088205034E-2,-6.333147824E-3,-7.821005423E-2,9.351954015E-2
1.579919442E1,-5.413068113E-2,-1.029266756E-2,-1.129287468E-1,1.256541743E-1
1.580919242E1,-6.551877772E-2,-1.051138512E-3,-5.903223299E-2,8.819648325E-2
