"Time (s)","Acceleration x (m/s^2)","Acceleration y (m/s^2)","Acceleration z (m/s^2)"
1.600523400E-2,5.554717779E-1,-7.182824612E-1,1.102563572E1
2.800066400E-2,3.830839694E-1,-8.044763207E-1,1.095380688E1
3.999835800E-2,3.016786277E-1,-6.967339516E-1,1.088916206E1
5.199717700E-2,4.285751879E-1,-6.320885420E-1,9.873989105E0
6.399506300E-2,5.411061049E-1,-4.812492430E-1,8.880365372E0
7.599352800E-2,5.219519138E-1,-2.705530524E-1,8.528407097E0
8.799199300E-2,5.339232683E-1,-1.628106833E-1,8.779806137E0
9.999035800E-2,5.099805593E-1,-2.777358890E-1,9.644139290E0
1.119889540E-1,4.285751879E-1,-5.818088055E-1,1.031453609E1
1.239868520E-1,4.597007632E-1,-6.799740195E-1,1.086043072E1
1.359861850E-1,4.740664065E-1,-6.967339516E-1,1.068564892E1
1.479857170E-1,5.315290093E-1,-6.536370516E-1,1.026186180E1
1.599851500E-1,5.075862408E-1,-6.153286099E-1,9.739910126E0
1.719846460E-1,5.027977228E-1,-4.860377908E-1,9.320911407E0
1.819846780E-1,4.860377908E-1,-3.112557232E-1,9.100638390E0
1.939834110E-1,5.339232683E-1,-2.322446555E-1,9.174860954E0
2.059815420E-1,5.411061049E-1,-3.304099143E-1,9.684841156E0
2.179800070E-1,4.381522834E-1,-5.913859010E-1,1.016130257E1
2.299785390E-1,4.549122155E-1,-6.584255695E-1,1.037199879E1
2.419766710E-1,4.956148863E-1,-6.584255695E-1,1.029059315E1
2.539751360E-1,4.597007632E-1,-5.363175869E-1,1.005834866E1
2.659738010E-1,4.644893110E-1,-4.142095447E-1,9.730332375E0
2.779722660E-1,5.435003638E-1,-4.142095447E-1,9.419076920E0
2.899707310E-1,5.339232683E-1,-4.453351200E-1,9.421471596E0
3.019683620E-1,4.932205975E-1,-4.836435020E-1,9.605830193E0
3.139667600E-1,4.932205975E-1,-5.075862408E-1,9.878777504E0
3.259652250E-1,5.339232683E-1,-5.722316504E-1,1.009905148E1
3.379636900E-1,5.554717779E-1,-5.985686779E-1,1.017327404E1
3.499620550E-1,5.004034638E-1,-5.626545548E-1,1.005116558E1
3.619613860E-1,4.357580245E-1,-5.051919818E-1,9.835680962E0
3.739598510E-1,4.860377908E-1,-4.549122155E-1,9.648927689E0
3.859581500E-1,5.315290093E-1,-3.998439014E-1,9.560338974E0
3.979566820E-1,4.692778587E-1,-4.142095447E-1,9.653716087E0
4.099549800E-1,4.716721475E-1,-4.453351200E-1,9.804554939E0
4.219533780E-1,4.597007632E-1,-5.075862408E-1,9.936240196E0
4.339518430E-1,4.525179267E-1,-5.123748183E-1,1.002482891E1
4.459505410E-1,4.525179267E-1,-4.812492430E-1,1.000806904E1
4.579490060E-1,5.195576549E-1,-5.243461728E-1,9.821314812E0
4.699479370E-1,5.435003638E-1,-5.051919818E-1,9.754275322E0
4.819472360E-1,4.908263385E-1,-4.932205975E-1,9.687235832E0
4.939457010E-1,5.315290093E-1,-4.908263385E-1,9.744698524E0
5.059437660E-1,5.482889414E-1,-5.051919818E-1,9.794978142E0
5.179423620E-1,5.243461728E-1,-5.411061049E-1,9.919480324E0
5.279424590E-1,5.075862408E-1,-5.482889414E-1,9.917086601E0
5.399411220E-1,4.501236677E-1,-5.147690773E-1,9.926663399E0
5.519390860E-1,4.884320498E-1,-5.027977228E-1,9.893143654E0
5.639377490E-1,4.668835998E-1,-4.932205975E-1,9.794978142E0
5.759362810E-1,4.429408312E-1,-4.716721475E-1,9.732727051E0
5.879328460E-1,4.668835998E-1,-4.381522834E-1,9.759063721E0
5.999313110E-1,4.980091453E-1,-4.812492430E-1,9.802161217E0
6.119287760E-1,4.189980924E-1,-4.932205975E-1,9.842864037E0
6.239272080E-1,4.525179267E-1,-4.812492430E-1,9.897932053E0
6.359256730E-1,5.075862408E-1,-4.740664065E-1,9.876383781E0
6.479243380E-1,5.435003638E-1,-4.956148863E-1,9.859623909E0
6.599228030E-1,5.171633363E-1,-5.027977228E-1,9.785401344E0
6.719221340E-1,4.932205975E-1,-5.147690773E-1,9.775823593E0
6.839209990E-1,5.099805593E-1,-4.908263385E-1,9.790189743E0
6.959194640E-1,5.387118459E-1,-5.027977228E-1,9.804554939E0
7.079182290E-1,4.956148863E-1,-5.195576549E-1,9.835680962E0
7.199166270E-1,4.333637357E-1,-5.051919818E-1,9.864412308E0
7.319151590E-1,5.051919818E-1,-4.956148863E-1,9.871595383E0
7.439136240E-1,4.644893110E-1,-5.051919818E-1,9.850046158E0
7.559120890E-1,4.716721475E-1,-4.764606953E-1,9.828497887E0
7.679104200E-1,4.860377908E-1,-4.644893110E-1,9.811738014E0
7.799088850E-1,4.884320498E-1,-4.860377908E-1,9.804554939E0
7.919073500E-1,4.620950520E-1,-4.932205975E-1,9.814132690E0
8.039063140E-1,4.812492430E-1,-4.716721475E-1,9.833286285E0
8.159047790E-1,5.147690773E-1,-4.788549542E-1,9.842864037E0
8.279030110E-1,5.147690773E-1,-4.908263385E-1,9.838075638E0
8.399010090E-1,5.075862408E-1,-5.243461728E-1,9.830892563E0
8.518985410E-1,5.051919818E-1,-5.099805593E-1,9.840469360E0
8.638965390E-1,4.956148863E-1,-5.075862408E-1,9.809344292E0
8.758949370E-1,5.243461728E-1,-4.836435020E-1,9.826104164E0
8.878937020E-1,4.716721475E-1,-4.860377908E-1,9.830892563E0
8.998927000E-1,4.644893110E-1,-5.027977228E-1,9.835680962E0
9.118921640E-1,5.099805593E-1,-5.147690773E-1,9.840469360E0
9.238907940E-1,4.644893110E-1,-5.147690773E-1,9.840469360E0
9.358890240E-1,4.908263385E-1,-4.860377908E-1,9.842864037E0
9.478876870E-1,5.075862408E-1,-4.884320498E-1,9.842864037E0
9.598863500E-1,4.525179267E-1,-5.027977228E-1,9.840469360E0
9.698869810E-1,4.477293789E-1,-5.123748183E-1,9.818921089E0
9.818855130E-1,4.740664065E-1,-4.812492430E-1,9.845257759E0
9.938844110E-1,5.267404318E-1,-4.573064744E-1,9.828497887E0
1.005882509E0,5.123748183E-1,-4.860377908E-1,9.833286285E0
1.017880907E0,5.027977228E-1,-4.956148863E-1,9.835680962E0
1.029877538E0,5.219519138E-1,-5.004034638E-1,9.835680962E0
1.041876003E0,5.147690773E-1,-5.075862408E-1,9.830892563E0
1.053874535E0,5.243461728E-1,-4.812492430E-1,9.842864037E0
1.065873367E0,5.051919818E-1,-4.908263385E-1,9.828497887E0
1.077871832E0,4.932205975E-1,-5.099805593E-1,9.842864037E0
1.089870296E0,4.908263385E-1,-5.411061049E-1,9.854835510E0
1.101868561E0,4.908263385E-1,-5.075862408E-1,9.838075638E0
1.113867026E0,4.980091453E-1,-4.692778587E-1,9.835680962E0
1.125865424E0,4.740664065E-1,-4.644893110E-1,9.833286285E0
1.137863889E0,4.620950520E-1,-4.956148863E-1,9.814132690E0
1.149862421E0,4.453351200E-1,-5.075862408E-1,9.814132690E0
1.161860686E0,4.740664065E-1,-4.668835998E-1,9.835680962E0
1.173859282E0,5.075862408E-1,-4.357580245E-1,9.850046158E0
1.185858715E0,4.884320498E-1,-4.836435020E-1,9.811738014E0
1.197857779E0,4.980091453E-1,-5.051919818E-1,9.823709488E0
1.209856109E0,5.267404318E-1,-4.980091453E-1,9.850046158E0
1.221855772E0,5.435003638E-1,-4.860377908E-1,9.840469360E0
1.233854837E0,5.339232683E-1,-4.908263385E-1,9.816526413E0
1.245853502E0,5.027977228E-1,-5.004034638E-1,9.816526413E0
1.257852168E0,4.884320498E-1,-4.956148863E-1,9.838075638E0
1.269851566E0,5.171633363E-1,-4.956148863E-1,9.840469360E0
1.281849964E0,5.004034638E-1,-5.075862408E-1,9.835680962E0
1.293848429E0,4.812492430E-1,-5.027977228E-1,9.833286285E0
1.305846194E0,5.004034638E-1,-4.956148863E-1,9.852440834E0
1.317844726E0,4.764606953E-1,-4.956148863E-1,9.845257759E0
1.329843124E0,4.716721475E-1,-5.051919818E-1,9.842864037E0
1.341841589E0,4.692778587E-1,-4.812492430E-1,9.835680962E0
1.353840054E0,4.716721475E-1,-4.692778587E-1,9.818921089E0
1.365838919E0,4.788549542E-1,-4.884320498E-1,9.830892563E0
1.377837317E0,4.860377908E-1,-4.788549542E-1,9.821314812E0
1.389834815E0,5.243461728E-1,-4.740664065E-1,9.826104164E0
1.401833347E0,5.363175869E-1,-4.692778587E-1,9.845257759E0
1.413831812E0,5.051919818E-1,-5.027977228E-1,9.826104164E0
1.425830277E0,4.980091453E-1,-5.075862408E-1,9.840469360E0
1.437828675E0,5.099805593E-1,-5.051919818E-1,9.826104164E0
1.449828039E0,5.435003638E-1,-4.884320498E-1,9.845257759E0
1.461826504E0,4.884320498E-1,-4.884320498E-1,9.845257759E0
1.473825036E0,4.788549542E-1,-4.956148863E-1,9.862017632E0
1.485823434E0,5.051919818E-1,-4.884320498E-1,9.838075638E0
1.497821966E0,4.692778587E-1,-4.860377908E-1,9.835680962E0
1.509819898E0,4.740664065E-1,-4.740664065E-1,9.857229233E0
1.521818363E0,4.740664065E-1,-4.716721475E-1,9.850046158E0
1.533816328E0,4.908263385E-1,-4.836435020E-1,9.830892563E0
1.545814525E0,4.740664065E-1,-5.051919818E-1,9.830892563E0
1.557813188E0,5.171633363E-1,-4.836435020E-1,9.835680962E0
1.569811585E0,5.315290093E-1,-4.477293789E-1,9.845257759E0
1.581810248E0,5.123748183E-1,-5.099805593E-1,9.830892563E0
1.593809278E0,4.956148863E-1,-5.171633363E-1,9.850046158E0
1.605808209E0,5.075862408E-1,-5.099805593E-1,9.840469360E0
1.617806674E0,4.980091453E-1,-4.836435020E-1,9.854835510E0
1.629805739E0,4.812492430E-1,-4.620950520E-1,9.862017632E0
1.641804037E0,4.716721475E-1,-5.267404318E-1,9.833286285E0
1.653802569E0,4.549122155E-1,-5.099805593E-1,9.845257759E0
1.665800601E0,4.453351200E-1,-4.908263385E-1,9.842864037E0
1.677799933E0,5.099805593E-1,-4.453351200E-1,9.871595383E0
1.689798998E0,4.860377908E-1,-4.932205975E-1,9.830892563E0
1.701797396E0,4.405465722E-1,-4.956148863E-1,9.826104164E0
1.713795861E0,5.075862408E-1,-4.860377908E-1,9.830892563E0
1.725794826E0,5.219519138E-1,-5.004034638E-1,9.809344292E0
1.737792424E0,4.980091453E-1,-4.884320498E-1,9.840469360E0
1.749789889E0,5.123748183E-1,-5.075862408E-1,9.809344292E0
1.761788521E0,5.506832004E-1,-5.219519138E-1,9.840469360E0
1.773786986E0,4.836435020E-1,-5.051919818E-1,9.859623909E0
1.785785018E0,4.740664065E-1,-4.980091453E-1,9.842864037E0
1.797783416E0,5.051919818E-1,-4.764606953E-1,9.835680962E0
1.809781281E0,4.812492430E-1,-5.075862408E-1,9.833286285E0
1.821780180E0,4.501236677E-1,-5.099805593E-1,9.835680962E0
1.833778645E0,4.597007632E-1,-4.932205975E-1,9.833286285E0
1.845777476E0,5.004034638E-1,-4.644893110E-1,9.840469360E0
1.857775941E0,4.692778587E-1,-4.908263385E-1,9.859623909E0
1.869775672E0,4.597007632E-1,-5.075862408E-1,9.823709488E0
1.881773337E0,4.620950520E-1,-4.980091453E-1,9.811738014E0
1.893771802E0,5.147690773E-1,-4.692778587E-1,9.845257759E0
1.905770267E0,5.123748183E-1,-4.836435020E-1,9.826104164E0
1.917768732E0,4.860377908E-1,-5.004034638E-1,9.840469360E0
1.929766297E0,4.740664065E-1,-5.458946824E-1,9.814132690E0
1.941766428E0,5.458946824E-1,-4.932205975E-1,9.857229233E0
1.953765024E0,5.099805593E-1,-4.812492430E-1,9.811738014E0
1.965763888E0,4.573064744E-1,-4.956148863E-1,9.818921089E0
1.977762852E0,4.549122155E-1,-5.123748183E-1,9.818921089E0
1.989762482E0,5.075862408E-1,-5.147690773E-1,9.840469360E0
2.001759845E0,4.740664065E-1,-4.740664065E-1,9.830892563E0
2.013758310E0,3.591412306E-1,-5.315290093E-1,9.787795067E0
2.025756108E0,4.620950520E-1,-4.573064744E-1,9.945817947E0
2.037755173E0,5.243461728E-1,-5.387118459E-1,9.850046158E0
2.049753005E0,4.956148863E-1,-5.099805593E-1,9.785401344E0
2.061751037E0,4.620950520E-1,-4.549122155E-1,9.830892563E0
2.073749569E0,5.075862408E-1,-5.147690773E-1,9.816526413E0
2.085748501E0,5.530774593E-1,-4.956148863E-1,9.845257759E0
2.097746733E0,5.339232683E-1,-5.363175869E-1,9.792584419E0
2.109745797E0,6.584255695E-1,-4.501236677E-1,9.854835510E0
2.121744695E0,5.770202279E-1,-4.884320498E-1,9.809344292E0
2.133743160E0,4.980091453E-1,-4.668835998E-1,9.804554939E0
2.145741692E0,5.075862408E-1,-5.123748183E-1,9.804554939E0
2.157739223E0,6.081457734E-1,-4.764606953E-1,9.802161217E0
2.169737821E0,6.799740195E-1,-4.094209969E-1,9.835680962E0
2.181736286E0,6.081457734E-1,-4.788549542E-1,9.756669998E0
2.193734951E0,5.027977228E-1,-5.004034638E-1,9.840469360E0
2.205733249E0,4.261809289E-1,-5.985686779E-1,9.871595383E0
2.217731679E0,5.387118459E-1,-6.344828010E-1,9.900326729E0
2.229730476E0,5.722316504E-1,-6.536370516E-1,9.878777504E0
2.241729873E0,5.506832004E-1,-6.081457734E-1,9.871595383E0
2.253729338E0,6.751855016E-1,-5.411061049E-1,9.905115128E0
2.265729234E0,6.320885420E-1,-5.387118459E-1,9.816526413E0
2.275729565E0,5.698373914E-1,-5.387118459E-1,9.768641472E0
2.285730162E0,5.506832004E-1,-5.123748183E-1,9.754275322E0
2.297729760E0,6.392713785E-1,-4.501236677E-1,9.783006668E0
2.309729090E0,6.392713785E-1,-4.381522834E-1,9.797372818E0
2.321728288E0,6.273000240E-1,-5.339232683E-1,9.794978142E0
2.333727286E0,6.392713785E-1,-6.081457734E-1,9.835680962E0
2.345725286E0,6.464542150E-1,-6.296942830E-1,9.878777504E0
2.357723751E0,6.273000240E-1,-6.560313106E-1,9.883566856E0
2.369722216E0,6.608198285E-1,-6.512427330E-1,9.876383781E0
2.381720681E0,6.775797606E-1,-6.584255695E-1,9.852440834E0
2.393719146E0,6.632141471E-1,-6.368771195E-1,9.840469360E0
2.405717377E0,5.913859010E-1,-5.865973234E-1,9.864412308E0
2.417715842E0,5.650488734E-1,-5.506832004E-1,9.835680962E0
2.429714307E0,5.195576549E-1,-5.482889414E-1,9.840469360E0
2.441712772E0,4.884320498E-1,-5.267404318E-1,9.830892563E0
2.453710437E0,5.315290093E-1,-4.980091453E-1,9.816526413E0
2.465709935E0,5.746259689E-1,-4.213923812E-1,9.806949615E0
2.477708667E0,6.488484740E-1,-4.357580245E-1,9.768641472E0
2.489707599E0,6.368771195E-1,-4.692778587E-1,9.761458397E0
2.501706397E0,6.751855016E-1,-5.363175869E-1,9.768641472E0
2.513705595E0,7.182824612E-1,-5.602602959E-1,9.766246796E0
2.525703260E0,7.302538157E-1,-5.746259689E-1,9.830892563E0
2.537701525E0,7.063110471E-1,-6.249057055E-1,9.826104164E0
2.549699490E0,7.063110471E-1,-6.153286099E-1,9.840469360E0
2.561697555E0,7.087053657E-1,-6.608198285E-1,9.833286285E0
2.573696087E0,7.326480746E-1,-5.698373914E-1,9.878777504E0
2.585694352E0,6.799740195E-1,-6.775797606E-1,9.785401344E0
2.597692817E0,6.727912426E-1,-6.033572555E-1,9.828497887E0
2.609691248E0,7.158881426E-1,-5.458946824E-1,9.859623909E0
2.621689713E0,7.015225291E-1,-5.865973234E-1,9.790189743E0
2.633688178E0,6.488484740E-1,-5.818088055E-1,9.759063721E0
2.645685977E0,6.273000240E-1,-5.674431324E-1,9.787795067E0
2.657684573E0,6.703969240E-1,-5.243461728E-1,9.835680962E0
2.669683303E0,6.560313106E-1,-5.602602959E-1,9.823709488E0
2.681681966E0,6.320885420E-1,-6.057515144E-1,9.799766541E0
2.693680629E0,6.751855016E-1,-6.320885420E-1,9.816526413E0
2.705679593E0,7.063110471E-1,-6.344828010E-1,9.847652435E0
2.717678058E0,7.206767201E-1,-6.201171875E-1,9.823709488E0
2.729676223E0,7.302538157E-1,-6.081457734E-1,9.814132690E0
2.741674322E0,7.326480746E-1,-6.273000240E-1,9.809344292E0
2.753672787E0,7.134938836E-1,-6.584255695E-1,9.766246796E0
2.765671751E0,7.134938836E-1,-6.464542150E-1,9.811738014E0
2.777670216E0,6.967339516E-1,-6.584255695E-1,9.828497887E0
2.789668981E0,7.565908432E-1,-6.584255695E-1,9.852440834E0
2.801668212E0,7.494080067E-1,-6.823683381E-1,9.830892563E0
2.813666610E0,7.206767201E-1,-6.656084061E-1,9.821314812E0
2.825664242E0,7.302538157E-1,-6.847625971E-1,9.818921089E0
2.837662707E0,7.374366522E-1,-6.608198285E-1,9.811738014E0
2.849661172E0,7.110996246E-1,-6.895511150E-1,9.809344292E0
2.861658803E0,6.919454336E-1,-6.680026650E-1,9.816526413E0
2.873657268E0,7.110996246E-1,-6.177229285E-1,9.818921089E0
2.885656633E0,6.919454336E-1,-6.201171875E-1,9.838075638E0
2.897655165E0,5.530774593E-1,-6.967339516E-1,9.814132690E0
2.909653630E0,5.315290093E-1,-6.608198285E-1,9.833286285E0
2.921651829E0,6.009629965E-1,-6.225114465E-1,9.835680962E0
2.933650294E0,6.464542150E-1,-6.009629965E-1,9.840469360E0
2.945648759E0,5.794144869E-1,-6.033572555E-1,9.814132690E0
2.957647224E0,5.099805593E-1,-6.584255695E-1,9.816526413E0
2.969645622E0,5.746259689E-1,-6.703969240E-1,9.830892563E0
2.981644753E0,6.632141471E-1,-6.799740195E-1,9.833286285E0
2.993642385E0,6.943396926E-1,-6.751855016E-1,9.845257759E0
3.005639917E0,6.680026650E-1,-7.063110471E-1,9.821314812E0
3.017637882E0,6.823683381E-1,-7.039167881E-1,9.845257759E0
3.029636347E0,7.087053657E-1,-7.015225291E-1,9.826104164E0
3.041634545E0,6.584255695E-1,-7.039167881E-1,9.811738014E0
3.053633943E0,6.392713785E-1,-6.727912426E-1,9.847652435E0
3.065633540E0,6.177229285E-1,-6.871568561E-1,9.814132690E0
3.077632637E0,5.818088055E-1,-6.847625971E-1,9.830892563E0
3.089631300E0,5.698373914E-1,-6.680026650E-1,9.852440834E0
3.101629830E0,5.291347504E-1,-6.775797606E-1,9.828497887E0
3.113628460E0,5.626545548E-1,-6.440598965E-1,9.838075638E0
3.125626858E0,5.650488734E-1,-6.177229285E-1,9.826104164E0
3.137625323E0,5.458946824E-1,-6.081457734E-1,9.814132690E0
3.149623855E0,5.770202279E-1,-5.865973234E-1,9.778218269E0
3.161622820E0,6.129343510E-1,-6.105400920E-1,9.759063721E0
3.173621218E0,6.320885420E-1,-6.129343510E-1,9.778218269E0
3.185619650E0,6.105400920E-1,-6.225114465E-1,9.773429871E0
3.197618115E0,6.057515144E-1,-6.512427330E-1,9.823709488E0
3.209616380E0,5.794144869E-1,-6.991282701E-1,9.823709488E0
3.221614778E0,5.171633363E-1,-6.991282701E-1,9.850046158E0
3.233613243E0,5.147690773E-1,-6.751855016E-1,9.857229233E0
3.245611808E0,5.267404318E-1,-6.871568561E-1,9.845257759E0
3.257610273E0,5.004034638E-1,-6.584255695E-1,9.814132690E0
3.269608938E0,4.668835998E-1,-6.296942830E-1,9.816526413E0
3.281607336E0,5.195576549E-1,-5.746259689E-1,9.797372818E0
3.293605801E0,5.889915824E-1,-5.554717779E-1,9.773429871E0
3.305603398E0,5.985686779E-1,-5.578660369E-1,9.720755577E0
3.317602128E0,5.913859010E-1,-5.770202279E-1,9.756669998E0
3.329600928E0,5.650488734E-1,-6.225114465E-1,9.783006668E0
3.341600124E0,5.578660369E-1,-6.871568561E-1,9.830892563E0
3.353599387E0,5.291347504E-1,-7.254652381E-1,9.847652435E0
3.365598584E0,5.865973234E-1,-7.015225291E-1,9.850046158E0
3.377597582E0,6.153286099E-1,-7.087053657E-1,9.871595383E0
3.389596481E0,6.249057055E-1,-7.063110471E-1,9.890748978E0
3.401594747E0,6.057515144E-1,-6.991282701E-1,9.864412308E0
3.413593279E0,5.626545548E-1,-6.536370516E-1,9.821314812E0
3.425592411E0,6.344828010E-1,-6.081457734E-1,9.826104164E0
3.437590809E0,5.363175869E-1,-7.087053657E-1,9.761458397E0
3.449589274E0,5.530774593E-1,-6.967339516E-1,9.914691925E0
3.461588072E0,5.842030644E-1,-7.470137477E-1,9.775823593E0
3.473586537E0,6.296942830E-1,-1.065452337E0,9.694418907E0
3.485585202E0,6.201171875E-1,-1.125309110E0,9.996097565E0
3.497583734E0,4.740664065E-1,-9.960182905E-1,1.006792545E1
3.509582166E0,4.884320498E-1,-7.637736797E-1,1.002004051E1
3.521580631E0,7.422251701E-1,-5.818088055E-1,9.883566856E0
3.533579029E0,6.871568561E-1,-5.937801600E-1,9.694418907E0
3.545576661E0,5.243461728E-1,-8.068706393E-1,9.584281921E0
3.557575126E0,5.578660369E-1,-9.289786220E-1,9.689630508E0
3.569574091E0,5.339232683E-1,-8.978530765E-1,9.816526413E0
3.581572556E0,5.722316504E-1,-8.332076073E-1,1.002482891E1
3.593571021E0,5.435003638E-1,-8.308133483E-1,1.006553173E1
3.605569386E0,5.051919818E-1,-8.930644989E-1,1.000567436E1
3.617567851E0,5.411061049E-1,-9.026415944E-1,9.828497887E0
3.629565883E0,4.980091453E-1,-8.020820618E-1,9.715967178E0
3.641564281E0,5.099805593E-1,-6.703969240E-1,9.660899162E0
3.653562746E0,5.842030644E-1,-6.656084061E-1,9.651321411E0
3.665562078E0,5.961744189E-1,-7.158881426E-1,9.768641472E0
3.677560109E0,4.788549542E-1,-7.733507752E-1,9.859623909E0
3.689558507E0,5.051919818E-1,-7.757450342E-1,9.885960579E0
3.701557137E0,5.411061049E-1,-7.589851022E-1,9.833286285E0
3.713555800E0,5.626545548E-1,-7.613793612E-1,9.783006668E0
3.725553264E0,5.147690773E-1,-7.565908432E-1,9.751881599E0
3.737552361E0,4.956148863E-1,-8.044763207E-1,9.763853073E0
3.749551024E0,5.315290093E-1,-8.212362528E-1,9.811738014E0
3.761549055E0,5.315290093E-1,-8.236305118E-1,9.823709488E0
3.773547520E0,5.195576549E-1,-8.140534163E-1,9.857229233E0
3.785547318E0,4.980091453E-1,-8.044763207E-1,9.857229233E0
3.797545716E0,5.075862408E-1,-8.332076073E-1,9.833286285E0
3.809544181E0,4.884320498E-1,-8.499675393E-1,9.838075638E0
3.821543180E0,4.788549542E-1,-8.643332124E-1,9.797372818E0
3.833541712E0,5.243461728E-1,-8.451790214E-1,9.823709488E0
3.845540110E0,5.506832004E-1,-8.475732803E-1,9.830892563E0
3.857538675E0,5.004034638E-1,-8.930644989E-1,9.859623909E0
3.869537140E0,5.004034638E-1,-8.930644989E-1,9.864412308E0
3.881535605E0,5.219519138E-1,-8.284190893E-1,9.859623909E0
3.893534003E0,5.267404318E-1,-8.140534163E-1,9.818921089E0
3.905532735E0,5.387118459E-1,-7.925049663E-1,9.778218269E0
3.917531167E0,4.956148863E-1,-8.236305118E-1,9.768641472E0
3.929529599E0,4.980091453E-1,-8.308133483E-1,9.780612946E0
3.941529164E0,5.027977228E-1,-8.236305118E-1,9.802161217E0
3.953527562E0,5.147690773E-1,-8.140534163E-1,9.818921089E0
3.965525794E0,5.123748183E-1,-8.092648983E-1,9.823709488E0
3.977524259E0,5.075862408E-1,-8.595446348E-1,9.794978142E0
3.989522458E0,5.099805593E-1,-8.643332124E-1,9.804554939E0
4.001519756E0,5.147690773E-1,-8.691217303E-1,9.799766541E0
4.013517788E0,5.339232683E-1,-8.619389534E-1,9.814132690E0
4.025516220E0,5.722316504E-1,-8.739103079E-1,9.840469360E0
4.037514685E0,5.674431324E-1,-8.858816624E-1,9.826104164E0
4.049513449E0,5.363175869E-1,-9.026415944E-1,9.818921089E0
4.061511914E0,5.243461728E-1,-9.122186899E-1,9.828497887E0
4.073510879E0,5.315290093E-1,-8.930644989E-1,9.823709488E0
4.085510444E0,5.195576549E-1,-9.194015265E-1,9.816526413E0
4.097508909E0,4.884320498E-1,-9.098244309E-1,9.830892563E0
4.109507505E0,5.027977228E-1,-8.834874034E-1,9.806949615E0
4.121506168E0,5.315290093E-1,-9.050358534E-1,9.816526413E0
4.133504831E0,5.363175869E-1,-8.715160489E-1,9.799766541E0
4.145502095E0,5.387118459E-1,-9.146129489E-1,9.814132690E0
4.157500691E0,5.554717779E-1,-9.194015265E-1,9.811738014E0
4.169499223E0,5.291347504E-1,-9.457385540E-1,9.828497887E0
4.181497688E0,5.387118459E-1,-9.696813226E-1,9.826104164E0
4.193496153E0,5.411061049E-1,-9.816526771E-1,9.876383781E0
4.205493918E0,4.644893110E-1,-9.888355136E-1,9.864412308E0
4.217492383E0,4.668835998E-1,-9.577099085E-1,9.842864037E0
4.229491348E0,4.812492430E-1,-8.930644989E-1,9.830892563E0
4.241489880E0,4.716721475E-1,-8.188419938E-1,9.783006668E0
4.253488345E0,4.788549542E-1,-7.877163887E-1,9.747093201E0
4.265487577E0,4.477293789E-1,-8.308133483E-1,9.742303848E0
4.277486042E0,4.477293789E-1,-8.595446348E-1,9.744698524E0
4.289484007E0,4.597007632E-1,-8.619389534E-1,9.783006668E0
4.301482472E0,4.980091453E-1,-8.882759809E-1,9.816526413E0
4.313480870E0,4.980091453E-1,-9.146129489E-1,9.830892563E0
4.325479569E0,4.573064744E-1,-9.433442950E-1,9.833286285E0
4.337478101E0,4.716721475E-1,-9.409499764E-1,9.830892563E0
4.349476599E0,4.908263385E-1,-9.481328130E-1,9.835680962E0
4.361474796E0,4.812492430E-1,-9.553156495E-1,9.833286285E0
4.373473959E0,4.788549542E-1,-9.505270720E-1,9.823709488E0
4.385473090E0,4.668835998E-1,-9.385557175E-1,9.835680962E0
4.397472788E0,4.620950520E-1,-9.241901040E-1,9.802161217E0
4.407473085E0,4.812492430E-1,-8.882759809E-1,9.814132690E0
4.419472983E0,4.620950520E-1,-8.810931444E-1,9.783006668E0
4.429473414E0,4.788549542E-1,-8.810931444E-1,9.768641472E0
4.441472412E0,4.908263385E-1,-9.074301720E-1,9.766246796E0
4.453471608E0,5.004034638E-1,-9.289786220E-1,9.794978142E0
4.465469873E0,5.027977228E-1,-9.577099085E-1,9.804554939E0
4.477468838E0,5.075862408E-1,-9.601042271E-1,9.816526413E0
4.489467304E0,5.291347504E-1,-9.481328130E-1,9.833286285E0
4.501465869E0,5.291347504E-1,-9.888355136E-1,9.828497887E0
4.513464334E0,5.339232683E-1,-9.936240315E-1,9.845257759E0
4.525463166E0,5.411061049E-1,-9.936240315E-1,9.821314812E0
4.537461631E0,5.554717779E-1,-9.672870040E-1,9.804554939E0
4.549460029E0,5.411061049E-1,-9.529213905E-1,9.785401344E0
4.561459794E0,5.339232683E-1,-9.648927450E-1,9.811738014E0
4.573458326E0,4.764606953E-1,-9.936240315E-1,9.799766541E0
4.585456858E0,4.812492430E-1,-9.936240315E-1,9.794978142E0
4.597455323E0,5.099805593E-1,-1.010383964E0,9.821314812E0
4.609453721E0,5.458946824E-1,-9.960182905E-1,9.838075638E0
4.621450719E0,5.435003638E-1,-1.024749637E0,9.845257759E0
4.633449184E0,5.530774593E-1,-1.051086664E0,9.826104164E0
4.645447649E0,5.626545548E-1,-1.051086664E0,9.814132690E0
4.657446047E0,5.482889414E-1,-1.039115310E0,9.823709488E0
4.669444579E0,5.123748183E-1,-1.010383964E0,9.833286285E0
4.681443977E0,5.626545548E-1,-9.888355136E-1,9.806949615E0
4.693442442E0,5.937801600E-1,-9.912297726E-1,9.783006668E0
4.705440440E0,5.722316504E-1,-9.648927450E-1,9.744698524E0
4.717438538E0,4.812492430E-1,-9.864411950E-1,9.759063721E0
4.729436970E0,4.716721475E-1,-9.888355136E-1,9.804554939E0
4.741435502E0,4.573064744E-1,-9.840469360E-1,9.838075638E0
4.753433600E0,4.453351200E-1,-9.457385540E-1,9.785401344E0
4.765432465E0,4.525179267E-1,-9.433442950E-1,9.751881599E0
4.777430530E0,4.884320498E-1,-1.007989645E0,9.768641472E0
4.789428995E0,4.884320498E-1,-1.048692346E0,9.806949615E0
4.801426526E0,4.405465722E-1,-1.034326673E0,9.806949615E0
4.813425291E0,4.860377908E-1,-1.043903828E0,9.814132690E0
4.825423888E0,5.626545548E-1,-1.041509509E0,9.818921089E0
4.837423385E0,5.674431324E-1,-1.060663700E0,9.833286285E0
4.849422082E0,5.267404318E-1,-1.022355318E0,9.883566856E0
4.861421612E0,3.830839694E-2,-1.067846537E0,9.562733650E0
4.873419842E0,1.098972082E0,-1.242628574E0,9.775823593E0
4.885418639E0,5.746259689E-1,-1.166011810E0,9.641744614E0
4.897417104E0,4.309694469E-2,-9.577099085E-1,9.998491287E0
4.909415569E0,5.411061049E-1,-1.156434774E0,9.979337692E0
4.921413667E0,9.289786220E-1,-1.321639657E0,9.833286285E0
4.933412565E0,7.925049663E-1,-1.187560320E0,9.802161217E0
4.945410730E0,4.860377908E-1,-1.041509509E0,9.809344292E0
4.957409195E0,7.087053657E-1,-1.182771802E0,9.847652435E0
4.969407593E0,7.565908432E-1,-1.194743156E0,9.775823593E0
4.981405491E0,6.153286099E-1,-1.146857619E0,9.756669998E0
4.993403090E0,7.087053657E-1,-1.019961119E0,9.783006668E0
5.005400955E0,7.972934842E-1,-1.012778282E0,9.708784103E0
5.017399353E0,7.302538157E-1,-1.067846537E0,9.703995705E0
5.029397618E0,5.985686779E-1,-1.070240855E0,9.727938652E0
5.041397016E0,5.794144869E-1,-1.019961119E0,9.747093201E0
5.053396414E0,6.344828010E-1,-1.012778282E0,9.761458397E0
5.065395512E0,6.344828010E-1,-1.060663700E0,9.763853073E0
5.077393977E0,5.698373914E-1,-1.072635174E0,9.809344292E0
5.089392709E0,5.147690773E-1,-1.082212210E0,9.790189743E0
5.101390241E0,5.865973234E-1,-1.115732074E0,9.783006668E0
5.113388706E0,5.554717779E-1,-1.096577883E0,9.775823593E0
5.125387104E0,4.836435020E-1,-1.106154919E0,9.756669998E0
5.137385569E0,5.506832004E-1,-1.144463301E0,9.814132690E0
5.149385167E0,5.650488734E-1,-1.177983165E0,9.859623909E0
5.161383699E0,5.506832004E-1,-1.213897347E0,9.850046158E0
5.173382097E0,5.578660369E-1,-1.206714511E0,9.828497887E0
5.185380562E0,6.129343510E-1,-1.170800328E0,9.828497887E0
5.197379027E0,5.842030644E-1,-1.118126392E0,9.823709488E0
5.209376392E0,5.937801600E-1,-1.101366401E0,9.802161217E0
5.221375889E0,5.961744189E-1,-1.134886265E0,9.742303848E0
5.233374552E0,5.961744189E-1,-1.139674783E0,9.732727051E0
5.245373282E0,5.458946824E-1,-1.122914910E0,9.735121727E0
5.257372012E0,5.722316504E-1,-1.067846537E0,9.761458397E0
5.269371009E0,5.602602959E-1,-1.072635174E0,9.804554939E0
5.281369740E0,5.243461728E-1,-1.118126392E0,9.869200706E0
5.293368205E0,4.453351200E-1,-1.154040456E0,9.873989105E0
5.305366670E0,4.692778587E-1,-1.134886265E0,9.763853073E0
5.317365135E0,4.860377908E-1,-1.039115310E0,9.749486923E0
5.329363166E0,5.051919818E-1,-1.051086664E0,9.737515450E0
5.341360498E0,5.267404318E-1,-1.110943556E0,9.778218269E0
5.353358963E0,4.549122155E-1,-1.199531674E0,9.857229233E0
5.365356661E0,4.357580245E-1,-1.182771802E0,9.845257759E0
5.377355059E0,5.027977228E-1,-1.091789365E0,9.850046158E0
5.389353524E0,5.171633363E-1,-1.053480864E0,9.797372818E0
5.401351956E0,5.291347504E-1,-1.106154919E0,9.756669998E0
5.413349588E0,5.387118459E-1,-1.154040456E0,9.747093201E0
5.425348820E0,5.171633363E-1,-1.130097747E0,9.816526413E0
5.437347218E0,5.315290093E-1,-1.070240855E0,9.826104164E0
5.449345815E0,5.554717779E-1,-1.094183564E0,9.838075638E0
5.461345479E0,5.530774593E-1,-1.067846537E0,9.806949615E0
5.473345245E0,5.315290093E-1,-1.091789365E0,9.778218269E0
5.485344441E0,5.099805593E-1,-1.091789365E0,9.742303848E0
5.497343771E0,5.171633363E-1,-1.072635174E0,9.742303848E0
5.509342969E0,5.171633363E-1,-1.084606528E0,9.771035194E0
5.521341300E0,5.315290093E-1,-1.091789365E0,9.794978142E0
5.533340100E0,5.363175869E-1,-1.089395046E0,9.809344292E0
5.545338565E0,4.788549542E-1,-1.118126392E0,9.814132690E0
5.557337030E0,5.099805593E-1,-1.120520592E0,9.835680962E0
5.569335528E0,5.243461728E-1,-1.122914910E0,9.869200706E0
5.581334659E0,5.411061049E-1,-1.084606528E0,9.835680962E0
5.593333124E0,5.051919818E-1,-1.089395046E0,9.797372818E0
5.605331389E0,5.363175869E-1,-1.098972082E0,9.768641472E0
5.617329854E0,5.171633363E-1,-1.120520592E0,9.761458397E0
5.629329219E0,5.458946824E-1,-1.110943556E0,9.735121727E0
5.641327617E0,5.530774593E-1,-1.087000728E0,9.811738014E0
5.653326082E0,5.315290093E-1,-1.087000728E0,9.869200706E0
5.665325113E0,5.530774593E-1,-1.103760719E0,9.842864037E0
5.677323645E0,5.195576549E-1,-1.091789365E0,9.792584419E0
5.689322176E0,5.267404318E-1,-1.079817891E0,9.771035194E0
5.701319708E0,5.506832004E-1,-1.041509509E0,9.754275322E0
5.713318173E0,5.363175869E-1,-1.051086664E0,9.756669998E0
5.725316338E0,5.267404318E-1,-1.051086664E0,9.739910126E0
5.737314736E0,5.267404318E-1,-1.065452337E0,9.754275322E0
5.749312134E0,5.267404318E-1,-1.084606528E0,9.797372818E0
5.761311799E0,5.123748183E-1,-1.087000728E0,9.835680962E0
5.773310264E0,4.980091453E-1,-1.096577883E0,9.888355255E0
5.785308729E0,5.075862408E-1,-1.113337755E0,9.881172180E0
5.797307127E0,5.195576549E-1,-1.096577883E0,9.816526413E0
5.809305592E0,5.435003638E-1,-1.089395046E0,9.771035194E0
5.821303724E0,5.387118459E-1,-1.048692346E0,9.763853073E0
5.833302256E0,5.027977228E-1,-1.077423692E0,9.761458397E0
5.845300852E0,5.219519138E-1,-1.065452337E0,9.780612946E0
5.857299515E0,5.626545548E-1,-1.106154919E0,9.818921089E0
5.869298178E0,5.554717779E-1,-1.077423692E0,9.847652435E0
5.881296041E0,5.482889414E-1,-1.043903828E0,9.835680962E0
5.893294637E0,5.698373914E-1,-1.041509509E0,9.792584419E0
5.905293102E0,5.506832004E-1,-1.027143836E0,9.754275322E0
5.917291634E0,5.626545548E-1,-1.039115310E0,9.718361855E0
5.929290166E0,5.889915824E-1,-1.031932473E0,9.749486923E0
5.941289564E0,5.626545548E-1,-1.041509509E0,9.787795067E0
5.953287962E0,5.411061049E-1,-1.029538155E0,9.816526413E0
5.965286427E0,5.411061049E-1,-1.065452337E0,9.833286285E0
5.977284892E0,5.315290093E-1,-1.060663700E0,9.835680962E0
5.989283357E0,4.908263385E-1,-1.067846537E0,9.821314812E0
6.001280822E0,5.004034638E-1,-1.043903828E0,9.818921089E0
6.013279354E0,5.219519138E-1,-1.039115310E0,9.821314812E0
6.025277286E0,5.387118459E-1,-1.041509509E0,9.830892563E0
6.037275751E0,5.123748183E-1,-1.039115310E0,9.804554939E0
6.049274149E0,5.506832004E-1,-1.027143836E0,9.787795067E0
6.061273581E0,5.650488734E-1,-1.010383964E0,9.790189743E0
6.073272046E0,5.602602959E-1,-1.003201127E0,9.768641472E0
6.085271111E0,5.913859010E-1,-9.624984860E-1,9.727938652E0
6.097269576E0,5.746259689E-1,-9.529213905E-1,9.696812630E0
6.109267974E0,5.889915824E-1,-9.601042271E-1,9.756669998E0
6.121266006E0,5.770202279E-1,-1.019961119E0,9.816526413E0
6.133264471E0,5.530774593E-1,-1.041509509E0,9.864412308E0
6.145262936E0,5.291347504E-1,-1.039115310E0,9.897932053E0
6.157261334E0,5.722316504E-1,-9.888355136E-1,9.828497887E0
6.169259832E0,5.602602959E-1,-9.984126091E-1,9.725543976E0
6.181258764E0,5.554717779E-1,-9.984126091E-1,9.699207306E0
6.193257229E0,5.219519138E-1,-1.017566800E0,9.725543976E0
6.205256227E0,5.435003638E-1,-1.043903828E0,9.821314812E0
6.217254692E0,5.051919818E-1,-1.019961119E0,9.931451797E0
6.229253157E0,4.644893110E-1,-1.010383964E0,9.929058075E0
6.241251689E0,5.554717779E-1,-1.003201127E0,9.914691925E0
6.253250352E0,5.842030644E-1,-1.007989645E0,9.797372818E0
6.265248415E0,6.033572555E-1,-9.696813226E-1,9.687235832E0
6.277247078E0,5.482889414E-1,-9.217957854E-1,9.660899162E0
6.289245775E0,5.506832004E-1,-9.409499764E-1,9.751881599E0
6.301243438E0,5.554717779E-1,-9.624984860E-1,9.840469360E0
6.313241836E0,6.201171875E-1,-9.936240315E-1,9.881172180E0
6.325239868E0,6.560313106E-1,-9.553156495E-1,9.835680962E0
6.337238400E0,6.153286099E-1,-9.241901040E-1,9.730332375E0
6.349237365E0,5.842030644E-1,-9.265843630E-1,9.641744614E0
6.361236263E0,5.650488734E-1,-9.744698405E-1,9.706390381E0
6.373234728E0,6.201171875E-1,-1.012778282E0,9.818921089E0
6.385233359E0,5.985686779E-1,-1.010383964E0,9.924268723E0
6.397231824E0,5.458946824E-1,-1.022355318E0,9.902720451E0
6.409229722E0,4.932205975E-1,-1.024749637E0,9.890748978E0
6.421227787E0,5.195576549E-1,-1.034326673E0,9.847652435E0
6.433226319E0,5.626545548E-1,-1.012778282E0,9.761458397E0
6.445225050E0,5.506832004E-1,-9.912297726E-1,9.735121727E0
6.457223515E0,5.339232683E-1,-9.792584181E-1,9.778218269E0
6.469221980E0,5.578660369E-1,-9.696813226E-1,9.811738014E0
6.481221278E0,6.225114465E-1,-9.146129489E-1,9.876383781E0
6.493219809E0,5.722316504E-1,-9.265843630E-1,9.842864037E0
6.505218639E0,5.315290093E-1,-8.858816624E-1,9.809344292E0
6.517217469E0,6.057515144E-1,-9.050358534E-1,9.735121727E0
6.529217067E0,6.249057055E-1,-9.337671995E-1,9.723150253E0
6.541217298E0,6.823683381E-1,-9.194015265E-1,9.735121727E0
6.553217128E0,6.560313106E-1,-9.337671995E-1,9.763853073E0
6.565216791E0,6.105400920E-1,-9.505270720E-1,9.821314812E0
6.575216823E0,5.818088055E-1,-9.984126091E-1,9.835680962E0
6.587216287E0,5.794144869E-1,-9.768640995E-1,9.838075638E0
6.599215551E0,5.937801600E-1,-9.553156495E-1,9.811738014E0
6.611213149E0,5.889915824E-1,-9.098244309E-1,9.811738014E0
6.623212015E0,5.506832004E-1,-9.409499764E-1,9.804554939E0
6.635210614E0,4.908263385E-1,-9.601042271E-1,9.823709488E0
6.647209079E0,4.956148863E-1,-9.481328130E-1,9.838075638E0
6.659207477E0,5.147690773E-1,-8.930644989E-1,9.857229233E0
6.671206875E0,5.195576549E-1,-8.763045669E-1,9.845257759E0
6.683205440E0,4.908263385E-1,-8.763045669E-1,9.814132690E0
6.695203905E0,4.956148863E-1,-9.026415944E-1,9.802161217E0
6.707202370E0,5.123748183E-1,-9.002473354E-1,9.804554939E0
6.719200768E0,5.770202279E-1,-8.356019258E-1,9.778218269E0
6.731199233E0,5.722316504E-1,-7.972934842E-1,9.787795067E0
6.743197765E0,5.770202279E-1,-8.044763207E-1,9.775823593E0
6.755196297E0,5.961744189E-1,-8.451790214E-1,9.794978142E0
6.767194695E0,6.201171875E-1,-8.571503758E-1,9.763853073E0
6.779193160E0,6.009629965E-1,-8.882759809E-1,9.775823593E0
6.791190892E0,5.985686779E-1,-8.643332124E-1,9.797372818E0
6.803188923E0,6.249057055E-1,-8.834874034E-1,9.826104164E0
6.815187321E0,5.937801600E-1,-9.098244309E-1,9.802161217E0
6.827185619E0,6.081457734E-1,-9.313728809E-1,9.835680962E0
6.839184151E0,5.746259689E-1,-9.720755816E-1,9.854835510E0
6.851183416E0,6.368771195E-1,-9.289786220E-1,9.852440834E0
6.863183114E0,6.608198285E-1,-8.978530765E-1,9.811738014E0
6.875181512E0,6.823683381E-1,-8.739103079E-1,9.785401344E0
6.887180144E0,6.823683381E-1,-8.930644989E-1,9.768641472E0
6.899178609E0,6.464542150E-1,-9.170072675E-1,9.778218269E0
6.911176141E0,6.560313106E-1,-9.217957854E-1,9.794978142E0
6.923174072E0,6.177229285E-1,-8.810931444E-1,9.816526413E0
6.935172604E0,6.033572555E-1,-8.284190893E-1,9.811738014E0
6.947171069E0,5.650488734E-1,-8.308133483E-1,9.804554939E0
6.959169534E0,5.147690773E-1,-8.691217303E-1,9.790189743E0
6.971167932E0,5.315290093E-1,-8.643332124E-1,9.816526413E0
6.983166162E0,5.578660369E-1,-8.308133483E-1,9.859623909E0
6.995164825E0,6.129343510E-1,-7.805336118E-1,9.816526413E0
7.007163555E0,6.057515144E-1,-7.829278708E-1,9.821314812E0
7.019162218E0,5.027977228E-1,-8.284190893E-1,9.749486923E0
7.031161314E0,5.123748183E-1,-8.427847624E-1,9.737515450E0
7.043159812E0,6.057515144E-1,-8.188419938E-1,9.775823593E0
7.055158277E0,5.985686779E-1,-8.044763207E-1,9.799766541E0
7.067156742E0,5.674431324E-1,-8.403904438E-1,9.862017632E0
7.079155140E0,5.674431324E-1,-8.858816624E-1,9.876383781E0
7.091154105E0,6.416656375E-1,-9.026415944E-1,9.862017632E0
7.103152637E0,6.344828010E-1,-8.236305118E-1,9.804554939E0
7.115151102E0,6.201171875E-1,-8.092648983E-1,9.754275322E0
7.127149500E0,6.225114465E-1,-8.356019258E-1,9.725543976E0
7.139147965E0,6.560313106E-1,-8.499675393E-1,9.794978142E0
7.151145730E0,7.039167881E-1,-8.379961848E-1,9.811738014E0
7.163144195E0,7.110996246E-1,-7.805336118E-1,9.763853073E0
7.175142660E0,7.182824612E-1,-7.805336118E-1,9.778218269E0
7.187141125E0,7.110996246E-1,-8.308133483E-1,9.773429871E0
7.199139590E0,6.560313106E-1,-8.308133483E-1,9.778218269E0
7.211137822E0,6.225114465E-1,-8.523618579E-1,9.792584419E0
7.223135920E0,6.320885420E-1,-8.810931444E-1,9.806949615E0
7.235134318E0,6.392713785E-1,-8.643332124E-1,9.816526413E0
7.247132783E0,6.392713785E-1,-8.595446348E-1,9.830892563E0
7.259131315E0,6.632141471E-1,-8.906702399E-1,9.806949615E0
7.271130713E0,6.871568561E-1,-9.361614585E-1,9.809344292E0
7.283129478E0,7.230709791E-1,-9.648927450E-1,9.823709488E0
7.295127943E0,7.518022656E-1,-9.577099085E-1,9.838075638E0
7.307126408E0,7.374366522E-1,-9.385557175E-1,9.838075638E0
7.319124840E0,7.206767201E-1,-8.978530765E-1,9.840469360E0
7.331122805E0,6.991282701E-1,-9.194015265E-1,9.806949615E0
7.343120803E0,6.608198285E-1,-8.810931444E-1,9.792584419E0
7.355119335E0,6.296942830E-1,-8.954587579E-1,9.799766541E0
7.367117633E0,6.009629965E-1,-8.715160489E-1,9.802161217E0
7.379116329E0,6.129343510E-1,-8.547561169E-1,9.792584419E0
7.391115425E0,6.344828010E-1,-8.427847624E-1,9.816526413E0
7.403114555E0,6.081457734E-1,-8.260248303E-1,9.830892563E0
7.415113218E0,5.746259689E-1,-8.571503758E-1,9.828497887E0
7.427111882E0,5.722316504E-1,-8.595446348E-1,9.787795067E0
7.439110280E0,6.488484740E-1,-8.308133483E-1,9.732727051E0
7.451109145E0,7.063110471E-1,-7.877163887E-1,9.780612946E0
7.463107177E0,6.895511150E-1,-8.523618579E-1,9.787795067E0
7.475105642E0,6.656084061E-1,-9.002473354E-1,9.835680962E0
7.487103340E0,6.392713785E-1,-9.577099085E-1,9.646533012E0
7.499101805E0,7.589851022E-1,-8.475732803E-1,9.775823593E0
7.511099004E0,7.709565163E-1,-8.116591573E-1,9.943423271E0
7.523097902E0,4.644893110E-1,-9.648927450E-1,9.759063721E0
7.535096367E0,4.189980924E-1,-9.696813226E-1,9.780612946E0
7.547095665E0,6.871568561E-1,-8.332076073E-1,9.878777504E0
7.559094130E0,7.422251701E-1,-8.020820618E-1,9.816526413E0
7.569094162E0,6.680026650E-1,-8.403904438E-1,9.794978142E0
7.581092627E0,5.554717779E-1,-9.337671995E-1,9.739910126E0
7.593091257E0,5.578660369E-1,-9.122186899E-1,9.739910126E0
7.605090122E0,6.201171875E-1,-8.164477348E-1,9.818921089E0
7.617089120E0,7.134938836E-1,-8.308133483E-1,9.773429871E0
7.629088017E0,7.015225291E-1,-8.858816624E-1,9.773429871E0
7.641087213E0,6.225114465E-1,-9.361614585E-1,9.715967178E0
7.653086311E0,7.733507752E-1,-8.954587579E-1,9.828497887E0
7.665085276E0,8.044763207E-1,-8.834874034E-1,9.809344292E0
7.677084076E0,7.254652381E-1,-8.954587579E-1,9.845257759E0
7.689081607E0,6.464542150E-1,-9.864411950E-1,9.783006668E0
7.701080072E0,6.632141471E-1,-1.065452337E0,9.787795067E0
7.713078537E0,6.440598965E-1,-9.529213905E-1,9.790189743E0
7.725077002E0,6.057515144E-1,-9.170072675E-1,9.787795067E0
7.737075400E0,6.775797606E-1,-8.906702399E-1,9.775823593E0
7.749074732E0,6.177229285E-1,-9.194015265E-1,9.790189743E0
7.761073264E0,5.937801600E-1,-9.194015265E-1,9.876383781E0
7.773071796E0,5.985686779E-1,-9.074301720E-1,9.905115128E0
7.785070261E0,5.889915824E-1,-8.810931444E-1,9.883566856E0
7.797068659E0,5.027977228E-1,-9.768640995E-1,9.701601982E0
7.809066390E0,5.147690773E-1,-9.648927450E-1,9.737515450E0
7.821065122E0,5.578660369E-1,-9.696813226E-1,9.766246796E0
7.833063587E0,6.632141471E-1,-9.912297726E-1,9.854835510E0
7.845061952E0,6.201171875E-1,-9.792584181E-1,9.885960579E0
7.857060484E0,6.057515144E-1,-9.984126091E-1,9.893143654E0
7.869060082E0,6.105400920E-1,-9.601042271E-1,9.852440834E0
7.881058280E0,6.344828010E-1,-9.313728809E-1,9.747093201E0
7.893056678E0,6.392713785E-1,-8.858816624E-1,9.732727051E0
7.905055143E0,5.147690773E-1,-8.906702399E-1,9.701601982E0
7.917053608E0,5.650488734E-1,-8.427847624E-1,9.780612946E0
7.929051740E0,5.626545548E-1,-8.834874034E-1,9.787795067E0
7.941050205E0,5.171633363E-1,-8.691217303E-1,9.823709488E0
7.953048603E0,4.620950520E-1,-8.834874034E-1,9.802161217E0
7.965047101E0,4.956148863E-1,-8.954587579E-1,9.802161217E0
7.977045566E0,4.932205975E-1,-9.098244309E-1,9.787795067E0
7.989043697E0,4.932205975E-1,-9.217957854E-1,9.792584419E0
8.001042060E0,5.506832004E-1,-9.217957854E-1,9.802161217E0
8.013040790E0,5.315290093E-1,-9.553156495E-1,9.830892563E0
8.025039520E0,4.884320498E-1,-9.912297726E-1,9.850046158E0
8.037038183E0,4.453351200E-1,-9.984126091E-1,9.833286285E0
8.049037447E0,4.381522834E-1,-9.672870040E-1,9.857229233E0
8.061036112E0,4.285751879E-1,-9.265843630E-1,9.850046158E0
8.073034577E0,4.668835998E-1,-9.002473354E-1,9.811738014E0
8.085033042E0,4.070267081E-1,-8.763045669E-1,9.802161217E0
8.097031507E0,3.280156553E-1,-8.954587579E-1,9.797372818E0
8.109028939E0,3.711125851E-1,-9.002473354E-1,9.799766541E0
8.121027437E0,3.998439014E-1,-9.074301720E-1,9.830892563E0
8.133025902E0,4.237866402E-1,-8.930644989E-1,9.814132690E0
8.145024367E0,4.956148863E-1,-8.930644989E-1,9.830892563E0
8.157022765E0,5.458946824E-1,-9.337671995E-1,9.806949615E0
8.169022330E0,5.554717779E-1,-9.433442950E-1,9.814132690E0
8.181020862E0,5.626545548E-1,-9.601042271E-1,9.785401344E0
8.193019327E0,5.147690773E-1,-9.577099085E-1,9.787795067E0
8.205017725E0,4.740664065E-1,-9.122186899E-1,9.778218269E0
8.217016190E0,4.549122155E-1,-9.265843630E-1,9.792584419E0
8.229013322E0,4.405465722E-1,-9.050358534E-1,9.802161217E0
8.241011787E0,3.950553536E-1,-9.074301720E-1,9.811738014E0
8.253010252E0,3.711125851E-1,-9.026415944E-1,9.838075638E0
8.265008717E0,3.663240373E-1,-9.074301720E-1,9.835680962E0
8.277007249E0,3.639297783E-1,-8.978530765E-1,9.790189743E0
8.289006381E0,3.806896806E-1,-8.882759809E-1,9.768641472E0
8.301004846E0,4.573064744E-1,-8.834874034E-1,9.794978142E0
8.313003244E0,4.381522834E-1,-9.002473354E-1,9.828497887E0
8.325001242E0,3.926610649E-1,-9.194015265E-1,9.854835510E0
8.336999707E0,4.549122155E-1,-9.170072675E-1,9.842864037E0
8.348998106E0,4.668835998E-1,-9.289786220E-1,9.826104164E0
8.360996504E0,4.477293789E-1,-9.289786220E-1,9.804554939E0
8.372994969E0,4.764606953E-1,-9.385557175E-1,9.768641472E0
8.384993901E0,4.908263385E-1,-9.457385540E-1,9.763853073E0
8.396992399E0,5.411061049E-1,-9.936240315E-1,9.809344292E0
8.408990462E0,5.171633363E-1,-1.000806928E0,9.854835510E0
8.420989125E0,4.213923812E-1,-1.017566800E0,9.895537376E0
8.432987855E0,4.046324492E-1,-1.046298146E0,9.871595383E0
8.444986518E0,3.998439014E-1,-9.936240315E-1,9.850046158E0
8.456985148E0,3.806896806E-1,-9.457385540E-1,9.828497887E0
8.468984479E0,3.304099143E-1,-9.313728809E-1,9.821314812E0
8.480982944E0,3.112557232E-1,-9.481328130E-1,9.814132690E0
8.492981409E0,3.423812985E-1,-9.409499764E-1,9.799766541E0
8.504979941E0,3.854782581E-1,-9.194015265E-1,9.804554939E0
8.516978339E0,4.525179267E-1,-8.906702399E-1,9.821314812E0
8.528977104E0,4.716721475E-1,-8.930644989E-1,9.811738014E0
8.540975402E0,4.142095447E-1,-9.289786220E-1,9.790189743E0
8.552973867E0,4.453351200E-1,-9.265843630E-1,9.766246796E0
8.564971832E0,4.357580245E-1,-9.002473354E-1,9.785401344E0
8.576970297E0,4.668835998E-1,-9.146129489E-1,9.766246796E0
8.588967695E0,4.836435020E-1,-9.098244309E-1,9.766246796E0
8.600966927E0,4.788549542E-1,-9.505270720E-1,9.792584419E0
8.612965392E0,4.237866402E-1,-9.385557175E-1,9.814132690E0
8.624964223E0,3.639297783E-1,-9.577099085E-1,9.816526413E0
8.636962820E0,3.351984620E-1,-9.768640995E-1,9.840469360E0
8.648962517E0,3.016786277E-1,-9.888355136E-1,9.826104164E0
8.660961247E0,3.328042030E-1,-9.984126091E-1,9.833286285E0
8.672960845E0,3.878725171E-1,-1.039115310E0,9.828497887E0
8.684960709E0,3.830839694E-1,-1.000806928E0,9.847652435E0
8.696960539E0,3.232271075E-1,-1.015172482E0,9.869200706E0
8.708959336E0,3.232271075E-1,-1.007989645E0,9.869200706E0
8.720958934E0,3.088614643E-1,-1.012778282E0,9.871595383E0
8.732958197E0,3.256213665E-1,-9.960182905E-1,9.833286285E0
8.744957328E0,3.759011328E-1,-9.601042271E-1,9.797372818E0
8.756955925E0,4.046324492E-1,-9.361614585E-1,9.792584419E0
8.768954725E0,3.950553536E-1,-9.553156495E-1,9.787795067E0
8.780953190E0,3.711125851E-1,-9.457385540E-1,9.771035194E0
8.792951655E0,3.447755575E-1,-9.265843630E-1,9.790189743E0
8.804950087E0,3.232271075E-1,-9.241901040E-1,9.790189743E0
8.816948985E0,3.495641351E-1,-9.146129489E-1,9.792584419E0
8.828948316E0,3.471698463E-1,-9.289786220E-1,9.804554939E0
8.840946781E0,3.567469418E-1,-9.577099085E-1,9.797372818E0
8.852945313E0,3.304099143E-1,-9.529213905E-1,9.818921089E0
8.864943811E0,3.136500120E-1,-9.672870040E-1,9.818921089E0
8.876942209E0,2.825244367E-1,-9.672870040E-1,9.816526413E0
8.888940674E0,3.232271075E-1,-9.984126091E-1,9.833286285E0
8.900939139E0,2.849186957E-1,-9.984126091E-1,9.828497887E0
8.912937604E0,3.064671755E-1,-9.792584181E-1,9.835680962E0
8.924936069E0,3.112557232E-1,-9.648927450E-1,9.826104164E0
8.936934534E0,3.447755575E-1,-9.912297726E-1,9.816526413E0
8.948932132E0,3.830839694E-1,-9.720755816E-1,9.823709488E0
8.960930597E0,3.759011328E-1,-9.792584181E-1,9.802161217E0
8.972929062E0,3.687183261E-1,-9.888355136E-1,9.802161217E0
8.984927460E0,3.232271075E-1,-9.577099085E-1,9.799766541E0
8.996925925E0,3.208328187E-1,-9.601042271E-1,9.814132690E0
9.008924390E0,3.256213665E-1,-9.792584181E-1,9.818921089E0
9.020923222E0,3.591412306E-1,-9.984126091E-1,9.811738014E0
9.032921620E0,3.471698463E-1,-9.792584181E-1,9.794978142E0
9.044920385E0,3.184385598E-1,-9.672870040E-1,9.823709488E0
9.056918850E0,2.968900800E-1,-9.888355136E-1,9.811738014E0
9.068918382E0,3.064671755E-1,-1.003201127E0,9.809344292E0
9.080916247E0,3.088614643E-1,-9.768640995E-1,9.809344292E0
9.092914712E0,3.040728867E-1,-9.912297726E-1,9.816526413E0
9.104913511E0,3.064671755E-1,-9.888355136E-1,9.826104164E0
9.116912042E0,3.591412306E-1,-9.960182905E-1,9.818921089E0
9.128910272E0,3.615354896E-1,-1.000806928E0,9.818921089E0
9.140909102E0,3.663240373E-1,-1.010383964E0,9.794978142E0
9.152907765E0,3.519583941E-1,-1.015172482E0,9.799766541E0
9.164905861E0,3.639297783E-1,-1.019961119E0,9.818921089E0
9.176904525E0,3.687183261E-1,-1.046298146E0,9.842864037E0
9.188903223E0,3.687183261E-1,-1.019961119E0,9.823709488E0
9.200901755E0,3.495641351E-1,-1.063058019E0,9.821314812E0
9.212900220E0,3.208328187E-1,-1.041509509E0,9.830892563E0
9.224898685E0,3.040728867E-1,-1.041509509E0,9.833286285E0
9.236897083E0,3.040728867E-1,-1.036720991E0,9.802161217E0
9.248895248E0,3.351984620E-1,-1.005595446E0,9.814132690E0
9.260893713E0,3.567469418E-1,-9.720755816E-1,9.804554939E0
9.272892245E0,3.854782581E-1,-1.010383964E0,9.763853073E0
9.284890710E0,3.830839694E-1,-1.005595446E0,9.787795067E0
9.296889108E0,2.825244367E-1,-1.015172482E0,9.804554939E0
9.308886939E0,3.088614643E-1,-9.960182905E-1,9.842864037E0
9.320885404E0,2.753416002E-1,-1.031932473E0,9.821314812E0
9.332883869E0,2.729473412E-1,-1.051086664E0,9.826104164E0
9.344882267E0,2.681587934E-1,-1.058269501E0,9.821314812E0
9.356880799E0,3.136500120E-1,-1.034326673E0,9.804554939E0
9.366880831E0,3.088614643E-1,-1.005595446E0,9.806949615E0
9.378879296E0,3.375927508E-1,-1.063058019E0,9.809344292E0
9.390877694E0,3.232271075E-1,-1.063058019E0,9.811738014E0
9.402875992E0,2.873129845E-1,-1.015172482E0,9.850046158E0
9.414874457E0,2.442160249E-1,-1.007989645E0,9.814132690E0
9.426872622E0,2.825244367E-1,-9.912297726E-1,9.792584419E0
9.438871020E0,3.519583941E-1,-1.012778282E0,9.785401344E0
9.450869552E0,3.256213665E-1,-1.079817891E0,9.787795067E0
9.462868184E0,3.351984620E-1,-1.087000728E0,9.823709488E0
9.474866649E0,3.088614643E-1,-1.075029373E0,9.828497887E0
9.486864114E0,3.160442710E-1,-1.087000728E0,9.847652435E0
9.498862579E0,3.447755575E-1,-1.082212210E0,9.845257759E0
9.510861277E0,3.304099143E-1,-1.101366401E0,9.799766541E0
9.522859842E0,3.543526828E-1,-1.053480864E0,9.830892563E0
9.534858505E0,3.136500120E-1,-1.043903828E0,9.780612946E0
9.546858168E0,3.399870098E-1,-1.036720991E0,9.799766541E0
9.558856831E0,3.304099143E-1,-1.039115310E0,9.773429871E0
9.570855261E0,3.375927508E-1,-1.027143836E0,9.794978142E0
9.582853891E0,3.232271075E-1,-1.012778282E0,9.768641472E0
9.594852289E0,3.184385598E-1,-1.007989645E0,9.744698524E0
9.606850221E0,4.166038036E-1,-1.022355318E0,9.785401344E0
9.618848686E0,3.567469418E-1,-1.043903828E0,9.771035194E0
9.630847151E0,2.992843390E-1,-1.017566800E0,9.794978142E0
9.642845482E0,2.968900800E-1,-1.118126392E0,9.785401344E0
9.654843947E0,3.064671755E-1,-1.139674783E0,9.847652435E0
9.666843578E0,2.490045726E-1,-1.142069101E0,9.862017632E0
9.678842110E0,3.136500120E-1,-1.168406129E0,9.862017632E0
9.690840142E0,3.830839694E-1,-1.156434774E0,9.857229233E0
9.702838740E0,3.615354896E-1,-1.168406129E0,9.821314812E0
9.714837205E0,3.735068738E-1,-1.146857619E0,9.799766541E0
9.726834870E0,3.711125851E-1,-1.168406129E0,9.814132690E0
9.738833533E0,3.782954216E-1,-1.182771802E0,9.830892563E0
9.750832766E0,4.070267081E-1,-1.189954638E0,9.830892563E0
9.762831696E0,3.950553536E-1,-1.151646137E0,9.854835510E0
9.774831026E0,3.878725171E-1,-1.173194647E0,9.830892563E0
9.786830391E0,3.950553536E-1,-1.206714511E0,9.799766541E0
9.798829389E0,3.208328187E-1,-1.218685865E0,9.792584419E0
9.810827855E0,3.184385598E-1,-1.163617611E0,9.778218269E0
9.822826521E0,3.759011328E-1,-1.108549237E0,9.759063721E0
9.834824986E0,4.477293789E-1,-1.058269501E0,9.756669998E0
9.846823284E0,4.046324492E-1,-1.077423692E0,9.783006668E0
9.858821749E0,3.830839694E-1,-1.127703428E0,9.787795067E0
9.870820548E0,3.902668059E-1,-1.146857619E0,9.809344292E0
9.882819046E0,3.399870098E-1,-1.180377483E0,9.739910126E0
9.894817511E0,3.375927508E-1,-1.146857619E0,9.775823593E0
9.906815609E0,3.351984620E-1,-1.185166001E0,9.785401344E0
9.918814074E0,3.687183261E-1,-1.225868702E0,9.869200706E0
9.930812672E0,3.232271075E-1,-1.266571403E0,9.862017632E0
9.942811237E0,3.016786277E-1,-1.240234375E0,9.857229233E0
9.954809635E0,3.519583941E-1,-1.180377483E0,9.835680962E0
9.966808567E0,3.711125851E-1,-1.151646137E0,9.763853073E0
9.978807032E0,3.615354896E-1,-1.132491946E0,9.713572502E0
9.990805764E0,3.663240373E-1,-1.168406129E0,9.727938652E0
1.000280416E1,3.591412306E-1,-1.199531674E0,9.783006668E0
1.001480263E1,3.639297783E-1,-1.204320192E0,9.828497887E0
1.002680022E1,3.351984620E-1,-1.189954638E0,9.888355255E0
1.003879869E1,3.136500120E-1,-1.206714511E0,9.862017632E0
1.005079689E1,3.208328187E-1,-1.221080184E0,9.806949615E0
1.006279542E1,3.208328187E-1,-1.247417212E0,9.766246796E0
1.007479388E1,2.921015322E-1,-1.228263021E0,9.744698524E0
1.008679325E1,3.256213665E-1,-1.189954638E0,9.768641472E0
1.009879178E1,3.950553536E-1,-1.163617611E0,9.797372818E0
1.011078971E1,3.998439014E-1,-1.170800328E0,9.835680962E0
1.012278811E1,3.639297783E-1,-1.194743156E0,9.852440834E0
1.013478658E1,3.806896806E-1,-1.197137356E0,9.794978142E0
1.014678511E1,4.309694767E-1,-1.187560320E0,9.735121727E0
1.015878430E1,4.213923812E-1,-1.180377483E0,9.713572502E0
1.017078343E1,4.070267081E-1,-1.197137356E0,9.708784103E0
1.018278210E1,3.950553536E-1,-1.259388566E0,9.775823593E0
1.019478082E1,3.830839694E-1,-1.307274103E0,9.864412308E0
1.020677852E1,3.615354896E-1,-1.350371003E0,9.907508850E0
1.021877632E1,3.184385598E-1,-1.319245458E0,9.878777504E0
1.023077479E1,3.639297783E-1,-1.290514112E0,9.828497887E0
1.024277322E1,3.950553536E-1,-1.273754239E0,9.756669998E0
1.025477125E1,3.591412306E-1,-1.245022893E0,9.742303848E0
1.026677058E1,3.687183261E-1,-1.252205729E0,9.771035194E0
1.027876874E1,4.357580245E-1,-1.223474383E0,9.785401344E0
1.029076807E1,4.094209969E-1,-1.237840056E0,9.790189743E0
1.030276654E1,3.735068738E-1,-1.223474383E0,9.763853073E0
1.031476537E1,3.998439014E-1,-1.228263021E0,9.754275322E0
1.032676404E1,4.166038036E-1,-1.237840056E0,9.735121727E0
1.033876287E1,4.477293789E-1,-1.264177084E0,9.725543976E0
1.035076053E1,4.525179267E-1,-1.249811411E0,9.775823593E0
1.036275903E1,4.213923812E-1,-1.295302629E0,9.811738014E0
1.037475750E1,4.285751879E-1,-1.331216812E0,9.838075638E0
1.038675483E1,4.118152559E-1,-1.371919513E0,9.806949615E0
1.039875329E1,3.830839694E-1,-1.347976685E0,9.818921089E0
1.041075176E1,3.854782581E-1,-1.321639657E0,9.835680962E0
1.042275049E1,4.070267081E-1,-1.362342358E0,9.830892563E0
1.043474895E1,3.782954216E-1,-1.369525194E0,9.826104164E0
1.044674842E1,3.687183261E-1,-1.343188167E0,9.773429871E0
1.045874688E1,3.567469418E-1,-1.278542757E0,9.763853073E0
1.047074558E1,3.974496126E-1,-1.271359921E0,9.747093201E0
1.048274395E1,3.735068738E-1,-1.300091267E0,9.780612946E0
1.049474241E1,3.830839694E-1,-1.307274103E0,9.821314812E0
1.050674004E1,3.854782581E-1,-1.314456820E0,9.833286285E0
1.051873851E1,3.759011328E-1,-1.285725594E0,9.794978142E0
1.053073637E1,3.806896806E-1,-1.249811411E0,9.747093201E0
1.054273461E1,3.591412306E-1,-1.264177084E0,9.699207306E0
1.055473314E1,4.070267081E-1,-1.261782765E0,9.735121727E0
1.056473337E1,4.453351200E-1,-1.278542757E0,9.787795067E0
1.057673203E1,3.687183261E-1,-1.280937076E0,9.823709488E0
1.058873099E1,3.615354896E-1,-1.271359921E0,9.811738014E0
1.060072966E1,3.687183261E-1,-1.268965602E0,9.783006668E0
1.061272829E1,3.782954216E-1,-1.259388566E0,9.732727051E0
1.062472618E1,3.375927508E-1,-1.285725594E0,9.751881599E0
1.063672465E1,3.974496126E-1,-1.328822494E0,9.794978142E0
1.064872365E1,3.878725171E-1,-1.367130876E0,9.818921089E0
1.066072275E1,3.567469418E-1,-1.309668303E0,9.854835510E0
1.067272174E1,3.519583941E-1,-1.343188167E0,9.857229233E0
1.068472021E1,3.711125851E-1,-1.340793848E0,9.826104164E0
1.069671874E1,3.950553536E-1,-1.331216812E0,9.783006668E0
1.070871667E1,3.687183261E-1,-1.312062621E0,9.751881599E0
1.072071460E1,4.118152559E-1,-1.302485466E0,9.756669998E0
1.073271247E1,4.118152559E-1,-1.300091267E0,9.787795067E0
1.074471000E1,4.333637357E-1,-1.309668303E0,9.814132690E0
1.075670847E1,4.046324492E-1,-1.316851139E0,9.833286285E0
1.076870693E1,4.046324492E-1,-1.326428294E0,9.792584419E0
1.078070670E1,4.261809289E-1,-1.283331275E0,9.768641472E0
1.079270573E1,4.333637357E-1,-1.261782765E0,9.751881599E0
1.080270576E1,3.998439014E-1,-1.266571403E0,9.756669998E0
1.081470535E1,3.495641351E-1,-1.280937076E0,9.814132690E0
1.082670532E1,3.543526828E-1,-1.302485466E0,9.804554939E0
1.083870428E1,3.902668059E-1,-1.297696948E0,9.792584419E0
1.085070361E1,3.926610649E-1,-1.312062621E0,9.759063721E0
1.086270338E1,3.759011328E-1,-1.276148438E0,9.720755577E0
1.087470278E1,4.166038036E-1,-1.316851139E0,9.771035194E0
1.088670191E1,4.142095447E-1,-1.386285067E0,9.876383781E0
1.089870107E1,4.285751879E-1,-1.374313712E0,9.938634872E0
1.091069967E1,4.237866402E-1,-1.343188167E0,9.871595383E0
1.092269754E1,4.597007632E-1,-1.259388566E0,9.718361855E0
1.093469607E1,4.118152559E-1,-1.259388566E0,9.620196342E0
1.094669464E1,4.142095447E-1,-1.292908430E0,9.670475960E0
1.095869310E1,4.070267081E-1,-1.331216812E0,9.811738014E0
1.097069193E1,3.974496126E-1,-1.340793848E0,9.914691925E0
1.098269123E1,4.046324492E-1,-1.297696948E0,9.883566856E0
1.099468969E1,4.022381604E-1,-1.237840056E0,9.794978142E0
1.100668813E1,3.998439014E-1,-1.261782765E0,9.739910126E0
1.101868659E1,4.094209969E-1,-1.319245458E0,9.730332375E0
1.103068506E1,4.261809289E-1,-1.302485466E0,9.737515450E0
1.104268322E1,4.166038036E-1,-1.256994247E0,9.773429871E0
1.105468169E1,4.022381604E-1,-1.252205729E0,9.842864037E0
1.106668078E1,4.237866402E-1,-1.295302629E0,9.876383781E0
1.107867918E1,4.237866402E-1,-1.297696948E0,9.840469360E0
1.109067805E1,4.189980924E-1,-1.268965602E0,9.768641472E0
1.110267618E1,4.142095447E-1,-1.233051538E0,9.725543976E0
1.111467471E1,4.022381604E-1,-1.230657220E0,9.706390381E0
1.112667251E1,3.830839694E-1,-1.235445857E0,9.718361855E0
1.113867097E1,4.189980924E-1,-1.223474383E0,9.802161217E0
1.115066904E1,4.453351200E-1,-1.230657220E0,9.850046158E0
1.116266807E1,4.094209969E-1,-1.235445857E0,9.847652435E0
1.117466647E1,4.381522834E-1,-1.237840056E0,9.766246796E0
1.118666590E1,4.644893110E-1,-1.223474383E0,9.725543976E0
1.119866460E1,4.501236677E-1,-1.261782765E0,9.720755577E0
1.121066313E1,4.525179267E-1,-1.302485466E0,9.787795067E0
1.122266203E1,4.046324492E-1,-1.324033976E0,9.869200706E0
1.123466062E1,4.022381604E-1,-1.333611012E0,9.924268723E0
1.124665832E1,4.333637357E-1,-1.290514112E0,9.878777504E0
1.125865682E1,4.597007632E-1,-1.216291547E0,9.785401344E0
1.127065548E1,4.716721475E-1,-1.211503029E0,9.692024231E0
1.128265258E1,4.405465722E-1,-1.197137356E0,9.675264359E0
1.129465068E1,4.525179267E-1,-1.201925993E0,9.718361855E0
1.130664894E1,4.812492430E-1,-1.216291547E0,9.821314812E0
1.131864741E1,5.004034638E-1,-1.245022893E0,9.881172180E0
1.133064630E1,4.764606953E-1,-1.225868702E0,9.866806030E0
1.134264570E1,4.333637357E-1,-1.218685865E0,9.816526413E0
1.135464460E1,4.453351200E-1,-1.201925993E0,9.742303848E0
1.136664333E1,4.644893110E-1,-1.204320192E0,9.699207306E0
1.137864180E1,4.908263385E-1,-1.199531674E0,9.699207306E0
1.139063970E1,4.692778587E-1,-1.189954638E0,9.792584419E0
1.140263846E1,4.525179267E-1,-1.221080184E0,9.864412308E0
1.141463693E1,4.764606953E-1,-1.209108829E0,9.850046158E0
1.142663539E1,4.716721475E-1,-1.206714511E0,9.842864037E0
1.143863379E1,4.764606953E-1,-1.170800328E0,9.759063721E0
1.145063232E1,5.099805593E-1,-1.156434774E0,9.725543976E0
1.146262992E1,5.075862408E-1,-1.151646137E0,9.701601982E0
1.147462838E1,5.267404318E-1,-1.154040456E0,9.739910126E0
1.148662678E1,4.764606953E-1,-1.206714511E0,9.780612946E0
1.149862525E1,5.147690773E-1,-1.204320192E0,9.811738014E0
1.151062328E1,5.171633363E-1,-1.192348838E0,9.838075638E0
1.152262275E1,4.980091453E-1,-1.185166001E0,9.823709488E0
1.153462121E1,4.860377908E-1,-1.235445857E0,9.792584419E0
1.154661968E1,4.860377908E-1,-1.211503029E0,9.744698524E0
1.155861811E1,5.099805593E-1,-1.177983165E0,9.739910126E0
1.157061700E1,5.171633363E-1,-1.156434774E0,9.773429871E0
1.158261547E1,5.578660369E-1,-1.213897347E0,9.859623909E0
1.159461387E1,5.339232683E-1,-1.283331275E0,9.873989105E0
1.160661233E1,5.339232683E-1,-1.264177084E0,9.850046158E0
1.161861063E1,5.267404318E-1,-1.268965602E0,9.766246796E0
1.163060930E1,5.530774593E-1,-1.221080184E0,9.773429871E0
1.164260789E1,5.171633363E-1,-1.223474383E0,9.768641472E0
1.165460655E1,5.027977228E-1,-1.199531674E0,9.792584419E0
1.166660512E1,4.932205975E-1,-1.144463301E0,9.763853073E0
1.167860405E1,4.644893110E-1,-1.137280583E0,9.768641472E0
1.169060251E1,4.668835998E-1,-1.082212210E0,9.775823593E0
1.170260008E1,4.620950520E-1,-1.113337755E0,9.814132690E0
1.171459854E1,4.836435020E-1,-1.142069101E0,9.816526413E0
1.172659734E1,4.980091453E-1,-1.163617611E0,9.804554939E0
1.173859581E1,4.812492430E-1,-1.161223292E0,9.739910126E0
1.175059377E1,4.980091453E-1,-1.146857619E0,9.763853073E0
1.176259340E1,5.243461728E-1,-1.156434774E0,9.780612946E0
1.177459194E1,5.171633363E-1,-1.161223292E0,9.806949615E0
1.178659007E1,5.099805593E-1,-1.154040456E0,9.806949615E0
1.179858846E1,4.788549542E-1,-1.122914910E0,9.794978142E0
1.181058793E1,4.716721475E-1,-1.106154919E0,9.794978142E0
1.182258520E1,4.716721475E-1,-1.125309110E0,9.787795067E0
1.183458366E1,4.429408312E-1,-1.103760719E0,9.794978142E0
1.184658222E1,4.644893110E-1,-1.125309110E0,9.790189743E0
1.185858069E1,4.836435020E-1,-1.101366401E0,9.806949615E0
1.187057899E1,5.051919818E-1,-1.137280583E0,9.806949615E0
1.188257878E1,5.411061049E-1,-1.120520592E0,9.804554939E0
1.189457805E1,5.411061049E-1,-1.132491946E0,9.790189743E0
1.190657761E1,5.291347504E-1,-1.127703428E0,9.783006668E0
1.191857741E1,5.363175869E-1,-1.098972082E0,9.794978142E0
1.193057657E1,5.411061049E-1,-1.091789365E0,9.778218269E0
1.194257630E1,5.458946824E-1,-1.098972082E0,9.787795067E0
1.195457590E1,4.980091453E-1,-1.087000728E0,9.787795067E0
1.196657526E1,4.884320498E-1,-1.108549237E0,9.783006668E0
1.197857440E1,4.812492430E-1,-1.079817891E0,9.809344292E0
1.199057383E1,4.812492430E-1,-1.094183564E0,9.806949615E0
1.200257169E1,5.004034638E-1,-1.079817891E0,9.818921089E0
1.201457016E1,5.267404318E-1,-1.115732074E0,9.806949615E0
1.202656862E1,5.602602959E-1,-1.108549237E0,9.780612946E0
1.203856715E1,5.865973234E-1,-1.101366401E0,9.775823593E0
1.205056562E1,5.602602959E-1,-1.067846537E0,9.778218269E0
1.206256458E1,5.267404318E-1,-1.055875182E0,9.775823593E0
1.207456305E1,5.171633363E-1,-1.051086664E0,9.778218269E0
1.208656151E1,4.884320498E-1,-1.027143836E0,9.802161217E0
1.209855998E1,4.860377908E-1,-1.048692346E0,9.783006668E0
1.211055838E1,4.932205975E-1,-1.019961119E0,9.806949615E0
1.212255761E1,5.004034638E-1,-1.029538155E0,9.799766541E0
1.213455624E1,4.788549542E-1,-1.024749637E0,9.802161217E0
1.214655471E1,4.429408312E-1,-1.034326673E0,9.802161217E0
1.215855310E1,4.716721475E-1,-1.024749637E0,9.797372818E0
1.217055157E1,5.051919818E-1,-1.007989645E0,9.802161217E0
1.218254877E1,5.027977228E-1,-1.019961119E0,9.787795067E0
1.219454713E1,5.099805593E-1,-1.041509509E0,9.809344292E0
1.220654533E1,5.339232683E-1,-1.060663700E0,9.802161217E0
1.221854336E1,5.363175869E-1,-1.051086664E0,9.830892563E0
1.223054183E1,5.506832004E-1,-1.046298146E0,9.847652435E0
1.224254122E1,5.626545548E-1,-1.039115310E0,9.814132690E0
1.225453969E1,5.889915824E-1,-1.012778282E0,9.806949615E0
1.226653836E1,6.225114465E-1,-1.007989645E0,9.783006668E0
1.227853725E1,5.794144869E-1,-1.003201127E0,9.766246796E0
1.229053579E1,5.650488734E-1,-1.010383964E0,9.742303848E0
1.230253372E1,5.291347504E-1,-1.019961119E0,9.768641472E0
1.231453211E1,5.004034638E-1,-1.003201127E0,9.804554939E0
1.232653058E1,4.836435020E-1,-9.864411950E-1,9.811738014E0
1.233852931E1,4.668835998E-1,-9.696813226E-1,9.763853073E0
1.235052797E1,4.956148863E-1,-9.792584181E-1,9.814132690E0
1.236252627E1,4.956148863E-1,-1.005595446E0,9.900326729E0
1.237452493E1,5.291347504E-1,-1.005595446E0,9.893143654E0
1.238652360E1,5.315290093E-1,-9.744698405E-1,9.790189743E0
1.239852199E1,5.099805593E-1,-9.337671995E-1,9.699207306E0
1.241052039E1,5.051919818E-1,-9.289786220E-1,9.703995705E0
1.242251969E1,5.075862408E-1,-9.505270720E-1,9.749486923E0
1.243451815E1,5.051919818E-1,-9.577099085E-1,9.852440834E0
1.244651642E1,4.884320498E-1,-9.553156495E-1,9.864412308E0
1.245851495E1,5.195576549E-1,-9.313728809E-1,9.828497887E0
1.247051298E1,5.650488734E-1,-9.217957854E-1,9.766246796E0
1.248251138E1,5.554717779E-1,-9.648927450E-1,9.737515450E0
1.249450985E1,5.435003638E-1,-9.624984860E-1,9.737515450E0
1.250650818E1,5.626545548E-1,-9.577099085E-1,9.785401344E0
1.251850654E1,5.650488734E-1,-9.984126091E-1,9.838075638E0
1.253050544E1,5.698373914E-1,-1.022355318E0,9.830892563E0
1.254250310E1,5.698373914E-1,-1.039115310E0,9.857229233E0
1.255450114E1,5.770202279E-1,-1.024749637E0,9.873989105E0
1.256650000E1,5.746259689E-1,-9.792584181E-1,9.818921089E0
1.257849840E1,5.578660369E-1,-9.577099085E-1,9.763853073E0
1.259049686E1,5.291347504E-1,-9.648927450E-1,9.747093201E0
1.260249623E1,5.339232683E-1,-9.936240315E-1,9.720755577E0
1.261449519E1,5.626545548E-1,-9.553156495E-1,9.804554939E0
1.262649359E1,5.794144869E-1,-9.696813226E-1,9.852440834E0
1.263849209E1,5.937801600E-1,-9.912297726E-1,9.854835510E0
1.265049012E1,5.578660369E-1,-9.864411950E-1,9.838075638E0
1.266248875E1,5.099805593E-1,-9.433442950E-1,9.802161217E0
1.267448715E1,5.722316504E-1,-9.313728809E-1,9.768641472E0
1.268648538E1,5.889915824E-1,-9.265843630E-1,9.747093201E0
1.269848392E1,5.889915824E-1,-9.744698405E-1,9.751881599E0
1.271048288E1,5.913859010E-1,-9.888355136E-1,9.759063721E0
1.272248028E1,5.650488734E-1,-9.936240315E-1,9.838075638E0
1.273447868E1,5.387118459E-1,-1.012778282E0,9.847652435E0
1.274647751E1,4.620950520E-1,-9.888355136E-1,9.862017632E0
1.275847617E1,4.764606953E-1,-9.720755816E-1,9.826104164E0
1.277047483E1,5.291347504E-1,-9.672870040E-1,9.773429871E0
1.278247436E1,5.889915824E-1,-9.816526771E-1,9.773429871E0
1.279447309E1,6.225114465E-1,-9.816526771E-1,9.778218269E0
1.280647162E1,6.847625971E-1,-1.012778282E0,9.787795067E0
1.281847009E1,6.608198285E-1,-1.007989645E0,9.785401344E0
1.283046849E1,6.799740195E-1,-9.696813226E-1,9.780612946E0
1.284246649E1,6.751855016E-1,-9.840469360E-1,9.773429871E0
1.285446495E1,5.746259689E-1,-9.648927450E-1,9.775823593E0
1.286646352E1,5.027977228E-1,-9.457385540E-1,9.818921089E0
1.287846198E1,4.788549542E-1,-9.337671995E-1,9.814132690E0
1.289046038E1,4.740664065E-1,-9.385557175E-1,9.787795067E0
1.290245848E1,4.764606953E-1,-9.553156495E-1,9.759063721E0
1.291445694E1,5.243461728E-1,-9.720755816E-1,9.768641472E0
1.292645571E1,5.411061049E-1,-9.577099085E-1,9.783006668E0
1.293845410E1,5.506832004E-1,-9.194015265E-1,9.773429871E0
1.295045264E1,5.722316504E-1,-9.648927450E-1,9.802161217E0
1.296045274E1,5.387118459E-1,-9.936240315E-1,9.804554939E0
1.297245097E1,5.195576549E-1,-1.010383964E0,9.809344292E0
1.298444943E1,5.458946824E-1,-1.015172482E0,9.809344292E0
1.299644856E1,5.435003638E-1,-9.960182905E-1,9.790189743E0
1.300844783E1,5.506832004E-1,-1.000806928E0,9.797372818E0
1.302044662E1,5.291347504E-1,-1.027143836E0,9.809344292E0
1.303244605E1,5.099805593E-1,-1.029538155E0,9.840469360E0
1.304444498E1,4.549122155E-1,-1.012778282E0,9.835680962E0
1.305644358E1,4.381522834E-1,-9.457385540E-1,9.826104164E0
1.306844205E1,4.620950520E-1,-9.409499764E-1,9.804554939E0
1.308043971E1,5.027977228E-1,-9.553156495E-1,9.749486923E0
1.309243818E1,4.692778587E-1,-9.768640995E-1,9.744698524E0
1.310443641E1,4.956148863E-1,-9.864411950E-1,9.785401344E0
1.311643494E1,5.147690773E-1,-9.816526771E-1,9.821314812E0
1.312843344E1,5.123748183E-1,-9.648927450E-1,9.842864037E0
1.314043264E1,5.004034638E-1,-9.984126091E-1,9.818921089E0
1.315243110E1,5.243461728E-1,-1.022355318E0,9.763853073E0
1.316442980E1,5.626545548E-1,-1.029538155E0,9.754275322E0
1.317599468E1,5.674431324E-1,-1.007989645E0,9.771035194E0
1.318799362E1,5.435003638E-1,-1.048692346E0,9.814132690E0
1.319999208E1,4.932205975E-1,-1.087000728E0,9.850046158E0
1.321198975E1,5.219519138E-1,-1.103760719E0,9.866806030E0
1.322398821E1,5.315290093E-1,-1.079817891E0,9.847652435E0
1.323598661E1,5.482889414E-1,-1.063058019E0,9.811738014E0
1.324798457E1,5.842030644E-1,-1.046298146E0,9.768641472E0
1.325998304E1,5.506832004E-1,-1.060663700E0,9.761458397E0
1.327198147E1,4.980091453E-1,-1.041509509E0,9.771035194E0
1.328397987E1,4.453351200E-1,-1.036720991E0,9.840469360E0
1.329597840E1,4.381522834E-1,-1.019961119E0,9.835680962E0
1.330797687E1,4.070267081E-1,-1.022355318E0,9.823709488E0
1.331997533E1,3.926610649E-1,-1.010383964E0,9.799766541E0
1.333197463E1,4.429408312E-1,-1.012778282E0,9.792584419E0
1.334397309E1,4.668835998E-1,-1.003201127E0,9.763853073E0
1.335597156E1,4.597007632E-1,-9.816526771E-1,9.747093201E0
1.336797012E1,4.644893110E-1,-9.816526771E-1,9.751881599E0
1.337996879E1,5.004034638E-1,-1.003201127E0,9.787795067E0
1.339196745E1,5.075862408E-1,-1.005595446E0,9.783006668E0
1.340396608E1,4.788549542E-1,-1.003201127E0,9.823709488E0
1.341596474E1,5.099805593E-1,-1.000806928E0,9.766246796E0
1.342796337E1,5.051919818E-1,-1.043903828E0,9.742303848E0
1.343996177E1,4.429408312E-1,-1.072635174E0,9.771035194E0
1.345196030E1,4.022381604E-1,-1.072635174E0,9.821314812E0
1.346395887E1,3.399870098E-1,-1.091789365E0,9.840469360E0
1.347595733E1,3.950553536E-1,-1.101366401E0,9.852440834E0
1.348795573E1,4.309694767E-1,-1.084606528E0,9.852440834E0
1.349995420E1,4.716721475E-1,-1.087000728E0,9.814132690E0
1.351195243E1,4.812492430E-1,-1.082212210E0,9.778218269E0
1.352395089E1,5.099805593E-1,-1.063058019E0,9.768641472E0
1.353594936E1,4.549122155E-1,-1.065452337E0,9.775823593E0
1.354794782E1,4.237866402E-1,-1.065452337E0,9.794978142E0
1.355994629E1,4.022381604E-1,-1.098972082E0,9.840469360E0
1.357194532E1,4.070267081E-1,-1.072635174E0,9.833286285E0
1.358394378E1,3.878725171E-1,-1.043903828E0,9.816526413E0
1.359594218E1,3.735068738E-1,-1.055875182E0,9.747093201E0
1.360794065E1,3.495641351E-1,-1.079817891E0,9.751881599E0
1.361993918E1,3.351984620E-1,-1.082212210E0,9.778218269E0
1.363193755E1,4.022381604E-1,-1.096577883E0,9.823709488E0
1.364393594E1,4.309694767E-1,-1.101366401E0,9.845257759E0
1.365593441E1,4.261809289E-1,-1.087000728E0,9.845257759E0
1.366793287E1,4.046324492E-1,-1.106154919E0,9.797372818E0
1.367993134E1,4.094209969E-1,-1.127703428E0,9.761458397E0
1.369192950E1,4.309694767E-1,-1.120520592E0,9.761458397E0
1.370392827E1,4.070267081E-1,-1.139674783E0,9.799766541E0
1.371592680E1,3.902668059E-1,-1.149251938E0,9.842864037E0
1.372792527E1,3.998439014E-1,-1.163617611E0,9.857229233E0
1.373992373E1,4.357580245E-1,-1.182771802E0,9.826104164E0
1.375192170E1,4.453351200E-1,-1.180377483E0,9.821314812E0
1.376391986E1,4.668835998E-1,-1.144463301E0,9.773429871E0
1.377591839E1,4.453351200E-1,-1.139674783E0,9.730332375E0
1.378791712E1,4.166038036E-1,-1.149251938E0,9.766246796E0
1.379991572E1,3.854782581E-1,-1.146857619E0,9.799766541E0
1.381191388E1,3.950553536E-1,-1.161223292E0,9.840469360E0
1.382391364E1,3.471698463E-1,-1.151646137E0,9.811738014E0
1.383591224E1,3.016786277E-1,-1.127703428E0,9.806949615E0
1.384791064E1,2.729473412E-1,-1.134886265E0,9.799766541E0
1.385990910E1,2.681587934E-1,-1.168406129E0,9.785401344E0
1.387190810E1,2.585816681E-1,-1.166011810E0,9.806949615E0
1.388390553E1,2.921015322E-1,-1.163617611E0,9.816526413E0
1.389590400E1,3.064671755E-1,-1.156434774E0,9.847652435E0
1.390790240E1,2.849186957E-1,-1.158828974E0,9.821314812E0
1.391990086E1,3.160442710E-1,-1.177983165E0,9.809344292E0
1.393189976E1,3.567469418E-1,-1.180377483E0,9.780612946E0
1.394389823E1,4.094209969E-1,-1.139674783E0,9.751881599E0
1.395589662E1,4.022381604E-1,-1.115732074E0,9.771035194E0
1.396789512E1,3.184385598E-1,-1.142069101E0,9.783006668E0
1.397989359E1,2.394274771E-1,-1.168406129E0,9.814132690E0
1.399189115E1,2.202732861E-1,-1.161223292E0,9.830892563E0
1.400388988E1,2.106961906E-1,-1.173194647E0,9.840469360E0
1.401588851E1,2.322446555E-1,-1.173194647E0,9.818921089E0
1.402788751E1,2.274561077E-1,-1.144463301E0,9.823709488E0
1.403988691E1,2.968900800E-1,-1.132491946E0,9.790189743E0
1.404988750E1,3.112557232E-1,-1.163617611E0,9.785401344E0
1.406188704E1,3.136500120E-1,-1.134886265E0,9.783006668E0
1.407388686E1,2.825244367E-1,-1.125309110E0,9.785401344E0
1.408588660E1,2.346389294E-1,-1.163617611E0,9.792584419E0
1.409788619E1,2.011190802E-1,-1.166011810E0,9.830892563E0
1.410988479E1,1.915419847E-1,-1.194743156E0,9.847652435E0
1.412188349E1,2.537931204E-1,-1.163617611E0,9.828497887E0
1.413388252E1,2.968900800E-1,-1.166011810E0,9.804554939E0
1.414588115E1,3.064671755E-1,-1.158828974E0,9.794978142E0
1.415787955E1,2.705530524E-1,-1.194743156E0,9.775823593E0
1.416987785E1,2.418217510E-1,-1.187560320E0,9.797372818E0
1.418187675E1,2.370332032E-1,-1.216291547E0,9.823709488E0
1.419387521E1,2.322446555E-1,-1.225868702E0,9.840469360E0
1.420587378E1,2.322446555E-1,-1.199531674E0,9.847652435E0
1.421787231E1,2.537931204E-1,-1.228263021E0,9.835680962E0
1.422987161E1,2.394274771E-1,-1.221080184E0,9.830892563E0
1.424187007E1,2.298503816E-1,-1.209108829E0,9.811738014E0
1.425386847E1,2.561874092E-1,-1.199531674E0,9.790189743E0
1.426586690E1,3.160442710E-1,-1.170800328E0,9.785401344E0
1.427786537E1,3.615354896E-1,-1.166011810E0,9.756669998E0
1.428986267E1,3.375927508E-1,-1.149251938E0,9.759063721E0
1.430186116E1,3.591412306E-1,-1.180377483E0,9.778218269E0
1.431385963E1,3.232271075E-1,-1.201925993E0,9.749486923E0
1.432585813E1,2.801301479E-1,-1.197137356E0,9.756669998E0
1.433785659E1,2.681587934E-1,-1.221080184E0,9.804554939E0
1.434985536E1,2.585816681E-1,-1.240234375E0,9.785401344E0
1.436185372E1,2.178790122E-1,-1.259388566E0,9.804554939E0
1.437385219E1,2.035133541E-1,-1.247417212E0,9.826104164E0
1.438585072E1,2.609759569E-1,-1.256994247E0,9.828497887E0
1.439784918E1,2.968900800E-1,-1.240234375E0,9.809344292E0
1.440984761E1,2.729473412E-1,-1.261782765E0,9.783006668E0
1.442184701E1,2.849186957E-1,-1.249811411E0,9.787795067E0
1.443384548E1,2.873129845E-1,-1.235445857E0,9.773429871E0
1.444584421E1,3.351984620E-1,-1.249811411E0,9.780612946E0
1.445784267E1,3.256213665E-1,-1.259388566E0,9.794978142E0
1.446984161E1,2.921015322E-1,-1.271359921E0,9.794978142E0
1.448183900E1,2.609759569E-1,-1.321639657E0,9.833286285E0
1.449383754E1,2.083019018E-1,-1.355159521E0,9.852440834E0
1.450583593E1,1.939362586E-1,-1.359948039E0,9.862017632E0
1.451783453E1,2.418217510E-1,-1.352765322E0,9.854835510E0
1.452983269E1,2.609759569E-1,-1.340793848E0,9.823709488E0
1.454183156E1,2.681587934E-1,-1.309668303E0,9.823709488E0
1.455383022E1,3.136500120E-1,-1.300091267E0,9.785401344E0
1.456582862E1,3.591412306E-1,-1.261782765E0,9.744698524E0
1.457782708E1,3.926610649E-1,-1.233051538E0,9.725543976E0
1.458982648E1,4.070267081E-1,-1.237840056E0,9.708784103E0
1.460182494E1,3.639297783E-1,-1.278542757E0,9.742303848E0
1.461382334E1,2.777358890E-1,-1.326428294E0,9.771035194E0
1.462582294E1,2.394274771E-1,-1.376708031E0,9.821314812E0
1.463782147E1,1.891477108E-1,-1.407833576E0,9.838075638E0
1.464981984E1,2.274561077E-1,-1.393467903E0,9.857229233E0
1.466181844E1,2.609759569E-1,-1.369525194E0,9.842864037E0
1.467381683E1,2.633702159E-1,-1.376708031E0,9.811738014E0
1.468581373E1,2.035133541E-1,-1.424593568E0,9.806949615E0
1.469781220E1,2.083019018E-1,-1.379102230E0,9.811738014E0
1.470981003E1,2.585816681E-1,-1.326428294E0,9.821314812E0
1.472180829E1,2.992843390E-1,-1.273754239E0,9.778218269E0
1.473380676E1,3.208328187E-1,-1.266571403E0,9.766246796E0
1.474580566E1,2.633702159E-1,-1.331216812E0,9.732727051E0
1.475780412E1,1.987248063E-1,-1.338399649E0,9.778218269E0
1.476980319E1,2.274561077E-1,-1.343188167E0,9.787795067E0
1.478180165E1,3.040728867E-1,-1.326428294E0,9.785401344E0
1.479380018E1,2.753416002E-1,-1.309668303E0,9.778218269E0
1.480579872E1,2.178790122E-1,-1.314456820E0,9.766246796E0
1.481779718E1,2.274561077E-1,-1.364736676E0,9.775823593E0
1.482979578E1,2.825244367E-1,-1.369525194E0,9.763853073E0
1.484179424E1,2.921015322E-1,-1.319245458E0,9.783006668E0
1.485379271E1,2.777358890E-1,-1.319245458E0,9.773429871E0
1.486579117E1,2.657645047E-1,-1.371919513E0,9.792584419E0
1.487778957E1,2.154847383E-1,-1.455719113E0,9.811738014E0
1.488978764E1,2.394274771E-1,-1.453324795E0,9.838075638E0
1.490178620E1,2.250618339E-1,-1.446141958E0,9.852440834E0
1.491378486E1,2.490045726E-1,-1.419804931E0,9.845257759E0
1.492578346E1,2.921015322E-1,-1.419804931E0,9.816526413E0
1.493778212E1,2.705530524E-1,-1.422199249E0,9.797372818E0
1.494978102E1,2.466102988E-1,-1.446141958E0,9.790189743E0
1.496178018E1,2.657645047E-1,-1.455719113E0,9.771035194E0
1.497377865E1,2.633702159E-1,-1.398256540E0,9.792584419E0
1.498577705E1,2.705530524E-1,-1.355159521E0,9.797372818E0
1.499777551E1,2.681587934E-1,-1.362342358E0,9.804554939E0
1.500977421E1,2.178790122E-1,-1.417410731E0,9.780612946E0
1.502177171E1,1.963305324E-1,-1.395862222E0,9.794978142E0
1.503377011E1,2.083019018E-1,-1.331216812E0,9.790189743E0
1.504576921E1,2.250618339E-1,-1.307274103E0,9.773429871E0
1.505776774E1,1.843591630E-1,-1.355159521E0,9.780612946E0
1.506976520E1,1.675992310E-1,-1.393467903E0,9.792584419E0
1.508176403E1,2.011190802E-1,-1.388679385E0,9.816526413E0
1.509376250E1,2.226675600E-1,-1.355159521E0,9.826104164E0
1.510576050E1,2.322446555E-1,-1.328822494E0,9.787795067E0
1.511775919E1,1.891477108E-1,-1.321639657E0,9.818921089E0
1.512975866E1,-1.915419847E-2,-1.369525194E0,1.024510193E1
1.514175786E1,8.140534163E-2,-1.824437380E0,9.735121727E0
1.515375712E1,5.722316504E-1,-1.628106833E0,1.002961731E1
1.516575628E1,-6.464541703E-2,-1.527547359E0,9.888355255E0
1.517775531E1,-1.173194647E-1,-1.300091267E0,1.023791885E1
1.518975445E1,1.843591630E-1,-1.680780888E0,9.826104164E0
1.520175298E1,4.668835998E-1,-1.632895470E0,9.833286285E0
1.521375151E1,2.250618339E-1,-1.424593568E0,9.845257759E0
1.522575004E1,1.891477108E-1,-1.221080184E0,9.862017632E0
1.523774844E1,5.075862408E-1,-1.446141958E0,9.708784103E0
1.524974737E1,6.201171875E-1,-1.424593568E0,9.557945251E0
1.526174657E1,4.022381604E-1,-1.005595446E0,9.670475960E0
1.527374504E1,2.083019018E-1,-9.050358534E-1,9.543579102E0
1.528574450E1,5.411061049E-1,-8.954587579E-1,9.505270958E0
1.529774297E1,6.033572555E-1,-9.720755816E-1,9.414288521E0
1.530974050E1,3.950553536E-1,-8.308133483E-1,9.553156853E0
1.532173823E1,1.101366431E-1,-9.194015265E-1,9.648927689E0
1.533373669E1,1.915419847E-1,-1.252205729E0,9.711178780E0
1.534573402E1,2.202732861E-1,-1.429382086E0,9.821314812E0
1.535773249E1,1.268965602E-1,-1.331216812E0,9.991309166E0
1.536973149E1,1.652049571E-1,-1.403045058E0,1.004637718E1
1.538173002E1,3.064671755E-1,-1.728666425E0,9.972154617E0
1.539372842E1,3.256213665E-1,-1.822043180E0,9.991309166E0
1.540572665E1,1.340793967E-1,-1.661626697E0,9.979337692E0
1.541772512E1,2.968900800E-1,-1.448536277E0,9.921875000E0
1.542972265E1,3.902668059E-1,-1.482056141E0,9.859623909E0
1.544172105E1,4.213923812E-1,-1.453324795E0,9.787795067E0
1.545371951E1,3.184385598E-1,-1.316851139E0,9.785401344E0
1.546571828E1,3.375927508E-1,-1.173194647E0,9.749486923E0
1.547771681E1,3.759011328E-1,-1.075029373E0,9.586676598E0
1.548971617E1,3.639297783E-1,-1.036720991E0,9.584281921E0
1.550171437E1,2.873129845E-1,-9.720755816E-1,9.672870636E0
1.551371320E1,3.112557232E-1,-1.046298146E0,9.747093201E0
1.552571173E1,3.615354896E-1,-1.163617611E0,9.739910126E0
1.553771040E1,2.849186957E-1,-1.242628574E0,9.694418907E0
1.554970903E1,2.921015322E-1,-1.256994247E0,9.718361855E0
1.556170796E1,2.944957912E-1,-1.355159521E0,9.761458397E0
1.557370625E1,3.447755575E-1,-1.510787368E0,9.854835510E0
1.558570485E1,2.968900800E-1,-1.573038578E0,9.979337692E0
1.559770325E1,3.351984620E-1,-1.520364523E0,1.003680038E1
1.560970078E1,3.495641351E-1,-1.494027495E0,9.988914490E0
1.562169924E1,3.447755575E-1,-1.460507631E0,9.893143654E0
1.563369778E1,3.256213665E-1,-1.398256540E0,9.778218269E0
1.564569621E1,3.112557232E-1,-1.328822494E0,9.727938652E0
1.565769461E1,3.328042030E-1,-1.216291547E0,9.742303848E0
1.566969400E1,3.112557232E-1,-1.170800328E0,9.742303848E0
1.568169247E1,2.777358890E-1,-1.120520592E0,9.747093201E0
1.569369094E1,2.825244367E-1,-1.079817891E0,9.735121727E0
1.570568933E1,2.921015322E-1,-1.087000728E0,9.706390381E0
1.571768786E1,2.921015322E-1,-1.079817891E0,9.692024231E0
1.572968640E1,3.016786277E-1,-1.106154919E0,9.715967178E0
1.574168486E1,3.399870098E-1,-1.168406129E0,9.756669998E0
1.575368326E1,3.328042030E-1,-1.228263021E0,9.780612946E0
1.576568176E1,3.639297783E-1,-1.302485466E0,9.826104164E0
1.577768022E1,3.615354896E-1,-1.374313712E0,9.873989105E0
1.578967776E1,3.687183261E-1,-1.376708031E0,9.885960579E0
1.580167592E1,3.160442710E-1,-1.367130876E0,9.818921089E0
1.581367438E1,3.208328187E-1,-1.350371003E0,9.833286285E0
1.582567285E1,3.663240373E-1,-1.338399649E0,9.845257759E0
1.583767132E1,3.519583941E-1,-1.345582485E0,9.873989105E0
1.584967071E1,3.471698463E-1,-1.297696948E0,9.866806030E0
1.586166941E1,3.615354896E-1,-1.233051538E0,9.794978142E0
1.587366788E1,3.447755575E-1,-1.110943556E0,9.725543976E0
1.588566641E1,3.447755575E-1,-1.079817891E0,9.699207306E0
1.589766487E1,3.447755575E-1,-1.108549237E0,9.689630508E0
1.590966234E1,3.256213665E-1,-1.110943556E0,9.744698524E0
1.592166160E1,3.519583941E-1,-1.122914910E0,9.797372818E0
1.593366017E1,3.639297783E-1,-1.137280583E0,9.826104164E0
1.594565936E1,3.399870098E-1,-1.189954638E0,9.828497887E0
1.595765803E1,3.854782581E-1,-1.247417212E0,9.785401344E0
1.596965712E1,3.974496126E-1,-1.247417212E0,9.778218269E0
1.598165505E1,3.735068738E-1,-1.237840056E0,9.715967178E0
1.599365362E1,3.759011328E-1,-1.218685865E0,9.761458397E0
1.600565212E1,3.782954216E-1,-1.245022893E0,9.835680962E0
1.601765051E1,3.711125851E-1,-1.271359921E0,9.960183144E0
1.602964948E1,3.782954216E-1,-1.266571403E0,9.917086601E0
1.604164794E1,4.142095447E-1,-1.194743156E0,9.850046158E0
1.605364648E1,4.046324492E-1,-1.163617611E0,9.711178780E0
1.606564431E1,4.142095447E-1,-1.144463301E0,9.670475960E0
1.607764277E1,4.357580245E-1,-1.177983165E0,9.756669998E0
1.608964124E1,4.166038036E-1,-1.192348838E0,9.859623909E0
1.610163970E1,3.974496126E-1,-1.204320192E0,9.854835510E0
1.611363810E1,4.237866402E-1,-1.175588965E0,9.828497887E0
1.612563656E1,4.166038036E-1,-1.101366401E0,9.725543976E0
1.613763510E1,4.501236677E-1,-1.127703428E0,9.727938652E0
1.614963273E1,4.333637357E-1,-1.151646137E0,9.701601982E0
1.616163139E1,4.070267081E-1,-1.194743156E0,9.773429871E0
1.617363059E1,4.261809289E-1,-1.189954638E0,9.895537376E0
1.618563012E1,4.429408312E-1,-1.166011810E0,9.929058075E0
1.619762985E1,4.573064744E-1,-1.122914910E0,9.821314812E0
1.620962968E1,4.477293789E-1,-1.142069101E0,9.735121727E0
1.622163061E1,4.166038036E-1,-1.156434774E0,9.680052757E0
1.623363008E1,4.261809289E-1,-1.142069101E0,9.680052757E0
1.624562958E1,4.573064744E-1,-1.127703428E0,9.739910126E0
1.625762898E1,4.213923812E-1,-1.142069101E0,9.866806030E0
1.626762901E1,4.309694767E-1,-1.166011810E0,9.881172180E0
1.627962810E1,4.046324492E-1,-1.168406129E0,9.854835510E0
1.629162594E1,4.357580245E-1,-1.139674783E0,9.821314812E0
1.630362464E1,4.620950520E-1,-1.103760719E0,9.809344292E0
1.631562303E1,4.597007632E-1,-1.113337755E0,9.778218269E0
1.632762080E1,4.477293789E-1,-1.132491946E0,9.756669998E0
1.633961926E1,4.620950520E-1,-1.144463301E0,9.792584419E0
1.635161730E1,5.123748183E-1,-1.189954638E0,9.766246796E0
1.636361629E1,6.799740195E-1,-1.185166001E0,9.821314812E0
1.637561476E1,5.865973234E-1,-1.173194647E0,9.816526413E0
1.638561496E1,5.435003638E-1,-1.213897347E0,9.816526413E0
1.639761349E1,6.775797606E-1,-1.316851139E0,9.840469360E0
1.640961272E1,6.584255695E-1,-1.295302629E0,9.792584419E0
1.642161015E1,5.650488734E-1,-1.204320192E0,9.766246796E0
1.643360862E1,5.770202279E-1,-1.177983165E0,9.754275322E0
1.644560688E1,5.818088055E-1,-1.189954638E0,9.761458397E0
1.645760528E1,3.471698463E-1,-1.156434774E0,9.797372818E0
1.646960291E1,3.256213665E-1,-1.113337755E0,9.857229233E0
1.648160188E1,3.974496126E-1,-1.098972082E0,9.914691925E0
1.649360034E1,3.806896806E-1,-1.043903828E0,9.885960579E0
1.650559761E1,3.878725171E-1,-1.010383964E0,9.785401344E0
1.651759587E1,3.711125851E-1,-1.046298146E0,9.701601982E0
1.652959477E1,3.615354896E-1,-1.079817891E0,9.703995705E0
1.654159324E1,3.950553536E-1,-1.082212210E0,9.761458397E0
1.655359177E1,4.836435020E-1,-1.077423692E0,9.787795067E0
1.656559110E1,5.267404318E-1,-1.075029373E0,9.775823593E0
1.657758970E1,5.889915824E-1,-1.134886265E0,9.775823593E0
1.658958826E1,5.913859010E-1,-1.146857619E0,9.790189743E0
1.660158676E1,5.626545548E-1,-1.185166001E0,9.850046158E0
1.661358535E1,5.913859010E-1,-1.175588965E0,9.876383781E0
1.662558402E1,6.129343510E-1,-1.130097747E0,9.905115128E0
1.663758275E1,5.554717779E-1,-1.087000728E0,9.816526413E0
1.664958138E1,5.267404318E-1,-1.087000728E0,9.687235832E0
1.666158001E1,5.075862408E-1,-1.084606528E0,9.646533012E0
1.667357841E1,4.453351200E-1,-1.053480864E0,9.699207306E0
1.668557604E1,4.309694767E-1,-1.075029373E0,9.787795067E0
1.669757450E1,4.309694767E-1,-1.075029373E0,9.873989105E0
1.670957297E1,3.926610649E-1,-1.098972082E0,9.902720451E0
1.672157137E1,4.046324492E-1,-1.115732074E0,9.921875000E0
1.673356990E1,4.501236677E-1,-1.094183564E0,9.854835510E0
1.674556920E1,4.836435020E-1,-1.053480864E0,9.775823593E0
1.675756766E1,5.650488734E-1,-1.041509509E0,9.715967178E0
1.676956606E1,5.698373914E-1,-1.065452337E0,9.687235832E0
1.678156456E1,5.554717779E-1,-1.075029373E0,9.713572502E0
1.679356302E1,5.865973234E-1,-1.103760719E0,9.811738014E0
1.680556089E1,5.985686779E-1,-1.084606528E0,9.859623909E0
1.681755935E1,5.722316504E-1,-1.075029373E0,9.852440834E0
1.682955705E1,5.578660369E-1,-1.077423692E0,9.797372818E0
1.684155548E1,5.267404318E-1,-1.027143836E0,9.759063721E0
1.685355395E1,-3.304099143E-1,-9.936240315E-1,9.620196342E0
1.686555218E1,5.363175869E-1,-1.175588965E0,9.783006668E0
1.687755058E1,6.464542150E-1,-9.481328130E-1,9.960183144E0
1.688954981E1,-2.513988614E-1,-7.206767201E-1,1.013257122E1
1.690154891E1,2.178790122E-1,-9.601042271E-1,1.009665680E1
1.691354737E1,7.278595567E-1,-1.503604531E0,9.555550575E0
1.692554680E1,6.009629965E-1,-1.125309110E0,9.624984741E0
1.693754527E1,7.757450342E-1,-7.350423932E-1,9.768641472E0
1.694954374E1,8.379961848E-1,-8.858816624E-1,9.622590065E0
1.696154163E1,7.972934842E-1,-1.072635174E0,9.895537376E0
1.697354010E1,9.265843630E-1,-9.768640995E-1,1.048692322E1
1.698553843E1,1.235445857E0,-9.050358534E-1,1.063776302E1
1.699753703E1,8.763045669E-1,-7.805336118E-1,1.006313705E1
1.700953569E1,5.267404318E-1,-1.149251938E0,9.507665634E0
1.702153435E1,7.134938836E-1,-1.132491946E0,9.739910126E0
1.703353295E1,5.794144869E-1,-1.240234375E0,9.830892563E0
1.704553235E1,5.004034638E-1,-1.264177084E0,9.919480324E0
1.705753094E1,4.237866402E-1,-1.151646137E0,9.976943016E0
1.706952941E1,2.059076279E-1,-9.768640995E-1,1.005356026E1
1.708152781E1,2.322446555E-1,-1.024749637E0,9.993702888E0
1.709352627E1,2.968900800E-1,-1.209108829E0,9.802161217E0
1.710552430E1,2.537931204E-1,-1.075029373E0,9.835680962E0
1.711752277E1,2.394274771E-1,-8.260248303E-1,9.814132690E0
1.712952080E1,3.782954216E-1,-8.260248303E-1,9.715967178E0
1.714151900E1,5.985686779E-1,-8.451790214E-1,9.713572502E0
1.715351753E1,5.626545548E-1,-8.715160489E-1,9.751881599E0
1.716551570E1,5.506832004E-1,-9.505270720E-1,9.730332375E0
1.717751416E1,6.632141471E-1,-8.763045669E-1,9.677659035E0
1.718951293E1,6.512427330E-1,-8.188419938E-1,9.663292885E0
1.720151166E1,7.326480746E-1,-7.613793612E-1,9.744698524E0
1.721351012E1,6.536370516E-1,-9.505270720E-1,9.763853073E0
1.722550946E1,4.788549542E-1,-1.075029373E0,9.787795067E0
1.723750785E1,3.351984620E-1,-1.051086664E0,9.871595383E0
1.724750812E1,3.782954216E-1,-9.768640995E-1,9.905115128E0
1.725950698E1,4.812492430E-1,-9.265843630E-1,9.890748978E0
1.727150624E1,4.070267081E-1,-1.007989645E0,9.785401344E0
1.728350504E1,3.136500120E-1,-1.036720991E0,9.847652435E0
1.729550484E1,2.801301479E-1,-1.055875182E0,9.873989105E0
1.730750337E1,4.692778587E-1,-9.864411950E-1,9.866806030E0
1.731950310E1,6.057515144E-1,-9.265843630E-1,9.862017632E0
1.733150216E1,6.440598965E-1,-9.170072675E-1,9.859623909E0
1.734350143E1,5.506832004E-1,-9.984126091E-1,9.804554939E0
1.735550056E1,6.249057055E-1,-1.015172482E0,9.763853073E0
1.736749979E1,7.278595567E-1,-9.074301720E-1,9.687235832E0
1.737949859E1,7.326480746E-1,-7.877163887E-1,9.699207306E0
1.739149759E1,6.919454336E-1,-8.116591573E-1,9.718361855E0
1.740349605E1,5.722316504E-1,-9.337671995E-1,9.754275322E0
1.741549452E1,5.027977228E-1,-9.505270720E-1,9.850046158E0
1.742749275E1,4.501236677E-1,-9.241901040E-1,9.850046158E0
1.743949115E1,4.549122155E-1,-8.786988258E-1,9.814132690E0
1.745148961E1,4.357580245E-1,-9.098244309E-1,9.778218269E0
1.746348814E1,4.142095447E-1,-9.529213905E-1,9.756669998E0
1.747548668E1,4.022381604E-1,-9.984126091E-1,9.852440834E0
1.748748507E1,4.692778587E-1,-1.000806928E0,9.897932053E0
1.749948354E1,5.865973234E-1,-9.624984860E-1,9.900326729E0
1.751148230E1,6.249057055E-1,-9.816526771E-1,9.883566856E0
1.752348030E1,6.009629965E-1,-9.792584181E-1,9.771035194E0
1.753547870E1,6.536370516E-1,-9.936240315E-1,9.763853073E0
1.754747696E1,6.177229285E-1,-9.601042271E-1,9.749486923E0
1.755947550E1,5.698373914E-1,-8.691217303E-1,9.766246796E0
1.757147373E1,5.506832004E-1,-8.643332124E-1,9.761458397E0
1.758347173E1,5.506832004E-1,-8.643332124E-1,9.792584419E0
1.759547012E1,5.051919818E-1,-8.882759809E-1,9.799766541E0
1.760746879E1,4.405465722E-1,-8.858816624E-1,9.823709488E0
1.761946725E1,4.597007632E-1,-8.356019258E-1,9.811738014E0
1.763146572E1,4.788549542E-1,-8.427847624E-1,9.775823593E0
1.764346492E1,4.477293789E-1,-8.667274714E-1,9.780612946E0
1.765546345E1,4.692778587E-1,-9.122186899E-1,9.759063721E0
1.766746191E1,4.788549542E-1,-9.122186899E-1,9.797372818E0
1.767946038E1,5.243461728E-1,-9.002473354E-1,9.833286285E0
1.769145834E1,5.770202279E-1,-9.194015265E-1,9.852440834E0
1.770345601E1,6.033572555E-1,-9.194015265E-1,9.835680962E0
1.771545457E1,5.865973234E-1,-9.361614585E-1,9.792584419E0
1.772745330E1,5.411061049E-1,-9.050358534E-1,9.794978142E0
1.773945197E1,5.578660369E-1,-8.834874034E-1,9.806949615E0
1.775145100E1,5.219519138E-1,-8.906702399E-1,9.780612946E0
1.776344969E1,4.812492430E-1,-8.858816624E-1,9.794978142E0
1.777544826E1,4.357580245E-1,-8.786988258E-1,9.804554939E0
1.778744672E1,4.381522834E-1,-8.906702399E-1,9.821314812E0
1.779944512E1,4.405465722E-1,-8.810931444E-1,9.806949615E0
1.781144365E1,4.573064744E-1,-8.978530765E-1,9.811738014E0
1.782344308E1,5.291347504E-1,-9.002473354E-1,9.790189743E0
1.783544155E1,5.578660369E-1,-9.098244309E-1,9.814132690E0
1.784743995E1,5.650488734E-1,-9.098244309E-1,9.833286285E0
1.785943841E1,5.650488734E-1,-9.265843630E-1,9.840469360E0
1.787143688E1,5.650488734E-1,-9.433442950E-1,9.821314812E0
1.788343534E1,5.363175869E-1,-9.241901040E-1,9.811738014E0
1.789543381E1,5.075862408E-1,-9.146129489E-1,9.773429871E0
1.790743234E1,5.099805593E-1,-8.834874034E-1,9.797372818E0
1.791943077E1,4.740664065E-1,-9.074301720E-1,9.794978142E0
1.793142924E1,4.860377908E-1,-8.978530765E-1,9.818921089E0
1.794342677E1,5.123748183E-1,-9.146129489E-1,9.823709488E0
1.795542517E1,4.812492430E-1,-9.241901040E-1,9.840469360E0
1.796742320E1,4.668835998E-1,-9.098244309E-1,9.828497887E0
1.797942173E1,5.195576549E-1,-8.834874034E-1,9.785401344E0
1.799142026E1,5.506832004E-1,-8.882759809E-1,9.771035194E0
1.800341866E1,5.722316504E-1,-8.954587579E-1,9.759063721E0
1.801541713E1,5.889915824E-1,-9.194015265E-1,9.780612946E0
1.802541746E1,5.650488734E-1,-9.529213905E-1,9.775823593E0
1.803741592E1,5.554717779E-1,-9.146129489E-1,9.840469360E0
1.804941462E1,5.506832004E-1,-9.265843630E-1,9.821314812E0
1.806141409E1,5.578660369E-1,-9.194015265E-1,9.826104164E0
1.807341262E1,5.123748183E-1,-9.122186899E-1,9.790189743E0
1.808541008E1,4.836435020E-1,-9.002473354E-1,9.773429871E0
1.809740848E1,5.027977228E-1,-8.954587579E-1,9.792584419E0
1.810940614E1,5.171633363E-1,-9.098244309E-1,9.811738014E0
1.812140378E1,5.267404318E-1,-9.505270720E-1,9.818921089E0
1.813340244E1,5.506832004E-1,-9.696813226E-1,9.821314812E0
1.814540084E1,5.004034638E-1,-9.217957854E-1,9.826104164E0
1.815739950E1,5.075862408E-1,-9.241901040E-1,9.773429871E0
1.816939863E1,5.099805593E-1,-9.074301720E-1,9.768641472E0
1.818139813E1,4.668835998E-1,-9.481328130E-1,9.778218269E0
1.819339659E1,4.381522834E-1,-9.601042271E-1,9.840469360E0
1.820539472E1,4.740664065E-1,-9.481328130E-1,9.869200706E0
1.821739319E1,4.644893110E-1,-9.481328130E-1,9.828497887E0
1.822939172E1,4.812492430E-1,-9.385557175E-1,9.794978142E0
1.824139075E1,4.956148863E-1,-9.289786220E-1,9.756669998E0
1.825338915E1,4.573064744E-1,-9.553156495E-1,9.732727051E0
1.826538791E1,4.549122155E-1,-9.601042271E-1,9.775823593E0
1.827738638E1,4.836435020E-1,-9.481328130E-1,9.830892563E0
1.828938484E1,4.525179267E-1,-9.433442950E-1,9.842864037E0
1.830138181E1,4.333637357E-1,-9.337671995E-1,9.859623909E0
1.831338027E1,4.189980924E-1,-9.385557175E-1,9.823709488E0
1.832537881E1,3.974496126E-1,-9.385557175E-1,9.783006668E0
1.833737734E1,4.429408312E-1,-9.409499764E-1,9.787795067E0
1.834937600E1,4.836435020E-1,-9.529213905E-1,9.775823593E0
1.836137573E1,5.147690773E-1,-9.696813226E-1,9.790189743E0
1.837337486E1,4.956148863E-1,-9.529213905E-1,9.828497887E0
1.838537413E1,5.099805593E-1,-9.553156495E-1,9.840469360E0
1.839737339E1,4.453351200E-1,-9.624984860E-1,9.833286285E0
1.840937199E1,4.142095447E-1,-9.672870040E-1,9.818921089E0
1.842137085E1,3.998439014E-1,-9.696813226E-1,9.787795067E0
1.843336945E1,3.926610649E-1,-9.505270720E-1,9.802161217E0
1.844536788E1,3.663240373E-1,-9.457385540E-1,9.806949615E0
1.845736628E1,3.064671755E-1,-9.648927450E-1,9.845257759E0
1.846936515E1,2.944957912E-1,-9.672870040E-1,9.847652435E0
1.848136275E1,2.490045726E-1,-9.624984860E-1,9.857229233E0
1.849336128E1,2.609759569E-1,-9.481328130E-1,9.835680962E0
1.850536018E1,4.022381604E-1,-9.457385540E-1,9.814132690E0
1.851735858E1,4.692778587E-1,-9.265843630E-1,9.763853073E0
1.852935791E1,4.860377908E-1,-9.289786220E-1,9.761458397E0
1.854135687E1,5.099805593E-1,-9.241901040E-1,9.775823593E0
1.855335534E1,4.908263385E-1,-9.409499764E-1,9.766246796E0
1.856535353E1,4.573064744E-1,-9.768640995E-1,9.787795067E0
1.857735207E1,4.620950520E-1,-9.672870040E-1,9.797372818E0
1.858935030E1,4.549122155E-1,-9.577099085E-1,9.814132690E0
1.860134846E1,4.166038036E-1,-9.672870040E-1,9.809344292E0
1.861334686E1,3.878725171E-1,-9.864411950E-1,9.785401344E0
1.862534513E1,4.285751879E-1,-9.888355136E-1,9.802161217E0
1.863734359E1,4.142095447E-1,-1.015172482E0,9.816526413E0
1.864934149E1,4.429408312E-1,-9.984126091E-1,9.830892563E0
1.866133982E1,3.998439014E-1,-1.007989645E0,9.838075638E0
1.867333822E1,3.950553536E-1,-1.007989645E0,9.816526413E0
1.868533668E1,3.902668059E-1,-1.010383964E0,9.804554939E0
1.869733515E1,4.189980924E-1,-9.984126091E-1,9.806949615E0
1.870933408E1,4.716721475E-1,-1.034326673E0,9.814132690E0
1.872133371E1,4.166038036E-1,-1.000806928E0,9.797372818E0
1.873333224E1,3.782954216E-1,-9.888355136E-1,9.828497887E0
1.874533084E1,3.591412306E-1,-1.024749637E0,9.809344292E0
1.875732950E1,3.735068738E-1,-1.012778282E0,9.830892563E0
1.876932764E1,3.878725171E-1,-1.007989645E0,9.816526413E0
1.878132593E1,3.759011328E-1,-1.034326673E0,9.814132690E0
1.879332460E1,3.663240373E-1,-1.000806928E0,9.823709488E0
1.880532319E1,3.423812985E-1,-1.017566800E0,9.818921089E0
1.881732166E1,3.950553536E-1,-1.019961119E0,9.816526413E0
1.882932012E1,4.285751879E-1,-1.034326673E0,9.797372818E0
1.884131965E1,4.525179267E-1,-1.012778282E0,9.787795067E0
1.885331812E1,3.926610649E-1,-1.027143836E0,9.802161217E0
1.886531682E1,3.806896806E-1,-1.019961119E0,9.785401344E0
1.887731522E1,3.447755575E-1,-1.041509509E0,9.823709488E0
1.888931368E1,3.471698463E-1,-1.051086664E0,9.821314812E0
1.890131031E1,3.567469418E-1,-1.051086664E0,9.816526413E0
1.891330878E1,3.878725171E-1,-1.034326673E0,9.818921089E0
1.892530694E1,3.902668059E-1,-1.017566800E0,9.809344292E0
1.893730541E1,3.878725171E-1,-1.031932473E0,9.790189743E0
1.894930347E1,4.357580245E-1,-1.031932473E0,9.787795067E0
1.896130277E1,4.213923812E-1,-1.067846537E0,9.773429871E0
1.897330124E1,3.806896806E-1,-1.007989645E0,9.794978142E0
1.898529970E1,3.112557232E-1,-1.017566800E0,9.804554939E0
1.899729823E1,2.801301479E-1,-1.039115310E0,9.818921089E0
1.900929710E1,2.609759569E-1,-1.048692346E0,9.799766541E0
1.902129463E1,2.633702159E-1,-1.046298146E0,9.840469360E0
1.903329303E1,2.442160249E-1,-1.007989645E0,9.809344292E0
1.904529149E1,2.849186957E-1,-1.022355318E0,9.838075638E0
1.905728996E1,2.992843390E-1,-1.022355318E0,9.804554939E0
1.906928849E1,3.232271075E-1,-1.027143836E0,9.783006668E0
1.908128782E1,3.304099143E-1,-1.003201127E0,9.790189743E0
1.909328628E1,3.112557232E-1,-9.816526771E-1,9.787795067E0
1.910528495E1,3.136500120E-1,-1.017566800E0,9.785401344E0
1.911728341E1,3.711125851E-1,-1.034326673E0,9.773429871E0
1.912928181E1,4.381522834E-1,-1.036720991E0,9.785401344E0
1.914128028E1,4.285751879E-1,-1.034326673E0,9.787795067E0
1.915327891E1,3.782954216E-1,-1.053480864E0,9.792584419E0
1.916527737E1,3.399870098E-1,-1.096577883E0,9.811738014E0
1.917727603E1,3.471698463E-1,-1.120520592E0,9.842864037E0
1.918927463E1,3.040728867E-1,-1.122914910E0,9.838075638E0
1.920127236E1,3.016786277E-1,-1.118126392E0,9.857229233E0
1.921327092E1,2.849186957E-1,-1.094183564E0,9.857229233E0
1.922526902E1,2.442160249E-1,-1.103760719E0,9.830892563E0
1.923726742E1,2.106961906E-1,-1.110943556E0,9.840469360E0
1.924926645E1,2.298503816E-1,-1.101366401E0,9.811738014E0
1.926126585E1,2.753416002E-1,-1.043903828E0,9.809344292E0
1.927326432E1,2.944957912E-1,-1.007989645E0,9.778218269E0
1.928526315E1,3.208328187E-1,-9.864411950E-1,9.780612946E0
1.929726161E1,3.351984620E-1,-1.024749637E0,9.744698524E0
1.930925958E1,3.687183261E-1,-1.015172482E0,9.759063721E0
1.932125768E1,3.902668059E-1,-1.029538155E0,9.768641472E0
1.933325614E1,3.878725171E-1,-1.041509509E0,9.742303848E0
1.934525527E1,3.854782581E-1,-1.053480864E0,9.771035194E0
1.935725374E1,3.423812985E-1,-1.127703428E0,9.790189743E0
1.936925260E1,2.944957912E-1,-1.127703428E0,9.835680962E0
1.938125087E1,3.088614643E-1,-1.158828974E0,9.852440834E0
1.939324946E1,3.423812985E-1,-1.166011810E0,9.862017632E0
1.940524786E1,3.088614643E-1,-1.170800328E0,9.842864037E0
1.941724732E1,3.040728867E-1,-1.175588965E0,9.869200706E0
1.942924662E1,2.442160249E-1,-1.201925993E0,9.866806030E0
1.944124705E1,2.442160249E-1,-1.180377483E0,9.845257759E0
1.945324688E1,2.849186957E-1,-1.142069101E0,9.818921089E0
1.946524655E1,3.782954216E-1,-1.055875182E0,9.773429871E0
1.947724608E1,3.926610649E-1,-9.864411950E-1,9.792584419E0
1.948924531E1,7.182824612E-2,-1.070240855E0,1.014933109E1
1.950124347E1,1.580221355E-1,-1.441353440E0,9.636956215E0
1.951324237E1,7.039167881E-1,-1.199531674E0,9.986519814E0
1.952524104E1,-1.197137386E-1,-1.180377483E0,9.828497887E0
1.953723950E1,1.723877788E-1,-1.043903828E0,1.001285744E1
1.954923790E1,4.237866402E-1,-1.400650740E0,9.725543976E0
1.956123646E1,4.716721475E-1,-1.182771802E0,9.838075638E0
1.957323500E1,1.077423692E-1,-9.912297726E-1,9.835680962E0
1.958523346E1,2.250618339E-1,-9.888355136E-1,9.806949615E0
1.959723186E1,4.716721475E-1,-1.259388566E0,9.624984741E0
1.960923033E1,5.051919818E-1,-1.166011810E0,9.668081284E0
1.962122952E1,4.908263385E-1,-8.882759809E-1,9.828497887E0
1.963322799E1,3.399870098E-1,-9.361614585E-1,9.692024231E0
1.964522739E1,4.932205975E-1,-1.017566800E0,9.670475960E0
1.965722585E1,6.129343510E-1,-1.134886265E0,9.608224869E0
1.966922468E1,6.177229285E-1,-9.960182905E-1,9.737515450E0
1.968122358E1,4.716721475E-1,-1.039115310E0,9.703995705E0
1.969322205E1,4.597007632E-1,-1.161223292E0,9.747093201E0
1.970521951E1,3.639297783E-1,-1.295302629E0,9.864412308E0
1.971721798E1,1.723877788E-1,-1.316851139E0,9.936240196E0
1.972921614E1,1.915419847E-1,-1.290514112E0,9.941028595E0
1.974121337E1,2.897072434E-1,-1.242628574E0,9.869200706E0
1.975321177E1,2.370332032E-1,-1.175588965E0,9.895537376E0
1.976321184E1,1.747820675E-1,-1.216291547E0,9.864412308E0
1.977521030E1,1.867534369E-1,-1.259388566E0,9.857229233E0
1.978720860E1,2.011190802E-1,-1.189954638E0,9.833286285E0
1.979920700E1,3.375927508E-1,-1.003201127E0,9.792584419E0
1.981120560E1,3.543526828E-1,-9.553156495E-1,9.732727051E0
1.982320329E1,3.806896806E-1,-1.003201127E0,9.675264359E0
1.983520176E1,3.830839694E-1,-1.065452337E0,9.675264359E0
1.984720032E1,3.759011328E-1,-1.070240855E0,9.715967178E0
1.985919879E1,3.663240373E-1,-1.039115310E0,9.763853073E0
1.987119815E1,3.759011328E-1,-1.094183564E0,9.778218269E0
1.988319632E1,4.166038036E-1,-1.146857619E0,9.845257759E0
1.989519498E1,3.328042030E-1,-1.249811411E0,9.857229233E0
1.990719358E1,3.064671755E-1,-1.273754239E0,9.838075638E0
1.991919231E1,2.921015322E-1,-1.245022893E0,9.833286285E0
1.993118994E1,3.256213665E-1,-1.206714511E0,9.816526413E0
1.994318797E1,3.423812985E-1,-1.187560320E0,9.857229233E0
1.995518637E1,3.160442710E-1,-1.233051538E0,9.845257759E0
1.996718477E1,3.399870098E-1,-1.247417212E0,9.845257759E0
1.997918323E1,3.280156553E-1,-1.173194647E0,9.821314812E0
1.999118270E1,3.280156553E-1,-1.120520592E0,9.783006668E0
2.000318133E1,3.423812985E-1,-1.094183564E0,9.785401344E0
2.001517979E1,3.208328187E-1,-1.108549237E0,9.739910126E0
2.002717796E1,3.423812985E-1,-1.084606528E0,9.725543976E0
2.003917642E1,3.519583941E-1,-1.106154919E0,9.739910126E0
2.005117482E1,3.854782581E-1,-1.089395046E0,9.771035194E0
2.006317295E1,4.118152559E-1,-1.108549237E0,9.783006668E0
2.007517148E1,3.735068738E-1,-1.149251938E0,9.797372818E0
2.008716995E1,3.471698463E-1,-1.211503029E0,9.816526413E0
2.009916841E1,3.471698463E-1,-1.230657220E0,9.840469360E0
2.011116588E1,3.519583941E-1,-1.223474383E0,9.862017632E0
2.012316488E1,3.447755575E-1,-1.175588965E0,9.854835510E0
2.013516334E1,3.208328187E-1,-1.209108829E0,9.847652435E0
2.014716231E1,3.088614643E-1,-1.254600048E0,9.818921089E0
2.015916067E1,3.040728867E-1,-1.233051538E0,9.802161217E0
2.017116014E1,3.375927508E-1,-1.185166001E0,9.797372818E0
2.018315887E1,4.429408312E-1,-1.132491946E0,9.804554939E0
2.019515733E1,4.309694767E-1,-1.130097747E0,9.802161217E0
2.020715573E1,4.357580245E-1,-1.161223292E0,9.763853073E0
2.021915420E1,3.974496126E-1,-1.156434774E0,9.766246796E0
2.023115266E1,4.022381604E-1,-1.122914910E0,9.754275322E0
2.024315093E1,4.381522834E-1,-1.072635174E0,9.766246796E0
2.025514939E1,4.333637357E-1,-1.082212210E0,9.742303848E0
2.026714869E1,3.878725171E-1,-1.146857619E0,9.747093201E0
2.027914732E1,3.495641351E-1,-1.225868702E0,9.787795067E0
2.029114512E1,3.375927508E-1,-1.230657220E0,9.840469360E0
2.030314391E1,2.992843390E-1,-1.228263021E0,9.869200706E0
2.031514251E1,2.921015322E-1,-1.240234375E0,9.871595383E0
2.032714031E1,3.016786277E-1,-1.228263021E0,9.857229233E0
2.033913891E1,3.016786277E-1,-1.218685865E0,9.821314812E0
2.035113820E1,3.351984620E-1,-1.187560320E0,9.799766541E0
2.036313647E1,3.423812985E-1,-1.125309110E0,9.771035194E0
2.037513547E1,3.806896806E-1,-1.106154919E0,9.742303848E0
2.038713393E1,3.974496126E-1,-1.110943556E0,9.766246796E0
2.039913240E1,4.094209969E-1,-1.130097747E0,9.761458397E0
2.041112996E1,4.309694767E-1,-1.144463301E0,9.783006668E0
2.042312843E1,4.549122155E-1,-1.144463301E0,9.756669998E0
2.043512636E1,4.525179267E-1,-1.156434774E0,9.742303848E0
2.044712486E1,4.189980924E-1,-1.158828974E0,9.768641472E0
2.045912332E1,3.878725171E-1,-1.180377483E0,9.818921089E0
2.047112172E1,4.046324492E-1,-1.237840056E0,9.823709488E0
2.048312032E1,3.950553536E-1,-1.245022893E0,9.838075638E0
2.049511911E1,3.974496126E-1,-1.242628574E0,9.840469360E0
2.050711788E1,3.998439014E-1,-1.247417212E0,9.823709488E0
2.051911708E1,3.902668059E-1,-1.249811411E0,9.802161217E0
2.052911770E1,3.974496126E-1,-1.254600048E0,9.787795067E0
2.054111674E1,3.950553536E-1,-1.240234375E0,9.857229233E0
2.055311577E1,4.142095447E-1,-1.235445857E0,9.864412308E0
2.056511430E1,4.142095447E-1,-1.216291547E0,9.823709488E0
2.057711283E1,4.213923812E-1,-1.161223292E0,9.694418907E0
2.058911153E1,4.333637357E-1,-1.151646137E0,9.689630508E0
2.060111023E1,4.142095447E-1,-1.103760719E0,9.713572502E0
2.061310863E1,4.477293789E-1,-1.127703428E0,9.811738014E0
2.062510752E1,4.788549542E-1,-1.161223292E0,9.850046158E0
2.063710599E1,4.333637357E-1,-1.168406129E0,9.787795067E0
2.064910306E1,3.735068738E-1,-1.161223292E0,9.737515450E0
2.066110159E1,4.022381604E-1,-1.170800328E0,9.706390381E0
2.067310005E1,4.046324492E-1,-1.177983165E0,9.766246796E0
2.068509875E1,3.854782581E-1,-1.223474383E0,9.830892563E0
2.069709721E1,3.687183261E-1,-1.268965602E0,9.818921089E0
2.070909568E1,4.357580245E-1,-1.271359921E0,9.835680962E0
2.072109514E1,4.453351200E-1,-1.230657220E0,9.828497887E0
2.073309361E1,4.429408312E-1,-1.216291547E0,9.842864037E0
2.074509191E1,4.046324492E-1,-1.225868702E0,9.845257759E0
2.075709037E1,4.285751879E-1,-1.247417212E0,9.785401344E0
2.076908970E1,4.261809289E-1,-1.206714511E0,9.751881599E0
2.078108677E1,4.429408312E-1,-1.166011810E0,9.718361855E0
2.079308523E1,4.405465722E-1,-1.125309110E0,9.744698524E0
2.080508370E1,4.788549542E-1,-1.168406129E0,9.775823593E0
2.081708216E1,4.405465722E-1,-1.192348838E0,9.818921089E0
2.082908090E1,4.333637357E-1,-1.201925993E0,9.826104164E0
2.084107969E1,4.884320498E-1,-1.177983165E0,9.816526413E0
2.085307816E1,4.884320498E-1,-1.161223292E0,9.754275322E0
2.086507672E1,4.501236677E-1,-1.158828974E0,9.730332375E0
2.087707512E1,4.309694767E-1,-1.211503029E0,9.747093201E0
2.088907335E1,4.285751879E-1,-1.221080184E0,9.778218269E0
2.090107168E1,4.094209969E-1,-1.237840056E0,9.847652435E0
2.091306965E1,4.094209969E-1,-1.233051538E0,9.857229233E0
2.092506771E1,4.237866402E-1,-1.240234375E0,9.842864037E0
2.093706637E1,4.477293789E-1,-1.218685865E0,9.783006668E0
2.094906484E1,4.597007632E-1,-1.221080184E0,9.725543976E0
2.096106313E1,4.620950520E-1,-1.177983165E0,9.747093201E0
2.097306230E1,4.980091453E-1,-1.197137356E0,9.802161217E0
2.098506153E1,4.908263385E-1,-1.189954638E0,9.828497887E0
2.099706006E1,4.668835998E-1,-1.204320192E0,9.818921089E0
2.100905783E1,4.740664065E-1,-1.199531674E0,9.756669998E0
2.102105669E1,4.668835998E-1,-1.170800328E0,9.759063721E0
2.103305509E1,4.597007632E-1,-1.187560320E0,9.751881599E0
2.104505319E1,4.477293789E-1,-1.204320192E0,9.828497887E0
2.105705166E1,4.525179267E-1,-1.261782765E0,9.773429871E0
2.106905105E1,4.381522834E-1,-1.254600048E0,9.818921089E0
2.108104945E1,4.405465722E-1,-1.204320192E0,9.814132690E0
2.109304798E1,4.549122155E-1,-1.180377483E0,9.778218269E0
2.110504695E1,4.261809289E-1,-1.170800328E0,9.766246796E0
2.111704541E1,4.166038036E-1,-1.230657220E0,9.756669998E0
2.112904404E1,4.405465722E-1,-1.228263021E0,9.816526413E0
2.114104251E1,4.597007632E-1,-1.170800328E0,9.833286285E0
2.115304098E1,4.309694767E-1,-1.134886265E0,9.792584419E0
2.116503904E1,4.357580245E-1,-1.146857619E0,9.723150253E0
2.117703750E1,4.597007632E-1,-1.151646137E0,9.742303848E0
2.118903544E1,4.525179267E-1,-1.137280583E0,9.806949615E0
2.120103390E1,4.692778587E-1,-1.120520592E0,9.835680962E0
2.121303237E1,4.405465722E-1,-1.163617611E0,9.799766541E0
2.122503083E1,4.357580245E-1,-1.177983165E0,9.775823593E0
2.123702923E1,4.189980924E-1,-1.204320192E0,9.730332375E0
2.124902760E1,4.549122155E-1,-1.192348838E0,9.761458397E0
2.126102606E1,4.644893110E-1,-1.189954638E0,9.785401344E0
2.127302452E1,4.668835998E-1,-1.175588965E0,9.871595383E0
2.128502292E1,4.716721475E-1,-1.163617611E0,9.888355255E0
2.129702139E1,4.836435020E-1,-1.194743156E0,9.850046158E0
2.130902062E1,5.004034638E-1,-1.177983165E0,9.787795067E0
2.132101935E1,4.692778587E-1,-1.127703428E0,9.684841156E0
2.133301801E1,4.908263385E-1,-1.137280583E0,9.656110764E0
2.134501668E1,5.171633363E-1,-1.197137356E0,9.785401344E0
2.135701534E1,5.051919818E-1,-1.216291547E0,9.871595383E0
2.136901324E1,4.644893110E-1,-1.194743156E0,9.873989105E0
2.138101170E1,4.501236677E-1,-1.163617611E0,9.847652435E0
2.139301010E1,4.357580245E-1,-1.154040456E0,9.751881599E0
2.140500856E1,4.213923812E-1,-1.134886265E0,9.737515450E0
2.141700710E1,4.213923812E-1,-1.122914910E0,9.802161217E0
2.142900596E1,4.142095447E-1,-1.142069101E0,9.833286285E0
2.144100542E1,4.166038036E-1,-1.149251938E0,9.842864037E0
2.145300389E1,4.118152559E-1,-1.122914910E0,9.845257759E0
2.146500242E1,4.142095447E-1,-1.091789365E0,9.792584419E0
2.147700089E1,4.213923812E-1,-1.055875182E0,9.754275322E0
2.148899935E1,4.620950520E-1,-1.055875182E0,9.708784103E0
2.150099675E1,4.692778587E-1,-1.079817891E0,9.720755577E0
2.151299528E1,4.668835998E-1,-1.084606528E0,9.787795067E0
2.152499368E1,5.195576549E-1,-1.084606528E0,9.826104164E0
2.153699234E1,4.956148863E-1,-1.130097747E0,9.862017632E0
2.154899081E1,4.357580245E-1,-1.125309110E0,9.862017632E0
2.156099034E1,4.453351200E-1,-1.130097747E0,9.816526413E0
2.157299007E1,4.980091453E-1,-1.115732074E0,9.780612946E0
2.158499000E1,5.339232683E-1,-1.094183564E0,9.787795067E0
2.159698979E1,5.435003638E-1,-1.103760719E0,9.751881599E0
2.160699073E1,5.578660369E-1,-1.115732074E0,9.751881599E0
2.161899013E1,5.674431324E-1,-1.127703428E0,9.778218269E0
2.163098956E1,5.650488734E-1,-1.137280583E0,9.763853073E0
2.164298876E1,5.746259689E-1,-1.142069101E0,9.792584419E0
2.165498785E1,5.961744189E-1,-1.149251938E0,9.816526413E0
2.166698619E1,5.818088055E-1,-1.182771802E0,9.871595383E0
2.167898492E1,5.818088055E-1,-1.199531674E0,9.873989105E0
2.169098335E1,5.794144869E-1,-1.161223292E0,9.806949615E0
2.170298182E1,5.554717779E-1,-1.120520592E0,9.701601982E0
2.171498028E1,5.961744189E-1,-1.115732074E0,9.680052757E0
2.172697781E1,5.913859010E-1,-1.151646137E0,9.751881599E0
2.173897628E1,5.865973234E-1,-1.204320192E0,9.873989105E0
2.175097471E1,5.650488734E-1,-1.223474383E0,9.912297249E0
2.176297324E1,5.602602959E-1,-1.170800328E0,9.871595383E0
2.177497124E1,5.482889414E-1,-1.096577883E0,9.790189743E0
2.178697064E1,5.315290093E-1,-1.113337755E0,9.715967178E0
2.179896903E1,5.051919818E-1,-1.132491946E0,9.672870636E0
2.181096750E1,5.075862408E-1,-1.089395046E0,9.766246796E0
2.182296596E1,2.274561077E-1,-7.063110471E-1,1.035763264E1
2.183496563E1,-3.016786277E-1,-1.498816013E0,9.356825829E0
2.184696403E1,1.010383964E0,-1.187560320E0,9.814132690E0
2.185896249E1,2.992843390E-1,-9.385557175E-1,9.785401344E0
2.187096096E1,-1.149251908E-1,-7.110996246E-1,9.964971542E0
2.188295942E1,5.530774593E-1,-1.177983165E0,9.639349937E0
2.189495715E1,7.206767201E-1,-1.266571403E0,9.505270958E0
2.190695589E1,4.429408312E-1,-7.637736797E-1,9.783006668E0
2.191895442E1,6.751855016E-1,-8.595446348E-1,9.759063721E0
2.193095258E1,1.029538155E0,-1.096577883E0,9.718361855E0
2.194295155E1,8.451790214E-1,-1.166011810E0,9.720755577E0
2.195494995E1,6.392713785E-1,-1.060663700E0,9.840469360E0
2.196694878E1,8.523618579E-1,-1.180377483E0,9.682447433E0
2.197894744E1,1.060663700E0,-1.115732074E0,9.656110764E0
2.199094647E1,7.446194887E-1,-1.063058019E0,9.739910126E0
2.200294457E1,4.597007632E-1,-1.173194647E0,9.818921089E0
2.201494330E1,4.333637357E-1,-1.326428294E0,9.881172180E0
2.202694133E1,3.423812985E-1,-1.264177084E0,9.917086601E0
2.203893932E1,3.160442710E-1,-1.063058019E0,9.976943016E0
2.205093772E1,3.878725171E-1,-1.046298146E0,9.890748978E0
2.206293619E1,3.878725171E-1,-1.139674783E0,9.809344292E0
2.207493465E1,3.567469418E-1,-1.187560320E0,9.845257759E0
2.208693192E1,3.160442710E-1,-1.094183564E0,9.888355255E0
2.209893085E1,5.171633363E-1,-1.029538155E0,9.840469360E0
2.211092895E1,7.015225291E-1,-9.744698405E-1,9.785401344E0
2.212292741E1,6.632141471E-1,-9.433442950E-1,9.680052757E0
2.213492588E1,6.033572555E-1,-1.024749637E0,9.663292885E0
2.214692561E1,6.392713785E-1,-1.087000728E0,9.715967178E0
2.215892397E1,7.039167881E-1,-1.015172482E0,9.799766541E0
2.217092277E1,7.374366522E-1,-9.122186899E-1,9.859623909E0
2.218292027E1,6.871568561E-1,-9.648927450E-1,9.792584419E0
2.219491874E1,5.435003638E-1,-1.039115310E0,9.677659035E0
2.220691587E1,4.070267081E-1,-1.019961119E0,9.684841156E0
2.221891433E1,4.860377908E-1,-9.385557175E-1,9.775823593E0
2.223091283E1,5.482889414E-1,-9.337671995E-1,9.818921089E0
2.224291233E1,5.004034638E-1,-9.984126091E-1,9.838075638E0
2.225491079E1,4.573064744E-1,-1.091789365E0,9.842864037E0
2.226690959E1,4.357580245E-1,-1.144463301E0,9.840469360E0
2.227890809E1,4.716721475E-1,-1.087000728E0,9.823709488E0
2.229090655E1,5.171633363E-1,-1.046298146E0,9.771035194E0
2.230290459E1,6.009629965E-1,-1.053480864E0,9.799766541E0
2.231490298E1,6.416656375E-1,-1.098972082E0,9.850046158E0
2.232690238E1,6.536370516E-1,-1.158828974E0,9.888355255E0
2.233890091E1,6.296942830E-1,-1.087000728E0,9.902720451E0
2.235089938E1,6.344828010E-1,-9.984126091E-1,9.840469360E0
2.236289808E1,6.608198285E-1,-9.505270720E-1,9.739910126E0
2.237489627E1,6.656084061E-1,-9.289786220E-1,9.648927689E0
2.238689490E1,5.937801600E-1,-9.577099085E-1,9.598648071E0
2.239889357E1,5.435003638E-1,-9.720755816E-1,9.699207306E0
2.241089223E1,5.219519138E-1,-9.888355136E-1,9.818921089E0
2.242289103E1,4.812492430E-1,-9.648927450E-1,9.893143654E0
2.243489002E1,5.051919818E-1,-9.744698405E-1,9.924268723E0
2.244688759E1,4.740664065E-1,-1.019961119E0,9.854835510E0
2.245888606E1,4.836435020E-1,-1.027143836E0,9.792584419E0
2.247088409E1,5.411061049E-1,-1.036720991E0,9.739910126E0
2.248288248E1,6.656084061E-1,-1.031932473E0,9.723150253E0
2.249488095E1,6.775797606E-1,-1.043903828E0,9.749486923E0
2.250687948E1,6.632141471E-1,-1.098972082E0,9.814132690E0
2.251887788E1,6.751855016E-1,-1.113337755E0,9.885960579E0
2.253087671E1,6.703969240E-1,-1.098972082E0,9.850046158E0
2.254287524E1,6.440598965E-1,-1.046298146E0,9.778218269E0
2.255487371E1,6.584255695E-1,-9.888355136E-1,9.735121727E0
2.256687304E1,6.608198285E-1,-1.015172482E0,9.737515450E0
2.257887150E1,6.009629965E-1,-1.039115310E0,9.821314812E0
2.259086960E1,5.746259689E-1,-1.010383964E0,9.792584419E0
2.260286807E1,5.411061049E-1,-9.601042271E-1,9.708784103E0
2.261486653E1,5.363175869E-1,-9.696813226E-1,9.742303848E0
2.262686563E1,5.435003638E-1,-9.864411950E-1,9.809344292E0
2.263886469E1,5.506832004E-1,-1.043903828E0,9.833286285E0
2.265086452E1,5.363175869E-1,-1.060663700E0,9.826104164E0
2.266286425E1,5.937801600E-1,-1.063058019E0,9.799766541E0
2.267486405E1,6.057515144E-1,-1.051086664E0,9.783006668E0
2.268686341E1,5.913859010E-1,-1.065452337E0,9.802161217E0
2.269886308E1,6.680026650E-1,-1.101366401E0,9.811738014E0
2.271086261E1,6.632141471E-1,-1.130097747E0,9.818921089E0
2.272286177E1,6.177229285E-1,-1.091789365E0,9.830892563E0
2.273486084E1,6.057515144E-1,-1.051086664E0,9.787795067E0
2.274685977E1,6.009629965E-1,-1.051086664E0,9.756669998E0
2.275885850E1,5.458946824E-1,-1.024749637E0,9.785401344E0
2.277085696E1,4.980091453E-1,-1.022355318E0,9.809344292E0
2.278285540E1,5.099805593E-1,-1.019961119E0,9.802161217E0
2.279485386E1,5.099805593E-1,-1.022355318E0,9.783006668E0
2.280685136E1,5.027977228E-1,-9.744698405E-1,9.783006668E0
2.281884982E1,5.075862408E-1,-9.840469360E-1,9.751881599E0
2.283084802E1,5.051919818E-1,-9.936240315E-1,9.759063721E0
2.284284656E1,5.746259689E-1,-1.015172482E0,9.749486923E0
2.285484502E1,5.818088055E-1,-1.031932473E0,9.778218269E0
2.286684445E1,6.009629965E-1,-1.053480864E0,9.783006668E0
2.287884285E1,5.961744189E-1,-1.084606528E0,9.806949615E0
2.289084151E1,5.626545548E-1,-1.110943556E0,9.845257759E0
2.290283998E1,5.363175869E-1,-1.063058019E0,9.828497887E0
2.291483851E1,5.339232683E-1,-1.079817891E0,9.797372818E0
2.292683664E1,5.219519138E-1,-1.072635174E0,9.780612946E0
2.293883511E1,4.908263385E-1,-1.051086664E0,9.778218269E0
2.295083357E1,5.147690773E-1,-1.048692346E0,9.785401344E0
2.296283200E1,5.267404318E-1,-1.046298146E0,9.814132690E0
2.297483047E1,5.363175869E-1,-1.082212210E0,9.838075638E0
2.298682827E1,5.339232683E-1,-1.082212210E0,9.833286285E0
2.299882673E1,5.506832004E-1,-1.077423692E0,9.816526413E0
2.301082520E1,5.315290093E-1,-1.075029373E0,9.780612946E0
2.302282366E1,4.908263385E-1,-1.060663700E0,9.768641472E0
2.303482206E1,4.860377908E-1,-1.055875182E0,9.773429871E0
2.304682146E1,4.525179267E-1,-1.065452337E0,9.778218269E0
2.305881992E1,5.004034638E-1,-1.070240855E0,9.842864037E0
2.307081846E1,5.147690773E-1,-1.079817891E0,9.835680962E0
2.308281695E1,4.908263385E-1,-1.072635174E0,9.811738014E0
2.309481515E1,5.004034638E-1,-1.067846537E0,9.792584419E0
2.310681475E1,4.860377908E-1,-1.053480864E0,9.754275322E0
2.311881341E1,4.501236677E-1,-1.055875182E0,9.756669998E0
2.313081177E1,4.453351200E-1,-1.067846537E0,9.775823593E0
2.314281037E1,4.812492430E-1,-1.070240855E0,9.818921089E0
2.315480930E1,4.668835998E-1,-1.060663700E0,9.847652435E0
2.316680686E1,4.501236677E-1,-1.063058019E0,9.821314812E0
2.317880536E1,4.549122155E-1,-1.070240855E0,9.799766541E0
2.319080366E1,4.285751879E-1,-1.089395046E0,9.780612946E0
2.320280179E1,4.501236677E-1,-1.065452337E0,9.797372818E0
2.321480026E1,4.668835998E-1,-1.084606528E0,9.780612946E0
2.322679866E1,4.932205975E-1,-1.084606528E0,9.794978142E0
2.323879709E1,5.267404318E-1,-1.084606528E0,9.802161217E0
2.325079552E1,5.075862408E-1,-1.106154919E0,9.802161217E0
2.326279392E1,4.812492430E-1,-1.127703428E0,9.826104164E0
2.327479238E1,4.956148863E-1,-1.154040456E0,9.806949615E0
2.328679064E1,4.381522834E-1,-1.113337755E0,9.754275322E0
2.329878871E1,4.501236677E-1,-1.087000728E0,9.744698524E0
2.330880864E1,4.309694767E-1,-1.053480864E0,9.773429871E0
2.332080757E1,4.405465722E-1,-1.087000728E0,9.804554939E0
2.333280603E1,4.525179267E-1,-1.108549237E0,9.826104164E0
2.334480387E1,3.998439014E-1,-1.094183564E0,9.799766541E0
2.335680266E1,3.711125851E-1,-1.075029373E0,9.806949615E0
2.336880080E1,3.567469418E-1,-1.075029373E0,9.794978142E0
2.338079879E1,3.974496126E-1,-1.096577883E0,9.783006668E0
2.339279719E1,3.926610649E-1,-1.103760719E0,9.780612946E0
2.340279776E1,3.998439014E-1,-1.115732074E0,9.790189743E0
2.341479622E1,4.142095447E-1,-1.142069101E0,9.864412308E0
2.342679509E1,4.261809289E-1,-1.156434774E0,9.845257759E0
2.343879348E1,4.597007632E-1,-1.137280583E0,9.826104164E0
2.345079188E1,4.884320498E-1,-1.142069101E0,9.811738014E0
2.346278965E1,4.716721475E-1,-1.142069101E0,9.790189743E0
2.347478818E1,4.285751879E-1,-1.142069101E0,9.768641472E0
2.348678681E1,4.022381604E-1,-1.132491946E0,9.759063721E0
2.349878547E1,4.189980924E-1,-1.125309110E0,9.783006668E0
2.351078474E1,4.309694767E-1,-1.125309110E0,9.811738014E0
2.352278227E1,3.591412306E-1,-1.163617611E0,9.828497887E0
2.353478086E1,3.160442710E-1,-1.146857619E0,9.821314812E0
2.354677926E1,3.208328187E-1,-1.106154919E0,9.823709488E0
2.355877779E1,3.567469418E-1,-1.122914910E0,9.763853073E0
2.357077626E1,3.782954216E-1,-1.122914910E0,9.756669998E0
2.358277519E1,3.950553536E-1,-1.151646137E0,9.790189743E0
2.359477365E1,4.453351200E-1,-1.146857619E0,9.787795067E0
2.360677222E1,4.597007632E-1,-1.161223292E0,9.806949615E0
2.361877068E1,4.237866402E-1,-1.163617611E0,9.787795067E0
2.363076915E1,4.237866402E-1,-1.161223292E0,9.787795067E0
2.364276801E1,3.998439014E-1,-1.175588965E0,9.787795067E0
2.365476648E1,4.046324492E-1,-1.175588965E0,9.780612946E0
2.366676494E1,4.022381604E-1,-1.187560320E0,9.802161217E0
2.367876348E1,4.094209969E-1,-1.211503029E0,9.778218269E0
2.369076187E1,3.902668059E-1,-1.197137356E0,9.785401344E0
2.370275937E1,3.495641351E-1,-1.228263021E0,9.809344292E0
2.371475794E1,3.543526828E-1,-1.233051538E0,9.835680962E0
2.372675663E1,3.471698463E-1,-1.192348838E0,9.821314812E0
2.373875543E1,3.759011328E-1,-1.187560320E0,9.797372818E0
2.375075463E1,3.567469418E-1,-1.182771802E0,9.778218269E0
2.376075553E1,3.830839694E-1,-1.192348838E0,9.759063721E0
2.377275473E1,3.878725171E-1,-1.218685865E0,9.735121727E0
2.378475372E1,3.759011328E-1,-1.185166001E0,9.783006668E0
2.379675259E1,3.399870098E-1,-1.213897347E0,9.816526413E0
2.380875119E1,3.040728867E-1,-1.249811411E0,9.814132690E0
2.382074919E1,3.543526828E-1,-1.242628574E0,9.814132690E0
2.383274765E1,3.902668059E-1,-1.247417212E0,9.783006668E0
2.384474608E1,4.285751879E-1,-1.249811411E0,9.761458397E0
2.385674462E1,4.094209969E-1,-1.240234375E0,9.761458397E0
2.386874308E1,3.447755575E-1,-1.245022893E0,9.780612946E0
2.388074061E1,3.112557232E-1,-1.264177084E0,9.814132690E0
2.389273901E1,2.753416002E-1,-1.273754239E0,9.816526413E0
2.390473757E1,2.705530524E-1,-1.254600048E0,9.814132690E0
2.391673571E1,3.256213665E-1,-1.237840056E0,9.799766541E0
2.392873424E1,3.375927508E-1,-1.225868702E0,9.797372818E0
2.394073364E1,3.471698463E-1,-1.230657220E0,9.778218269E0
2.395273210E1,3.495641351E-1,-1.261782765E0,9.778218269E0
2.396473050E1,3.280156553E-1,-1.230657220E0,9.797372818E0
2.397672930E1,-1.101366431E-1,-1.319245458E0,9.557945251E0
2.398872770E1,3.902668059E-1,-1.278542757E0,9.802161217E0
2.400072603E1,4.620950520E-1,-1.194743156E0,9.847652435E0
2.401272456E1,1.197137404E-2,-1.051086664E0,9.885960579E0
2.402472302E1,3.304099143E-1,-1.264177084E0,9.797372818E0
2.403672149E1,5.315290093E-1,-1.374313712E0,9.699207306E0
2.404871989E1,2.944957912E-1,-1.201925993E0,9.823709488E0
2.406071748E1,1.652049571E-1,-1.213897347E0,9.787795067E0
2.407271595E1,4.812492430E-1,-1.343188167E0,9.775823593E0
2.408471448E1,3.495641351E-1,-1.422199249E0,9.787795067E0
2.409671288E1,9.577099234E-2,-1.295302629E0,9.885960579E0
2.410871141E1,2.226675600E-1,-1.292908430E0,9.862017632E0
2.412071118E1,2.921015322E-1,-1.333611012E0,9.799766541E0
2.413270984E1,2.777358890E-1,-1.331216812E0,9.780612946E0
2.414470844E1,4.788549542E-1,-1.302485466E0,9.775823593E0
2.415670710E1,5.482889414E-1,-1.302485466E0,9.747093201E0
2.416870576E1,4.956148863E-1,-1.324033976E0,9.718361855E0
2.418070413E1,4.094209969E-1,-1.367130876E0,9.780612946E0
2.419270259E1,2.825244367E-1,-1.424593568E0,9.814132690E0
2.420470086E1,2.657645047E-1,-1.429382086E0,9.842864037E0
2.421669932E1,3.591412306E-1,-1.417410731E0,9.816526413E0
2.422869778E1,4.046324492E-1,-1.359948039E0,9.814132690E0
2.424069545E1,3.711125851E-1,-1.374313712E0,9.778218269E0
2.425269385E1,3.639297783E-1,-1.438959122E0,9.761458397E0
2.426469251E1,2.585816681E-1,-1.431776285E0,9.792584419E0
2.427669098E1,1.891477108E-1,-1.400650740E0,9.818921089E0
2.428868944E1,2.418217510E-1,-1.362342358E0,9.809344292E0
2.430068771E1,2.992843390E-1,-1.324033976E0,9.778218269E0
2.431268617E1,3.040728867E-1,-1.319245458E0,9.780612946E0
2.432468447E1,2.897072434E-1,-1.336005330E0,9.751881599E0
2.433668300E1,2.130904645E-1,-1.364736676E0,9.749486923E0
2.434868197E1,1.867534369E-1,-1.347976685E0,9.775823593E0
2.436068137E1,2.011190802E-1,-1.367130876E0,9.797372818E0
2.437267983E1,2.585816681E-1,-1.376708031E0,9.835680962E0
2.438467813E1,2.609759569E-1,-1.398256540E0,9.816526413E0
2.439667659E1,2.753416002E-1,-1.405439258E0,9.802161217E0
2.440867449E1,2.609759569E-1,-1.424593568E0,9.809344292E0
2.442067379E1,2.442160249E-1,-1.429382086E0,9.790189743E0
2.443267232E1,2.394274771E-1,-1.443747759E0,9.818921089E0
2.444467182E1,2.466102988E-1,-1.458113313E0,9.821314812E0
2.445666935E1,2.178790122E-1,-1.436564922E0,9.833286285E0
2.446866732E1,2.226675600E-1,-1.417410731E0,9.818921089E0
2.448066495E1,2.944957912E-1,-1.381496549E0,9.778218269E0
2.449266341E1,4.070267081E-1,-1.326428294E0,9.725543976E0
2.450466091E1,4.189980924E-1,-1.300091267E0,9.684841156E0
2.451666024E1,3.040728867E-1,-1.300091267E0,9.701601982E0
2.452666084E1,2.130904645E-1,-1.347976685E0,9.723150253E0
2.453865950E1,1.484450400E-1,-1.429382086E0,9.785401344E0
2.455065797E1,1.604164094E-1,-1.448536277E0,9.823709488E0
2.456265600E1,1.508393139E-1,-1.448536277E0,9.866806030E0
