"Time (s)","Gyroscope x (rad/s)","Gyroscope y (rad/s)","Gyroscope z (rad/s)"
2.415707760E-1,-7.922922377E-4,-1.631010236E-4,-6.860016729E-4
2.535669370E-1,3.483764362E-3,-2.606561873E-3,5.357288173E-4
2.655650540E-1,-1.814269781E-4,-1.384831499E-3,-7.513642049E-5
2.775629170E-1,1.651168684E-3,1.669494784E-3,1.146594062E-3
2.895608940E-1,4.294382525E-4,-7.739662542E-4,-7.513642049E-5
3.015593920E-1,1.040303498E-3,-1.631010236E-4,-7.513642049E-5
3.135578570E-1,1.040303498E-3,2.280360088E-3,5.357288173E-4
3.255573540E-1,-7.922922377E-4,-1.995696686E-3,-7.513642049E-5
3.375553190E-1,-1.814269781E-4,-2.606561873E-3,5.357288173E-4
3.495539510E-1,-1.403157483E-3,2.280360088E-3,-1.907732105E-3
3.615524160E-1,-1.814269781E-4,-1.631010236E-4,-1.296866918E-3
3.735513470E-1,-1.814269781E-4,-2.606561873E-3,1.757459249E-3
3.855486450E-1,1.040303498E-3,-7.739662542E-4,-1.296866918E-3
3.975471100E-1,2.262033988E-3,-7.739662542E-4,1.146594062E-3
4.095458410E-1,1.040303498E-3,1.669494784E-3,-6.860016729E-4
4.215446720E-1,-7.922922377E-4,-1.631010236E-4,-6.860016729E-4
4.335426040E-1,2.262033988E-3,-1.631010236E-4,-6.860016729E-4
4.455404360E-1,1.040303498E-3,-1.631010236E-4,-2.518597292E-3
4.575389680E-1,-1.814269781E-4,2.280360088E-3,-7.513642049E-5
4.695370000E-1,-7.922922377E-4,1.058629481E-3,1.146594062E-3
4.815362310E-1,1.040303498E-3,-1.384831499E-3,-7.513642049E-5
4.935346960E-1,-1.814269781E-4,-7.739662542E-4,5.357288173E-4
5.055336610E-1,-1.814269781E-4,-7.739662542E-4,5.357288173E-4
5.175321260E-1,1.040303498E-3,-2.606561873E-3,-6.860016729E-4
5.295311230E-1,-1.403157483E-3,2.280360088E-3,-6.860016729E-4
5.415284220E-1,-1.403157483E-3,-7.739662542E-4,-7.513642049E-5
5.535270200E-1,1.040303498E-3,4.477642069E-4,5.357288173E-4
5.635272170E-1,4.294382525E-4,4.477642069E-4,-6.860016729E-4
5.755248470E-1,2.262033988E-3,4.477642069E-4,5.357288173E-4
5.875233440E-1,-1.814269781E-4,4.477642069E-4,-6.860016729E-4
5.995225410E-1,1.040303498E-3,4.477642069E-4,-7.513642049E-5
6.115216050E-1,4.294382525E-4,-1.631010236E-4,5.357288173E-4
6.235191360E-1,4.294382525E-4,4.477642069E-4,-1.296866918E-3
6.355182010E-1,1.040303498E-3,-1.384831499E-3,-6.860016729E-4
6.475166660E-1,-1.403157483E-3,1.058629481E-3,-7.513642049E-5
6.595141310E-1,-1.403157483E-3,1.058629481E-3,1.146594062E-3
6.715125290E-1,-1.814269781E-4,-1.384831499E-3,2.368324436E-3
6.835109940E-1,-7.922922377E-4,2.891225042E-3,-1.296866918E-3
6.955098920E-1,-2.624887973E-3,-7.739662542E-4,-7.513642049E-5
7.075084240E-1,-1.814269781E-4,2.891225042E-3,1.146594062E-3
7.195074230E-1,4.294382525E-4,-1.384831499E-3,5.357288173E-4
7.315058210E-1,-1.403157483E-3,1.058629481E-3,2.368324436E-3
7.435040860E-1,-2.014022786E-3,-1.631010236E-4,-1.296866918E-3
7.555020510E-1,-1.403157483E-3,-1.631010236E-4,-6.860016729E-4
7.675005160E-1,-7.922922377E-4,-7.739662542E-4,-6.860016729E-4
7.794993140E-1,2.872899408E-3,-1.631010236E-4,-7.513642049E-5
7.914978460E-1,1.040303498E-3,1.669494784E-3,-1.296866918E-3
8.034963110E-1,-2.014022786E-3,-2.606561873E-3,-7.513642049E-5
8.154952750E-1,4.294382525E-4,-2.606561873E-3,-6.860016729E-4
8.274936730E-1,-1.403157483E-3,-1.631010236E-4,5.357288173E-4
8.394914710E-1,-1.403157483E-3,1.058629481E-3,2.368324436E-3
8.514899360E-1,-2.624887973E-3,-7.739662542E-4,1.146594062E-3
8.634884670E-1,1.651168684E-3,-1.384831499E-3,-1.296866918E-3
8.754859990E-1,1.040303498E-3,4.477642069E-4,-1.296866918E-3
8.874844640E-1,-1.403157483E-3,2.280360088E-3,1.146594062E-3
8.994831290E-1,4.294382525E-4,-1.995696686E-3,-6.860016729E-4
9.114815940E-1,4.294382525E-4,2.891225042E-3,-1.907732105E-3
9.234805920E-1,4.294382525E-4,2.280360088E-3,-7.513642049E-5
9.354789900E-1,-2.624887973E-3,-7.739662542E-4,5.357288173E-4
9.474765890E-1,1.040303498E-3,1.058629481E-3,-7.513642049E-5
9.594751870E-1,-1.814269781E-4,-1.995696686E-3,-6.860016729E-4
9.714737510E-1,4.294382525E-4,-1.631010236E-4,-7.513642049E-5
9.834716140E-1,-1.814269781E-4,-1.384831499E-3,5.357288173E-4
9.954708770E-1,-1.403157483E-3,4.477642069E-4,-7.513642049E-5
1.007470407E0,-7.922922377E-4,4.477642069E-4,-1.296866918E-3
1.019469004E0,-7.922922377E-4,-1.631010236E-4,-1.907732105E-3
1.031467136E0,-2.014022786E-3,-1.995696686E-3,-7.513642049E-5
1.043465468E0,-7.922922377E-4,4.477642069E-4,-7.513642049E-5
1.055463899E0,-1.814269781E-4,4.477642069E-4,-6.860016729E-4
1.067462297E0,-1.814269781E-4,-7.739662542E-4,1.757459249E-3
1.079460762E0,1.651168684E-3,-7.739662542E-4,-1.907732105E-3
1.089460860E0,-1.814269781E-4,-7.739662542E-4,-7.513642049E-5
1.101459858E0,2.262033988E-3,1.669494784E-3,-1.907732105E-3
1.113457823E0,-7.922922377E-4,-1.995696686E-3,1.757459249E-3
1.125456355E0,4.294382525E-4,-7.739662542E-4,5.357288173E-4
1.137454820E0,-7.922922377E-4,-1.384831499E-3,-6.860016729E-4
1.149452285E0,2.872899408E-3,-1.631010236E-4,-7.513642049E-5
1.161450750E0,-1.814269781E-4,-1.631010236E-4,-6.860016729E-4
1.173451148E0,-1.403157483E-3,-1.631010236E-4,-1.296866918E-3
1.185449546E0,-1.403157483E-3,4.477642069E-4,-7.513642049E-5
1.197447544E0,-7.922922377E-4,2.280360088E-3,1.146594062E-3
1.209446142E0,2.262033988E-3,-7.739662542E-4,-7.513642049E-5
1.221445073E0,-1.814269781E-4,1.058629481E-3,-1.296866918E-3
1.233442873E0,4.294382525E-4,4.477642069E-4,-1.296866918E-3
1.245442069E0,-7.922922377E-4,-1.384831499E-3,-7.513642049E-5
1.257441366E0,-7.922922377E-4,-7.739662542E-4,5.357288173E-4
1.269440563E0,4.294382525E-4,4.477642069E-4,5.357288173E-4
1.281439361E0,3.483764362E-3,-7.739662542E-4,5.357288173E-4
1.293437293E0,1.040303498E-3,1.058629481E-3,-1.907732105E-3
1.305435892E0,2.262033988E-3,-1.631010236E-4,-3.129462712E-3
1.317435657E0,1.651168684E-3,4.477642069E-4,-7.513642049E-5
1.329434122E0,-1.814269781E-4,-1.631010236E-4,-1.907732105E-3
1.341432153E0,-7.922922377E-4,-7.739662542E-4,-7.513642049E-5
1.353432051E0,-3.235753393E-3,1.669494784E-3,-7.513642049E-5
1.365430516E0,4.294382525E-4,4.477642069E-4,-1.296866918E-3
1.377428014E0,1.040303498E-3,-7.739662542E-4,-1.907732105E-3
1.389426412E0,2.262033988E-3,4.477642069E-4,-1.296866918E-3
1.401425743E0,-2.014022786E-3,-7.739662542E-4,-1.296866918E-3
1.413423375E0,-7.922922377E-4,4.477642069E-4,5.357288173E-4
1.425421840E0,-7.922922377E-4,4.477642069E-4,-7.513642049E-5
1.437420071E0,-7.922922377E-4,4.477642069E-4,1.757459249E-3
1.449418536E0,4.294382525E-4,-1.384831499E-3,-1.907732105E-3
1.461416567E0,-1.403157483E-3,2.280360088E-3,-1.296866918E-3
1.473414632E0,-1.814269781E-4,1.058629481E-3,-6.860016729E-4
1.485413097E0,1.651168684E-3,-7.739662542E-4,5.357288173E-4
1.497411828E0,-1.814269781E-4,4.477642069E-4,-1.296866918E-3
1.509410293E0,4.294382525E-4,-7.739662542E-4,5.357288173E-4
1.521408758E0,4.294382525E-4,-2.606561873E-3,-6.860016729E-4
1.533408023E0,1.040303498E-3,1.669494784E-3,5.357288173E-4
1.545406421E0,1.040303498E-3,4.477642069E-4,-7.513642049E-5
1.557404953E0,4.294382525E-4,-7.739662542E-4,-7.513642049E-5
1.569403418E0,1.040303498E-3,1.058629481E-3,-6.860016729E-4
1.581401916E0,-3.235753393E-3,2.891225042E-3,1.757459249E-3
1.593400512E0,-1.403157483E-3,4.477642069E-4,-6.860016729E-4
1.605399175E0,-2.624887973E-3,-7.739662542E-4,-6.860016729E-4
1.617397838E0,4.294382525E-4,-1.384831499E-3,-6.860016729E-4
1.629396568E0,-1.814269781E-4,2.891225042E-3,5.357288173E-4
1.641395432E0,-1.814269781E-4,-7.739662542E-4,1.146594062E-3
1.653394163E0,4.294382525E-4,-1.631010236E-4,5.357288173E-4
1.665392628E0,-2.014022786E-3,2.280360088E-3,1.146594062E-3
1.677390660E0,1.040303498E-3,-1.995696686E-3,-7.513642049E-5
1.689389125E0,4.294382525E-4,-1.631010236E-4,-7.513642049E-5
1.701387290E0,-7.922922377E-4,-1.384831499E-3,-7.513642049E-5
1.713385489E0,2.872899408E-3,-2.606561873E-3,-6.860016729E-4
1.725384021E0,-7.922922377E-4,-2.606561873E-3,1.146594062E-3
1.737382919E0,4.294382525E-4,-1.995696686E-3,1.146594062E-3
1.749381317E0,1.040303498E-3,-1.631010236E-4,-6.860016729E-4
1.761379782E0,4.294382525E-4,-1.631010236E-4,-6.860016729E-4
1.773377314E0,4.294382525E-4,1.058629481E-3,-6.860016729E-4
1.785376546E0,2.872899408E-3,-7.739662542E-4,-7.513642049E-5
1.797374578E0,-1.814269781E-4,2.891225042E-3,-1.296866918E-3
1.809373043E0,-7.922922377E-4,4.477642069E-4,-6.860016729E-4
1.821371674E0,1.651168684E-3,4.477642069E-4,5.357288173E-4
1.833370172E0,-1.814269781E-4,1.058629481E-3,-1.907732105E-3
1.845367870E0,-1.814269781E-4,2.280360088E-3,-7.513642049E-5
1.857366668E0,1.651168684E-3,-3.828292713E-3,-6.860016729E-4
1.869365133E0,2.872899408E-3,1.058629481E-3,-1.907732105E-3
1.881363798E0,-1.814269781E-4,-1.995696686E-3,-1.296866918E-3
1.893362730E0,-1.814269781E-4,2.280360088E-3,5.357288173E-4
1.905361128E0,4.294382525E-4,-7.739662542E-4,1.146594062E-3
1.917359893E0,-1.814269781E-4,-1.631010236E-4,-6.860016729E-4
1.929358358E0,4.294382525E-4,1.058629481E-3,-6.860016729E-4
1.941356223E0,1.040303498E-3,1.058629481E-3,-7.513642049E-5
1.953355321E0,-7.922922377E-4,-7.739662542E-4,5.357288173E-4
1.965353786E0,1.040303498E-3,-1.384831499E-3,-6.860016729E-4
1.977351651E0,-7.922922377E-4,4.477642069E-4,-6.860016729E-4
1.989350182E0,1.040303498E-3,2.280360088E-3,-6.860016729E-4
2.001349145E0,1.040303498E-3,-7.739662542E-4,5.357288173E-4
2.013348608E0,-2.014022786E-3,1.058629481E-3,5.357288173E-4
2.025347271E0,-1.814269781E-4,-3.217427293E-3,-6.860016729E-4
2.037346334E0,-1.814269781E-4,4.477642069E-4,-6.860016729E-4
2.049344998E0,4.294382525E-4,-1.384831499E-3,-1.296866918E-3
2.061343329E0,4.294382525E-4,4.477642069E-4,-7.513642049E-5
2.073339761E0,-1.403157483E-3,-1.631010236E-4,-7.513642049E-5
2.085338226E0,4.294382525E-4,1.058629481E-3,5.357288173E-4
2.097336357E0,-1.814269781E-4,-1.631010236E-4,1.146594062E-3
2.109334755E0,-1.403157483E-3,1.058629481E-3,-7.513642049E-5
2.121333287E0,4.294382525E-4,-1.384831499E-3,-6.860016729E-4
2.131333353E0,1.040303498E-3,-1.631010236E-4,-7.513642049E-5
2.143332751E0,-1.814269781E-4,-1.995696686E-3,-7.513642049E-5
2.155331482E0,-1.814269781E-4,-1.631010236E-4,-6.860016729E-4
2.167329613E0,-7.922922377E-4,2.891225042E-3,-7.513642049E-5
2.179328211E0,-7.922922377E-4,-7.739662542E-4,-7.513642049E-5
2.191325309E0,1.040303498E-3,-1.631010236E-4,5.357288173E-4
2.203324873E0,-2.014022786E-3,-7.739662542E-4,-1.296866918E-3
2.215323338E0,-1.814269781E-4,4.477642069E-4,-1.296866918E-3
2.227322203E0,4.294382525E-4,-2.606561873E-3,1.146594062E-3
2.239320535E0,4.294382525E-4,-7.739662542E-4,5.357288173E-4
2.251319099E0,1.040303498E-3,-1.631010236E-4,-7.513642049E-5
2.263316596E0,-1.814269781E-4,1.669494784E-3,5.357288173E-4
2.275315926E0,-1.814269781E-4,1.058629481E-3,5.357288173E-4
2.287315323E0,-7.922922377E-4,-1.631010236E-4,-6.860016729E-4
2.299315055E0,-1.403157483E-3,-7.739662542E-4,-7.513642049E-5
2.311314452E0,1.040303498E-3,-1.384831499E-3,-7.513642049E-5
2.321314782E0,1.040303498E-3,1.669494784E-3,1.757459249E-3
2.333314212E0,-1.403157483E-3,-7.739662542E-4,1.146594062E-3
2.345313810E0,-1.814269781E-4,-2.606561873E-3,1.146594062E-3
2.357313006E0,4.294382525E-4,-7.739662542E-4,-6.860016729E-4
2.369312537E0,-1.814269781E-4,4.477642069E-4,5.357288173E-4
2.381310135E0,1.040303498E-3,-3.217427293E-3,-7.513642049E-5
2.393308868E0,-2.624887973E-3,-1.384831499E-3,1.146594062E-3
2.405307266E0,-7.922922377E-4,4.477642069E-4,-6.860016729E-4
2.417305164E0,-1.814269781E-4,1.669494784E-3,-1.907732105E-3
2.429303629E0,-7.922922377E-4,1.058629481E-3,-7.513642049E-5
2.441303027E0,1.651168684E-3,1.058629481E-3,5.357288173E-4
2.453301258E0,-1.403157483E-3,1.058629481E-3,-7.513642049E-5
2.465299690E0,1.040303498E-3,2.280360088E-3,5.357288173E-4
2.477298789E0,-1.814269781E-4,-7.739662542E-4,-1.907732105E-3
2.489297254E0,-1.403157483E-3,4.477642069E-4,-6.860016729E-4
2.501295619E0,-1.814269781E-4,1.058629481E-3,-1.296866918E-3
2.513294250E0,-7.922922377E-4,-1.631010236E-4,-1.296866918E-3
2.525292915E0,1.651168684E-3,1.058629481E-3,-1.907732105E-3
2.537291380E0,4.294382525E-4,-1.384831499E-3,-7.513642049E-5
2.549290412E0,1.040303498E-3,-1.631010236E-4,-7.513642049E-5
2.561287577E0,-1.814269781E-4,1.058629481E-3,1.146594062E-3
2.573286042E0,1.040303498E-3,-7.739662542E-4,5.357288173E-4
2.585284340E0,-1.403157483E-3,-4.439157899E-3,5.357288173E-4
2.597282439E0,-7.922922377E-4,-2.606561873E-3,-7.513642049E-5
2.609280570E0,-7.922922377E-4,4.477642069E-4,-1.296866918E-3
2.621279968E0,-7.922922377E-4,-2.606561873E-3,-6.860016729E-4
2.633278000E0,2.262033988E-3,4.477642069E-4,-6.860016729E-4
2.645276865E0,-7.922922377E-4,2.280360088E-3,-7.513642049E-5
2.657275230E0,-7.922922377E-4,-1.384831499E-3,5.357288173E-4
2.669273395E0,4.294382525E-4,-1.384831499E-3,5.357288173E-4
2.681270893E0,1.040303498E-3,2.891225042E-3,-6.860016729E-4
2.693269858E0,-7.922922377E-4,-1.631010236E-4,2.979189856E-3
2.705267990E0,4.294382525E-4,-1.995696686E-3,-7.513642049E-5
2.717267054E0,4.294382525E-4,4.477642069E-4,5.357288173E-4
2.729265784E0,4.294382525E-4,1.058629481E-3,1.146594062E-3
2.741264881E0,4.294382525E-4,1.058629481E-3,-7.513642049E-5
2.753263511E0,2.872899408E-3,1.058629481E-3,-1.296866918E-3
2.765262107E0,-2.014022786E-3,-1.384831499E-3,2.368324436E-3
2.777260572E0,-2.624887973E-3,1.058629481E-3,5.357288173E-4
2.789259037E0,4.294382525E-4,-2.606561873E-3,5.357288173E-4
2.801258369E0,-7.922922377E-4,-1.631010236E-4,5.357288173E-4
2.813256401E0,1.040303498E-3,4.477642069E-4,-6.860016729E-4
2.825254799E0,1.651168684E-3,3.502090462E-3,1.757459249E-3
2.837252897E0,1.040303498E-3,-7.739662542E-4,-7.513642049E-5
2.849251362E0,1.040303498E-3,-1.995696686E-3,5.357288173E-4
2.861249794E0,4.294382525E-4,4.477642069E-4,-7.513642049E-5
2.873248558E0,-7.922922377E-4,4.477642069E-4,-6.860016729E-4
2.885247090E0,-2.014022786E-3,-2.606561873E-3,-1.296866918E-3
2.897246122E0,4.294382525E-4,1.058629481E-3,-6.860016729E-4
2.909244154E0,-1.403157483E-3,1.058629481E-3,5.357288173E-4
2.921241785E0,1.040303498E-3,1.058629481E-3,-7.513642049E-5
2.933240017E0,-1.814269781E-4,1.058629481E-3,-7.513642049E-5
2.945239382E0,-7.922922377E-4,1.669494784E-3,-6.860016729E-4
2.957237714E0,1.040303498E-3,1.669494784E-3,-1.907732105E-3
2.969236612E0,2.262033988E-3,1.669494784E-3,1.146594062E-3
2.981235110E0,-7.922922377E-4,-1.384831499E-3,-7.513642049E-5
2.993234075E0,4.294382525E-4,-1.384831499E-3,2.368324436E-3
3.005231640E0,-7.922922377E-4,-7.739662542E-4,5.357288173E-4
3.017230105E0,-1.403157483E-3,-7.739662542E-4,-1.296866918E-3
3.029228503E0,1.651168684E-3,1.058629481E-3,-7.513642049E-5
3.039228668E0,4.294382525E-4,-1.631010236E-4,-6.860016729E-4
3.051226766E0,-1.814269781E-4,4.477642069E-4,5.357288173E-4
3.063224631E0,-2.014022786E-3,1.058629481E-3,1.146594062E-3
3.075223029E0,-3.846618347E-3,-7.739662542E-4,1.146594062E-3
3.087221494E0,2.262033988E-3,-1.631010236E-4,2.368324436E-3
3.099220292E0,-1.814269781E-4,-7.739662542E-4,1.146594062E-3
3.111219190E0,-1.814269781E-4,1.058629481E-3,-7.513642049E-5
3.123218220E0,-1.814269781E-4,1.058629481E-3,-7.513642049E-5
3.135216950E0,-7.922922377E-4,1.058629481E-3,-6.860016729E-4
3.147215680E0,-1.814269781E-4,-7.739662542E-4,-6.860016729E-4
3.158418730E0,-7.922922377E-4,-7.739662542E-4,5.357288173E-4
3.170416727E0,-7.922922377E-4,-1.384831499E-3,2.368324436E-3
3.182415025E0,4.294382525E-4,1.669494784E-3,2.368324436E-3
3.194413490E0,4.294382525E-4,4.477642069E-4,-6.860016729E-4
3.206411955E0,-1.814269781E-4,1.669494784E-3,-1.296866918E-3
3.218410386E0,-7.922922377E-4,-7.739662542E-4,-6.860016729E-4
3.230409517E0,-7.922922377E-4,-1.384831499E-3,-6.860016729E-4
3.242408182E0,-1.814269781E-4,1.058629481E-3,-2.518597292E-3
3.254406647E0,2.872899408E-3,2.280360088E-3,1.146594062E-3
3.266404612E0,-7.922922377E-4,-2.606561873E-3,-1.296866918E-3
3.278402144E0,1.040303498E-3,-1.384831499E-3,-6.860016729E-4
3.290400609E0,1.040303498E-3,-7.739662542E-4,-7.513642049E-5
3.302399141E0,4.294382525E-4,1.669494784E-3,-1.907732105E-3
3.314397739E0,-1.814269781E-4,-7.739662542E-4,-6.860016729E-4
3.326396570E0,1.040303498E-3,4.477642069E-4,-1.296866918E-3
3.338395968E0,-1.814269781E-4,4.112955648E-3,5.357288173E-4
3.350394499E0,-2.014022786E-3,-1.995696686E-3,1.146594062E-3
3.362392729E0,-1.403157483E-3,-7.739662542E-4,-1.907732105E-3
3.374391395E0,4.294382525E-4,4.477642069E-4,5.357288173E-4
3.386390591E0,-1.814269781E-4,-1.995696686E-3,-1.907732105E-3
3.398389921E0,-1.814269781E-4,-1.631010236E-4,-2.518597292E-3
3.410389118E0,-1.814269781E-4,-2.606561873E-3,-6.860016729E-4
3.422388816E0,-7.922922377E-4,-1.631010236E-4,-6.860016729E-4
3.434387682E0,-1.814269781E-4,-1.631010236E-4,-7.513642049E-5
3.446386114E0,-1.403157483E-3,4.477642069E-4,-6.860016729E-4
3.458384579E0,1.040303498E-3,-2.606561873E-3,-6.860016729E-4
3.470383611E0,-1.814269781E-4,-1.631010236E-4,-6.860016729E-4
3.482381809E0,-7.922922377E-4,-7.739662542E-4,-6.860016729E-4
3.494379841E0,-1.403157483E-3,-2.606561873E-3,1.146594062E-3
3.506378473E0,-7.922922377E-4,-1.384831499E-3,1.146594062E-3
3.518376938E0,4.294382525E-4,4.477642069E-4,5.357288173E-4
3.530374769E0,4.294382525E-4,4.477642069E-4,-7.513642049E-5
3.542372800E0,-2.014022786E-3,1.058629481E-3,1.146594062E-3
3.554371999E0,2.872899408E-3,2.891225042E-3,1.757459249E-3
3.566370531E0,-2.624887973E-3,4.477642069E-4,-6.860016729E-4
3.578367996E0,-1.814269781E-4,-7.739662542E-4,-1.296866918E-3
3.590366461E0,-1.814269781E-4,-1.631010236E-4,-1.296866918E-3
3.602365359E0,4.294382525E-4,-7.739662542E-4,-1.296866918E-3
3.614363591E0,-1.814269781E-4,-1.384831499E-3,5.357288173E-4
3.626362089E0,4.294382525E-4,4.477642069E-4,-2.518597292E-3
3.638360621E0,-7.922922377E-4,1.058629481E-3,5.357288173E-4
3.650359153E0,1.040303498E-3,-1.995696686E-3,1.146594062E-3
3.662357218E0,1.040303498E-3,4.477642069E-4,5.357288173E-4
3.674355683E0,-1.814269781E-4,3.502090462E-3,-7.513642049E-5
3.686353981E0,-7.922922377E-4,-1.384831499E-3,1.146594062E-3
3.698353313E0,2.262033988E-3,-1.384831499E-3,5.357288173E-4
3.710351778E0,1.040303498E-3,1.669494784E-3,-7.513642049E-5
3.722350710E0,4.294382525E-4,-1.995696686E-3,5.357288173E-4
3.734349108E0,-1.403157483E-3,-1.384831499E-3,-2.518597292E-3
3.746348238E0,-7.922922377E-4,1.058629481E-3,-7.513642049E-5
3.758346901E0,-7.922922377E-4,-1.995696686E-3,5.357288173E-4
3.770345564E0,-7.922922377E-4,1.058629481E-3,-7.513642049E-5
3.782344160E0,-7.922922377E-4,4.477642069E-4,5.357288173E-4
3.794342423E0,2.262033988E-3,-1.631010236E-4,-6.860016729E-4
3.806340488E0,-7.922922377E-4,-1.631010236E-4,-7.513642049E-5
3.818338386E0,4.294382525E-4,-2.606561873E-3,-7.513642049E-5
3.830336851E0,-1.814269781E-4,4.477642069E-4,1.146594062E-3
3.842335249E0,-1.814269781E-4,-7.739662542E-4,-1.907732105E-3
3.854334114E0,4.294382525E-4,-2.606561873E-3,-6.860016729E-4
3.866332579E0,1.651168684E-3,-1.631010236E-4,5.357288173E-4
3.878330777E0,-1.814269781E-4,2.280360088E-3,-1.907732105E-3
3.890328242E0,4.294382525E-4,-1.631010236E-4,-1.296866918E-3
3.902326774E0,4.294382525E-4,-7.739662542E-4,5.357288173E-4
3.914325239E0,-2.624887973E-3,2.280360088E-3,-1.296866918E-3
3.926323704E0,-2.624887973E-3,-1.384831499E-3,1.757459249E-3
3.938323002E0,-1.814269781E-4,1.058629481E-3,-7.513642049E-5
3.950321967E0,-1.814269781E-4,4.477642069E-4,-2.518597292E-3
3.962320432E0,3.483764362E-3,1.669494784E-3,-1.907732105E-3
3.974318964E0,1.651168684E-3,1.669494784E-3,5.357288173E-4
3.986317429E0,4.294382525E-4,-7.739662542E-4,-1.296866918E-3
3.998314894E0,-7.922922377E-4,-1.631010236E-4,-1.296866918E-3
4.010313792E0,-1.814269781E-4,-7.739662542E-4,-1.296866918E-3
4.022312257E0,1.040303498E-3,1.058629481E-3,-1.296866918E-3
4.034310389E0,9.767734446E-4,1.611462445E-3,-1.117883483E-3
4.046308887E0,-1.466687419E-3,1.611462445E-3,1.038470946E-4
4.058308186E0,-2.449569583E-4,3.897320421E-4,-5.070181214E-4
4.070306718E0,-8.558222326E-4,1.611462445E-3,7.147123106E-4
4.082304917E0,3.659082868E-4,1.611462445E-3,-1.117883483E-3
4.094303615E0,1.587638748E-3,-2.053729026E-3,-5.070181214E-4
4.106301980E0,9.767734446E-4,1.611462445E-3,1.038470946E-4
4.118300612E0,3.659082868E-4,1.000597258E-3,-1.117883483E-3
4.130299077E0,3.659082868E-4,-2.211332176E-4,-5.070181214E-4
4.142297875E0,-8.558222326E-4,3.897320421E-4,7.147123106E-4
4.154296539E0,-1.466687419E-3,2.833193168E-3,1.936442801E-3
4.166295369E0,9.767734446E-4,-8.319984772E-4,-5.070181214E-4
4.178293265E0,-2.449569583E-4,1.000597258E-3,-5.070181214E-4
4.190292262E0,-1.466687419E-3,-1.442863722E-3,-5.070181214E-4
4.202290792E0,-2.449569583E-4,-1.442863722E-3,7.147123106E-4
4.214289290E0,-2.688417910E-3,-2.664594213E-3,-1.117883483E-3
4.226287655E0,3.659082868E-4,2.222327748E-3,1.936442801E-3
4.238286887E0,1.587638748E-3,-1.442863722E-3,7.147123106E-4
4.250284952E0,-1.466687419E-3,-8.319984772E-4,-1.728748670E-3
4.262283383E0,-2.077552723E-3,-2.211332176E-4,1.038470946E-4
4.274281848E0,-2.449569583E-4,-2.053729026E-3,-5.070181214E-4
4.286280313E0,-8.558222326E-4,-8.319984772E-4,-5.070181214E-4
4.298278778E0,-2.449569583E-4,1.000597258E-3,-1.117883483E-3
4.310277243E0,-8.558222326E-4,-2.053729026E-3,1.038470946E-4
4.322275808E0,-1.466687419E-3,-2.053729026E-3,1.038470946E-4
4.334274273E0,-8.558222326E-4,-1.442863722E-3,1.325577614E-3
4.346272605E0,-2.077552723E-3,-8.319984772E-4,1.325577614E-3
4.358271303E0,-2.077552723E-3,1.611462445E-3,1.325577614E-3
4.370269768E0,2.809369238E-3,-1.442863722E-3,-2.950479044E-3
4.382268233E0,-2.449569583E-4,1.000597258E-3,1.325577614E-3
4.394266765E0,1.587638748E-3,-3.886324586E-3,2.547307871E-3
4.406265495E0,1.587638748E-3,1.000597258E-3,-5.070181214E-4
4.418264359E0,-1.466687419E-3,1.000597258E-3,-1.117883483E-3
4.430263390E0,3.659082868E-4,-8.319984772E-4,1.038470946E-4
4.442263088E0,-1.466687419E-3,-8.319984772E-4,-5.070181214E-4
4.454262851E0,9.767734446E-4,-1.442863722E-3,1.038470946E-4
4.466262681E0,-2.449569583E-4,-2.211332176E-4,1.936442801E-3
4.478261745E0,3.659082868E-4,3.897320421E-4,-5.070181214E-4
4.488261776E0,-1.466687419E-3,-2.211332176E-4,7.147123106E-4
4.500260939E0,-8.558222326E-4,-2.211332176E-4,1.038470946E-4
4.512260037E0,-2.449569583E-4,-8.319984772E-4,1.325577614E-3
4.524258969E0,3.659082868E-4,-2.211332176E-4,-1.117883483E-3
4.536258268E0,-2.077552723E-3,1.611462445E-3,-5.070181214E-4
4.548256733E0,-8.558222326E-4,-2.053729026E-3,1.038470946E-4
4.560255231E0,3.659082868E-4,-8.319984772E-4,-5.070181214E-4
4.572253763E0,-3.299283329E-3,-2.053729026E-3,1.038470946E-4
4.584252228E0,-8.558222326E-4,1.000597258E-3,-2.339613857E-3
4.596250693E0,3.659082868E-4,2.222327748E-3,1.038470946E-4
4.608249091E0,-2.077552723E-3,-2.053729026E-3,-5.070181214E-4
4.620247556E0,-8.558222326E-4,3.897320421E-4,1.936442801E-3
4.632246021E0,3.659082868E-4,-8.319984772E-4,1.038470946E-4
4.644244553E0,-1.466687419E-3,1.000597258E-3,1.325577614E-3
4.656242951E0,3.659082868E-4,3.897320421E-4,1.325577614E-3
4.668241416E0,-8.558222326E-4,4.054923542E-3,-1.117883483E-3
4.680239881E0,-1.466687419E-3,1.611462445E-3,1.038470946E-4
4.692238346E0,-2.449569583E-4,1.611462445E-3,1.325577614E-3
4.704236744E0,-8.558222326E-4,-1.442863722E-3,1.038470946E-4
4.716235976E0,2.198504051E-3,-1.442863722E-3,-5.070181214E-4
4.728234508E0,-2.449569583E-4,-2.053729026E-3,7.147123106E-4
4.740233040E0,9.767734446E-4,-2.211332176E-4,1.038470946E-4
4.752231505E0,-2.449569583E-4,1.611462445E-3,1.936442801E-3
4.764229903E0,-8.558222326E-4,-2.664594213E-3,1.936442801E-3
4.776226768E0,3.659082868E-4,1.611462445E-3,1.325577614E-3
4.788225233E0,3.659082868E-4,-1.442863722E-3,1.325577614E-3
4.800224165E0,-8.558222326E-4,3.897320421E-4,-5.070181214E-4
4.812222563E0,-8.558222326E-4,2.833193168E-3,1.325577614E-3
4.824222228E0,1.587638748E-3,3.897320421E-4,-2.339613857E-3
4.836221393E0,-2.449569583E-4,-2.053729026E-3,7.147123106E-4
4.848219858E0,-8.558222326E-4,-2.211332176E-4,-5.070181214E-4
4.860217789E0,-1.466687419E-3,2.222327748E-3,1.038470946E-4
4.872216419E0,-2.449569583E-4,-2.211332176E-4,1.038470946E-4
4.884213949E0,-2.077552723E-3,1.000597258E-3,-1.728748670E-3
4.896211879E0,3.659082868E-4,1.000597258E-3,7.147123106E-4
4.908210542E0,9.767734446E-4,-8.319984772E-4,1.038470946E-4
4.920209638E0,-8.558222326E-4,1.611462445E-3,1.038470946E-4
4.932208136E0,-2.449569583E-4,1.611462445E-3,-1.728748670E-3
4.944206168E0,9.767734446E-4,-1.442863722E-3,1.325577614E-3
4.956205566E0,-2.449569583E-4,-8.319984772E-4,-1.117883483E-3
4.968203964E0,-2.077552723E-3,2.833193168E-3,-1.728748670E-3
4.980201996E0,9.767734446E-4,1.611462445E-3,1.038470946E-4
4.992200528E0,-2.449569583E-4,1.611462445E-3,-5.070181214E-4
5.004199426E0,-8.558222326E-4,1.000597258E-3,1.038470946E-4
5.016197824E0,-8.558222326E-4,-2.053729026E-3,7.147123106E-4
5.028196289E0,-1.466687419E-3,-2.211332176E-4,-1.117883483E-3
5.040195320E0,-1.466687419E-3,3.897320421E-4,-5.070181214E-4
5.052193785E0,3.659082868E-4,-2.053729026E-3,-1.117883483E-3
5.064192150E0,-2.449569583E-4,3.897320421E-4,1.038470946E-4
5.076189715E0,-2.077552723E-3,3.897320421E-4,-1.117883483E-3
5.088188380E0,-2.688417910E-3,-8.319984772E-4,-1.728748670E-3
5.100186845E0,-8.558222326E-4,1.000597258E-3,-1.728748670E-3
5.112185310E0,-2.449569583E-4,-2.211332176E-4,1.038470946E-4
5.124183808E0,-8.558222326E-4,1.611462445E-3,-5.070181214E-4
5.136182906E0,3.659082868E-4,-1.442863722E-3,-1.728748670E-3
5.148181238E0,-8.558222326E-4,-2.053729026E-3,-5.070181214E-4
5.160179136E0,-1.466687419E-3,1.000597258E-3,1.936442801E-3
5.172177534E0,-8.558222326E-4,3.897320421E-4,-5.070181214E-4
5.184175999E0,-2.449569583E-4,-8.319984772E-4,-5.070181214E-4
5.196174731E0,-1.466687419E-3,1.000597258E-3,-5.070181214E-4
5.208173196E0,-2.449569583E-4,-2.053729026E-3,7.147123106E-4
5.220171661E0,-2.449569583E-4,-2.211332176E-4,7.147123106E-4
5.232170126E0,-2.688417910E-3,-2.211332176E-4,1.038470946E-4
5.244169491E0,-8.558222326E-4,3.897320421E-4,1.325577614E-3
5.256167023E0,-2.449569583E-4,-2.211332176E-4,1.325577614E-3
5.268164988E0,1.587638748E-3,3.897320421E-4,1.038470946E-4
5.280163584E0,1.587638748E-3,-2.211332176E-4,-5.070181214E-4
5.292162147E0,3.659082868E-4,-1.442863722E-3,-5.070181214E-4
5.304160644E0,3.659082868E-4,-2.053729026E-3,-1.117883483E-3
5.316160307E0,-3.299283329E-3,-8.319984772E-4,-5.070181214E-4
5.328159403E0,-2.449569583E-4,-2.211332176E-4,1.325577614E-3
5.340157868E0,-2.449569583E-4,-8.319984772E-4,1.936442801E-3
5.352156433E0,9.767734446E-4,3.897320421E-4,1.038470946E-4
5.364154231E0,3.659082868E-4,1.611462445E-3,1.038470946E-4
5.376151696E0,-2.449569583E-4,3.897320421E-4,-1.117883483E-3
5.388150161E0,3.659082868E-4,-1.442863722E-3,7.147123106E-4
5.400148659E0,-1.466687419E-3,-2.211332176E-4,-5.070181214E-4
5.412147091E0,-8.558222326E-4,-2.211332176E-4,1.038470946E-4
5.424145556E0,-1.466687419E-3,1.000597258E-3,-1.117883483E-3
5.436143954E0,-8.558222326E-4,-2.053729026E-3,1.325577614E-3
5.448142419E0,-2.449569583E-4,-8.319984772E-4,1.936442801E-3
5.460140917E0,-2.449569583E-4,3.897320421E-4,-5.070181214E-4
5.472139482E0,-2.449569583E-4,1.000597258E-3,-5.070181214E-4
5.484137880E0,-2.449569583E-4,-2.211332176E-4,-5.070181214E-4
5.496137478E0,9.767734446E-4,-8.319984772E-4,1.038470946E-4
5.508136243E0,9.767734446E-4,1.000597258E-3,-5.070181214E-4
5.520135175E0,-1.466687419E-3,-1.442863722E-3,-1.117883483E-3
5.532134371E0,-1.466687419E-3,1.000597258E-3,-5.070181214E-4
5.544133634E0,-2.077552723E-3,-2.664594213E-3,1.936442801E-3
5.556132398E0,3.659082868E-4,-2.211332176E-4,-1.728748670E-3
5.568131429E0,3.659082868E-4,-2.211332176E-4,1.325577614E-3
5.580130229E0,1.587638748E-3,2.222327748E-3,1.325577614E-3
5.592128627E0,-2.449569583E-4,-2.211332176E-4,7.147123106E-4
5.604127092E0,9.767734446E-4,-8.319984772E-4,1.038470946E-4
5.616125024E0,9.767734446E-4,3.897320421E-4,1.325577614E-3
5.628123489E0,3.659082868E-4,-8.319984772E-4,3.158173291E-3
5.640121887E0,-1.466687419E-3,-8.319984772E-4,1.325577614E-3
5.652120519E0,-2.449569583E-4,-1.442863722E-3,1.038470946E-4
5.664118918E0,-8.558222326E-4,2.222327748E-3,1.038470946E-4
5.676117416E0,9.767734446E-4,3.444058122E-3,-1.117883483E-3
5.688115814E0,9.767734446E-4,-2.053729026E-3,-5.070181214E-4
5.700114246E0,-2.449569583E-4,1.000597258E-3,1.038470946E-4
5.712113145E0,3.659082868E-4,1.611462445E-3,-5.070181214E-4
5.724111943E0,-1.466687419E-3,3.897320421E-4,1.038470946E-4
5.736111275E0,-8.558222326E-4,3.897320421E-4,1.038470946E-4
5.748109740E0,9.767734446E-4,-8.319984772E-4,-1.728748670E-3
5.760108238E0,-8.558222326E-4,1.000597258E-3,-1.117883483E-3
5.772106136E0,-1.466687419E-3,-2.211332176E-4,-1.728748670E-3
5.784104068E0,1.587638748E-3,1.000597258E-3,-5.070181214E-4
5.796101699E0,-2.449569583E-4,1.611462445E-3,1.038470946E-4
5.808100164E0,-2.449569583E-4,-8.319984772E-4,1.038470946E-4
5.820098696E0,-8.558222326E-4,1.000597258E-3,-5.070181214E-4
5.832097194E0,-2.449569583E-4,-1.442863722E-3,-5.070181214E-4
5.844095925E0,-2.077552723E-3,-1.442863722E-3,-1.117883483E-3
5.856095157E0,9.767734446E-4,2.833193168E-3,-5.070181214E-4
5.868093622E0,9.767734446E-4,3.897320421E-4,-1.117883483E-3
5.880091920E0,9.767734446E-4,-8.319984772E-4,1.038470946E-4
5.892090385E0,-2.449569583E-4,3.897320421E-4,1.936442801E-3
5.904089015E0,-2.449569583E-4,-8.319984772E-4,1.325577614E-3
5.916087745E0,-2.077552723E-3,-8.319984772E-4,1.038470946E-4
5.928086408E0,3.659082868E-4,1.611462445E-3,1.325577614E-3
5.940085205E0,2.198504051E-3,-2.211332176E-4,1.325577614E-3
5.952083801E0,9.767734446E-4,2.833193168E-3,1.038470946E-4
5.964081899E0,-2.449569583E-4,-1.442863722E-3,1.038470946E-4
5.976079431E0,3.659082868E-4,-8.319984772E-4,1.325577614E-3
5.988077963E0,3.659082868E-4,1.611462445E-3,-5.070181214E-4
6.000076061E0,1.587638748E-3,-1.442863722E-3,1.038470946E-4
6.012074526E0,-1.466687419E-3,2.222327748E-3,-1.117883483E-3
6.024073958E0,9.767734446E-4,-2.211332176E-4,2.547307871E-3
6.036073089E0,-8.558222326E-4,3.897320421E-4,1.038470946E-4
6.048071487E0,3.659082868E-4,-2.211332176E-4,1.038470946E-4
6.060070752E0,3.659082868E-4,1.611462445E-3,1.936442801E-3
6.072069284E0,9.767734446E-4,3.897320421E-4,1.038470946E-4
6.084067182E0,-2.449569583E-4,-8.319984772E-4,1.936442801E-3
6.096065914E0,1.587638748E-3,3.897320421E-4,-5.070181214E-4
6.108064312E0,-1.466687419E-3,-2.053729026E-3,1.936442801E-3
6.120062677E0,-2.449569583E-4,-2.053729026E-3,7.147123106E-4
6.132060709E0,-8.558222326E-4,1.000597258E-3,-1.728748670E-3
6.144059241E0,-2.449569583E-4,-2.664594213E-3,1.038470946E-4
6.156058139E0,9.767734446E-4,-3.275459632E-3,1.038470946E-4
6.168056671E0,-1.466687419E-3,3.897320421E-4,1.936442801E-3
6.180054769E0,-2.688417910E-3,-1.442863722E-3,-5.070181214E-4
6.192053667E0,3.659082868E-4,1.000597258E-3,1.038470946E-4
6.204052065E0,-8.558222326E-4,3.897320421E-4,-1.117883483E-3
6.216050030E0,-1.466687419E-3,1.611462445E-3,1.325577614E-3
6.228048495E0,1.587638748E-3,-2.211332176E-4,1.038470946E-4
6.240047027E0,-2.688417910E-3,1.000597258E-3,-5.070181214E-4
6.252045092E0,3.659082868E-4,-8.319984772E-4,1.325577614E-3
6.264043290E0,2.198504051E-3,1.611462445E-3,-5.070181214E-4
6.276040888E0,-2.449569583E-4,-1.442863722E-3,-2.339613857E-3
6.288039353E0,-2.449569583E-4,2.833193168E-3,1.038470946E-4
6.300037818E0,3.659082868E-4,1.611462445E-3,-5.070181214E-4
6.312036814E0,9.767734446E-4,3.897320421E-4,1.038470946E-4
6.324036145E0,9.767734446E-4,-1.442863722E-3,1.038470946E-4
6.336035442E0,3.659082868E-4,2.222327748E-3,-2.950479044E-3
6.348034105E0,-2.449569583E-4,1.611462445E-3,1.038470946E-4
6.360032701E0,1.587638748E-3,-2.053729026E-3,-5.070181214E-4
6.372032032E0,3.659082868E-4,3.897320421E-4,-5.070181214E-4
6.384030097E0,9.767734446E-4,3.897320421E-4,-5.070181214E-4
6.396028862E0,-8.558222326E-4,-1.442863722E-3,1.325577614E-3
6.408027327E0,-2.077552723E-3,-1.442863722E-3,7.147123106E-4
6.420025792E0,-2.449569583E-4,3.897320421E-4,-1.117883483E-3
6.432023390E0,-8.558222326E-4,-8.319984772E-4,1.038470946E-4
6.444022088E0,9.767734446E-4,-8.319984772E-4,-5.070181214E-4
6.456020553E0,-8.558222326E-4,-2.211332176E-4,1.038470946E-4
6.468018951E0,-2.077552723E-3,-1.442863722E-3,1.038470946E-4
6.480017416E0,3.659082868E-4,-2.211332176E-4,1.325577614E-3
6.492015948E0,-2.077552723E-3,-2.211332176E-4,1.038470946E-4
6.504014179E0,-2.449569583E-4,-1.442863722E-3,2.547307871E-3
6.516012910E0,-2.449569583E-4,-2.211332176E-4,-5.070181214E-4
6.528011375E0,-8.558222326E-4,2.222327748E-3,-5.070181214E-4
6.540009939E0,3.659082868E-4,-2.211332176E-4,1.038470946E-4
6.552008702E0,-2.449569583E-4,-2.211332176E-4,7.147123106E-4
6.564007932E0,9.767734446E-4,1.611462445E-3,-1.117883483E-3
6.576006397E0,-2.449569583E-4,-8.319984772E-4,1.325577614E-3
6.588006194E0,-8.558222326E-4,1.611462445E-3,1.038470946E-4
6.600006024E0,-8.558222326E-4,3.897320421E-4,-5.070181214E-4
6.612005787E0,1.587638748E-3,1.611462445E-3,1.038470946E-4
6.624005518E0,9.767734446E-4,-2.211332176E-4,-5.070181214E-4
6.634005782E0,-1.466687419E-3,-8.319984772E-4,-1.728748670E-3
6.646005013E0,3.659082868E-4,2.222327748E-3,1.038470946E-4
6.658004044E0,-1.466687419E-3,-2.211332176E-4,1.038470946E-4
6.670002910E0,9.767734446E-4,-8.319984772E-4,-1.728748670E-3
6.682001374E0,-2.449569583E-4,3.897320421E-4,7.147123106E-4
6.693998906E0,-8.558222326E-4,3.444058122E-3,1.038470946E-4
6.705997371E0,-1.466687419E-3,-8.319984772E-4,7.147123106E-4
6.717995769E0,-1.466687419E-3,-2.664594213E-3,7.147123106E-4
6.729994234E0,-1.466687419E-3,-8.319984772E-4,-1.728748670E-3
6.741992699E0,1.587638748E-3,3.897320421E-4,-1.117883483E-3
6.753992530E0,-8.558222326E-4,1.000597258E-3,7.147123106E-4
6.765990661E0,3.659082868E-4,3.444058122E-3,1.325577614E-3
6.777989126E0,-1.466687419E-3,1.000597258E-3,-1.117883483E-3
6.789987591E0,-2.077552723E-3,-1.442863722E-3,1.936442801E-3
6.801986089E0,-2.077552723E-3,-1.442863722E-3,2.547307871E-3
6.813984121E0,-2.449569583E-4,-8.319984772E-4,1.936442801E-3
6.825982853E0,-2.449569583E-4,-2.664594213E-3,1.038470946E-4
6.837981385E0,-2.449569583E-4,-8.319984772E-4,1.038470946E-4
6.849979850E0,3.659082868E-4,-1.442863722E-3,-1.728748670E-3
6.861977948E0,9.767734446E-4,1.611462445E-3,1.038470946E-4
6.873975579E0,9.767734446E-4,-8.319984772E-4,1.325577614E-3
6.885973677E0,-2.449569583E-4,-2.211332176E-4,-5.070181214E-4
6.897972142E0,-2.449569583E-4,-2.664594213E-3,-5.070181214E-4
6.909969741E0,1.587638748E-3,-2.211332176E-4,1.936442801E-3
6.921969939E0,-2.449569583E-4,-2.211332176E-4,-2.339613857E-3
6.933969171E0,3.659082868E-4,-8.319984772E-4,-1.117883483E-3
6.945968003E0,-1.466687419E-3,-2.664594213E-3,1.038470946E-4
6.957966701E0,1.587638748E-3,3.897320421E-4,-1.117883483E-3
6.969965599E0,9.767734446E-4,-2.053729026E-3,-5.070181214E-4
6.981962631E0,-1.466687419E-3,-1.442863722E-3,-5.070181214E-4
6.993961163E0,3.659082868E-4,1.000597258E-3,-1.117883483E-3
7.005960628E0,-8.558222326E-4,3.444058122E-3,1.936442801E-3
7.017958860E0,1.587638748E-3,-8.319984772E-4,-1.117883483E-3
7.029958490E0,-2.449569583E-4,3.444058122E-3,7.147123106E-4
7.041958020E0,-2.449569583E-4,1.611462445E-3,-1.728748670E-3
7.053955750E0,-8.558222326E-4,3.897320421E-4,7.147123106E-4
7.065953480E0,-8.558222326E-4,3.444058122E-3,7.147123106E-4
7.077952076E0,-2.688417910E-3,5.276653916E-3,-1.117883483E-3
7.089950008E0,9.767734446E-4,1.000597258E-3,7.147123106E-4
7.101947606E0,9.767734446E-4,2.833193168E-3,3.158173291E-3
7.113947004E0,-2.449569583E-4,4.665788729E-3,6.823364645E-3
7.125945402E0,-2.077552723E-3,3.897320421E-4,9.877691045E-3
7.137943867E0,1.587638748E-3,3.897320421E-4,1.354288310E-2
7.149942332E0,3.659082868E-4,3.897320421E-4,1.232115179E-2
7.161940864E0,9.767734446E-4,1.000597258E-3,7.147123106E-4
7.173938729E0,3.659082868E-4,-5.718920380E-3,8.655959740E-3
7.185937127E0,-8.558222326E-4,1.611462445E-3,1.038470946E-4
7.197935592E0,1.587638748E-3,-8.319984772E-4,1.325577614E-3
7.209934057E0,9.767734446E-4,3.897320421E-4,-5.070181214E-4
7.221932522E0,-8.558222326E-4,-8.319984772E-4,-2.950479044E-3
7.233930653E0,-2.449569583E-4,3.897320421E-4,-1.117883483E-3
7.245929185E0,9.767734446E-4,-2.664594213E-3,1.038470946E-4
7.257927217E0,3.659082868E-4,-3.886324586E-3,-1.728748670E-3
7.269925682E0,3.659082868E-4,2.222327748E-3,-2.950479044E-3
7.281924080E0,-8.558222326E-4,1.000597258E-3,-1.117883483E-3
7.293923178E0,-2.077552723E-3,3.444058122E-3,-1.728748670E-3
7.305921643E0,-2.688417910E-3,5.276653916E-3,1.038470946E-4
7.317920608E0,-2.688417910E-3,2.222327748E-3,-2.339613857E-3
7.329919073E0,-1.466687419E-3,-2.211332176E-4,-1.728748670E-3
7.341917538E0,-8.558222326E-4,-2.211332176E-4,1.325577614E-3
7.353916236E0,-2.077552723E-3,3.897320421E-4,-2.950479044E-3
7.365914701E0,-3.299283329E-3,-8.319984772E-4,1.038470946E-4
7.377913333E0,-8.558222326E-4,1.000597258E-3,-2.339613857E-3
7.389911731E0,-3.910148516E-3,2.833193168E-3,-3.561344463E-3
7.401910196E0,-4.521013703E-3,1.611462445E-3,-7.226535585E-3
7.413908728E0,-1.796004921E-2,3.276558965E-2,-3.715893254E-2
7.425907226E0,-8.882042021E-2,1.518843025E-1,-9.519112855E-2
7.437905656E0,-1.633459777E-1,2.593966126E-1,-1.733818799E-1
7.449904319E0,2.052446082E-2,2.936050296E-1,-2.381336093E-1
7.461902649E0,-3.299283329E-3,6.509612203E-1,-2.906680107E-1
7.473900412E0,-8.698782325E-2,8.427729011E-1,-3.224330246E-1
7.485899042E0,-3.343882561E-1,7.010521889E-1,-3.517545462E-1
7.497897507E0,-5.909516811E-1,5.153491497E-1,-3.236547112E-1
7.509895972E0,-6.868574619E-1,2.972702384E-1,-1.947621554E-1
7.521894770E0,-5.793452263E-1,1.500517130E-1,1.659720764E-2
7.533894135E0,-3.557685316E-1,6.208711863E-2,2.548346519E-1
7.545892533E0,-7.354878634E-2,-5.642073601E-2,4.435920119E-1
7.557890998E0,2.007297128E-1,-1.657656133E-1,5.724845529E-1
7.569889530E0,3.955957294E-1,-1.975306123E-1,6.732773185E-1
7.581888062E0,5.477011800E-1,-2.158565670E-1,7.545223832E-1
7.593886393E0,6.539916992E-1,-1.730959862E-1,8.064459562E-1
7.605884858E0,7.443997860E-1,-1.004030332E-1,7.966721058E-1
7.617883323E0,7.957124710E-1,-3.870564327E-2,7.282552719E-1
7.629881821E0,7.889929414E-1,-1.366016828E-2,6.329602599E-1
7.641880417E0,7.175217271E-1,-3.687304631E-2,5.498825908E-1
7.653879316E0,5.806878805E-1,-4.053824022E-2,4.820765257E-1
7.665878446E0,3.907088041E-1,-9.062919021E-2,4.252660573E-1
7.677877709E0,1.915667206E-1,-1.712633967E-1,3.580708802E-1
7.689876573E0,1.563753933E-2,-2.616714537E-1,2.865996361E-1
7.701875571E0,-1.071463749E-1,-3.123732507E-1,2.481151372E-1
7.713874470E0,-2.024413645E-1,-3.734598160E-1,2.701062858E-1
7.725873136E0,-2.604735494E-1,-3.868988454E-1,3.299710751E-1
7.737871668E0,-2.506996989E-1,-3.386404812E-1,3.855598271E-1
7.749870433E0,-1.798393428E-1,-3.117624223E-1,3.971662521E-1
7.761868565E0,-1.047029123E-1,-3.001559675E-1,3.629578054E-1
7.773866097E0,-1.979264431E-2,-3.074863553E-1,2.811018825E-1
7.785864562E0,8.833050728E-2,-2.500650287E-1,1.766439080E-1
7.797862627E0,2.392142117E-1,-1.602678150E-1,6.913162023E-2
7.809861092E0,3.736045957E-1,-2.587747388E-2,2.759278379E-2
7.821860324E0,4.383562803E-1,6.269798428E-2,5.019479617E-2
7.833859789E0,4.493518770E-1,4.498289526E-2,8.073806018E-2
7.845858254E0,4.084239006E-1,4.054923542E-3,1.143356487E-1
7.857856819E0,3.644416034E-1,-4.420343041E-2,1.534310281E-1
7.869855284E0,3.540568948E-1,-1.162855327E-1,1.900829375E-1
7.881853382E0,3.565003276E-1,-1.327788830E-1,2.212370634E-1
7.893851847E0,3.534460068E-1,-1.743177325E-1,2.578889728E-1
7.905850245E0,3.467265069E-1,-2.451781034E-1,2.548346519E-1
7.917848510E0,3.290114105E-1,-2.641149163E-1,2.267348468E-1
7.929846975E0,3.174049556E-1,-2.402911633E-1,1.919155270E-1
7.941845840E0,2.960246801E-1,-2.158565670E-1,1.522092968E-1
7.953845272E0,2.722009420E-1,-1.804263741E-1,8.929017931E-2
7.965843737E0,2.489880621E-1,-1.602678150E-1,1.354288310E-2
7.977842635E0,2.123361528E-1,-1.761503369E-1,-6.342613697E-2
7.989841167E0,1.634669304E-1,-1.553809047E-1,-1.067975685E-1
8.001838799E0,1.145977080E-1,-1.541591734E-1,-1.220691949E-1
8.013836197E0,3.457436338E-2,-1.889784932E-1,-1.165714115E-1
8.025834662E0,-7.232705504E-2,-2.457889616E-1,-9.702372551E-2
8.037832693E0,-1.987761706E-1,-2.922147214E-1,-6.770219654E-2
8.049831158E0,-3.032341301E-1,-3.080972433E-1,-3.715893254E-2
8.061829788E0,-3.606554568E-1,-3.111515641E-1,1.325577614E-3
8.073827552E0,-3.802031279E-1,-3.423056602E-1,4.652960598E-2
8.085826282E0,-3.704292774E-1,-3.575772941E-1,8.012719452E-2
8.097825379E0,-3.435512483E-1,-3.459708691E-1,7.890546322E-2
8.109823975E0,-3.136188388E-1,-2.476215512E-1,4.530787840E-2
8.121822406E0,-2.794103622E-1,-1.828698367E-1,1.476461347E-2
8.133820871E0,-2.189347148E-1,-1.694308072E-1,-3.960239515E-2
8.145819336E0,-1.383005083E-1,-1.602678150E-1,-1.202366054E-1
8.157817368E0,-6.255321205E-2,-7.047063112E-2,-1.843774617E-1
8.169815833E0,8.307156153E-3,3.948510811E-2,-2.100338042E-1
8.181814698E0,6.572849303E-2,1.127889380E-1,-2.222511023E-1
8.193814096E0,1.023804024E-1,2.019752711E-1,-2.167533040E-1
8.205812561E0,1.317019314E-1,2.758899629E-1,-1.990382224E-1
8.217811492E0,1.616343409E-1,3.436960280E-1,-1.727710068E-1
8.229809957E0,2.123361528E-1,3.620219529E-1,-1.471146643E-1
8.241808089E0,2.770878673E-1,3.540807068E-1,-1.300104558E-1
8.253806621E0,3.448939323E-1,3.565241694E-1,-1.159605458E-1
8.265805019E0,4.047586918E-1,3.424742818E-1,-9.152594209E-2
8.277803384E0,4.432432353E-1,3.284243643E-1,-5.548489094E-2
8.289802882E0,4.634017646E-1,3.620219529E-1,1.965153590E-2
8.301801780E0,4.438540637E-1,3.858456910E-1,7.279681414E-2
8.313799245E0,3.937631249E-1,3.931760788E-1,8.257065713E-2
8.325797710E0,3.473373652E-1,3.986738622E-1,7.768373191E-2
8.337796242E0,3.406178653E-1,4.157781005E-1,5.508171767E-2
8.349793673E0,3.662742078E-1,4.414344430E-1,-4.783074837E-3
8.361792005E0,3.937631249E-1,4.261628091E-1,-7.808690518E-2
8.373790470E0,3.803240955E-1,4.298279881E-1,-1.177931428E-1
8.385788935E0,3.064093888E-1,4.304388762E-1,-8.236295730E-2
8.397787400E0,1.909558773E-1,3.589676321E-1,3.158173291E-3
8.409786932E0,6.450676173E-2,2.429032326E-1,8.318151534E-2
8.421785030E0,-2.162523940E-2,1.714320034E-1,1.289964169E-1
8.433784362E0,-4.728158191E-2,5.903279409E-2,1.473223716E-1
8.445782827E0,2.198504051E-3,-6.940650754E-3,1.711461246E-1
8.457781058E0,9.871520847E-2,-4.664689302E-2,1.784764975E-1
8.469778554E0,1.836254895E-1,-8.329880238E-2,1.589288116E-1
8.481777651E0,2.648705542E-1,-1.488189865E-2,1.387702674E-1
8.493775448E0,3.583329320E-1,1.592146903E-1,1.412137151E-1
8.505774178E0,4.652343690E-1,3.149853349E-1,1.448789090E-1
8.517773075E0,5.886291265E-1,4.481539726E-1,1.308290064E-1
8.529771440E0,7.309607267E-1,5.306208134E-1,1.051726714E-1
8.541770138E0,8.500794768E-1,5.611640215E-1,8.318151534E-2
8.553769103E0,9.178854823E-1,5.336751342E-1,5.202739313E-2
8.565767568E0,9.197180867E-1,4.921362698E-1,9.266825393E-3
8.577765699E0,8.555772901E-1,3.901217580E-1,-4.632190987E-2
8.589764364E0,7.004174590E-1,2.245772779E-1,-1.043541133E-1
8.601762596E0,4.554605186E-1,6.453058869E-2,-1.281778514E-1
8.613761494E0,1.927884668E-1,-3.076439537E-2,-8.358469605E-2
8.625759392E0,-1.918178052E-2,-9.062919021E-2,-2.249816619E-2
8.637757724E0,-1.431874186E-1,-1.388875395E-1,3.431230038E-2
8.649755322E0,-1.725089550E-1,-9.857043624E-2,9.112276882E-2
8.661753854E0,-1.437982917E-1,-4.847948998E-2,1.454897821E-1
8.673751685E0,-6.866186857E-2,6.498384289E-3,1.955807209E-1
8.685750781E0,9.767734446E-4,1.030150875E-1,1.949698627E-1
8.697750211E0,9.199569374E-2,1.934231520E-1,1.357159317E-1
8.707750542E0,1.805711538E-1,2.154142857E-1,6.729902327E-2
8.719749673E0,2.734226584E-1,1.757080555E-1,1.904067025E-2
8.731749503E0,3.180158436E-1,1.158432588E-1,2.547307871E-3
8.741749635E0,2.990790009E-1,7.613702118E-2,8.655959740E-3
8.753749398E0,2.117252797E-1,2.421347611E-2,1.232115179E-2
8.765748798E0,9.382829070E-2,8.941845968E-3,1.720807515E-2
8.777748198E0,-1.612745225E-2,2.665693685E-2,4.042095318E-2
8.789747529E0,-7.538138330E-2,5.842192844E-2,6.852075458E-2
8.801747126E0,-6.072061509E-2,1.140106693E-1,5.141652748E-2
8.813746124E0,-1.918178052E-2,1.915905625E-1,-1.516778395E-2
8.825744990E0,3.518522531E-2,2.435141057E-1,-7.258912176E-2
8.837743623E0,6.817194819E-2,2.361837178E-1,-5.365229398E-2
8.849742088E0,8.038925380E-2,1.769298017E-1,4.408614337E-2
8.861739620E0,8.405444026E-2,1.133998036E-1,1.827525496E-1
8.873737618E0,6.389589608E-2,5.720020086E-2,2.584998608E-1
8.885736083E0,1.013975218E-2,-2.465574257E-2,2.475042790E-1
8.897734981E0,-3.995119780E-2,-6.130765751E-2,2.151284218E-1
8.909733513E0,-6.744012982E-2,-8.085534722E-2,1.772547662E-1
8.921732644E0,-7.477051765E-2,-8.024448156E-2,1.241094917E-1
8.933731543E0,-6.621840596E-2,-2.832093462E-2,5.508171767E-2
8.945730008E0,-6.866186857E-2,9.263038635E-2,-7.837400772E-3
8.957728473E0,-8.026830107E-2,1.909796894E-1,-6.525873393E-2
8.969726871E0,-8.698782325E-2,2.661161125E-1,-1.293995827E-1
8.981724603E0,-7.721398026E-2,3.687414825E-1,-1.880426556E-1
8.993723101E0,-4.178379476E-2,4.029499292E-1,-2.320249528E-1
9.005721633E0,-4.521013703E-3,3.754610121E-1,-2.503508925E-1
9.017720498E0,2.198504051E-3,2.984919846E-1,-2.735637724E-1
9.029718529E0,-1.673831977E-2,1.567712426E-1,-3.224330246E-1
9.039719194E0,-4.972504079E-2,2.543520741E-2,-3.163243532E-1
9.051717659E0,-9.981599450E-2,-2.526661009E-2,-2.173641771E-1
9.063715624E0,-1.431874186E-1,-4.298169911E-2,-1.293995827E-1
9.075713689E0,-1.951109767E-1,2.299174666E-2,-9.091507643E-2
9.087712587E0,-2.439801991E-1,7.552615553E-2,-1.293995827E-1
9.099709919E0,-2.592518330E-1,7.980221510E-2,-1.972056329E-1
9.111708851E0,-2.323737442E-1,1.005716324E-1,-2.149207145E-1
9.123708381E0,-1.584590673E-1,5.109154806E-2,-2.045360059E-1
9.135707044E0,-5.522282794E-2,7.613702118E-2,-1.959839016E-1
9.147706741E0,3.029830568E-2,5.414587259E-2,-2.057577372E-1
9.159705605E0,4.801339656E-2,-9.384112433E-3,-1.953730285E-1
9.171703335E0,-1.466687419E-3,-1.010138988E-1,-1.391734332E-1
9.183700333E0,-8.393349499E-2,-1.663764864E-1,-8.847161382E-2
9.195698798E0,-1.633459777E-1,-2.030283958E-1,-5.670661852E-2
9.207696763E0,-2.195455730E-1,-1.358332187E-1,-1.000780538E-1
9.219695194E0,-2.397041321E-1,-8.319984772E-4,-2.179750502E-1
9.231694059E0,-2.219890505E-1,1.188975871E-1,-3.890173137E-1
9.243693557E0,-1.926675141E-1,1.677668095E-1,-4.910317957E-1
9.255692089E0,-1.609025151E-1,1.524951756E-1,-5.331815481E-1
9.267690021E0,-1.474634856E-1,8.591086417E-2,-5.087468624E-1
9.279687452E0,-1.499069333E-1,-7.047063112E-2,-4.250583351E-1
9.291685317E0,-1.761741489E-1,-2.702235579E-1,-3.065505028E-1
9.303683782E0,-2.006087601E-1,-3.545229733E-1,-1.965947598E-1
9.315682147E0,-1.926675141E-1,-3.838445246E-1,-1.061867028E-1
9.327680545E0,-1.615133882E-1,-3.429165483E-1,-7.625430822E-2
9.339680010E0,-1.486852169E-1,-2.812191546E-1,-1.202366054E-1
9.351679075E0,-1.499069333E-1,-1.431636065E-1,-2.460748404E-1
9.363678440E0,-1.645677090E-1,-4.175997153E-2,-3.474784791E-1
9.375676538E0,-1.847262532E-1,3.948510811E-2,-4.293344021E-1
9.387675003E0,-1.841153949E-1,5.781106651E-2,-4.775927663E-1
9.399673001E0,-1.676220447E-1,1.443963218E-2,-4.861449003E-1
9.411672100E0,-1.389113665E-1,-6.558372080E-2,-4.189496934E-1
9.423669665E0,-1.144767627E-1,-1.401092708E-1,-3.175460696E-1
9.435668530E0,-9.370733798E-2,-2.518976033E-1,-1.703275591E-1
9.447666995E0,-9.615080059E-2,-3.404730856E-1,-3.838066384E-2
9.459665927E0,-1.352461725E-1,-3.868988454E-1,2.881451324E-2
9.471663959E0,-2.061065584E-1,-4.204964340E-1,4.225354642E-2
9.483662357E0,-2.329846174E-1,-3.765141368E-1,-1.272432320E-2
9.495660422E0,-2.409258634E-1,-2.922147214E-1,-1.129062176E-1
9.507658487E0,-2.280976921E-1,-1.816481203E-1,-2.271380275E-1
9.519656985E0,-2.164912522E-1,-6.924890727E-2,-3.126591444E-1
9.531655381E0,-2.164912522E-1,-2.099055052E-2,-3.169352114E-1
9.543654044E0,-2.225998938E-1,-3.809478134E-2,-2.509617507E-1
9.555653108E0,-2.183238566E-1,-1.309462935E-1,-1.379516870E-1
9.565653172E0,-1.981652975E-1,-2.195217609E-1,-6.159354374E-2
9.577650835E0,-1.621242464E-1,-3.453599811E-1,1.354288310E-2
9.589649433E0,-1.523503959E-1,-4.278268218E-1,8.562498540E-2
9.601647898E0,-2.018304914E-1,-4.333245754E-1,1.436571777E-1
9.613646730E0,-2.763560414E-1,-4.156095088E-1,1.491549611E-1
9.625644428E0,-3.130079508E-1,-4.107225537E-1,7.462941110E-2
9.637643826E0,-2.818538249E-1,-3.190928102E-1,-4.021326080E-2
9.649642291E0,-2.164912522E-1,-2.158565670E-1,-1.422277540E-1
9.661640790E0,-1.492960751E-1,-1.205615848E-1,-1.996490955E-1
9.673638888E0,-9.309647232E-2,-9.062919021E-2,-1.837665886E-1
9.685637353E0,-4.117292911E-2,-1.028464958E-1,-1.526124626E-1
9.697635518E0,-2.162523940E-2,-1.859241575E-1,-1.086301655E-1
9.709633983E0,-2.101437561E-2,-2.616714537E-1,-6.464786828E-2
9.721632448E0,-4.850330949E-2,-3.679620028E-1,-2.738508955E-2
9.733630846E0,-9.431820363E-2,-4.284376800E-1,3.858835623E-2
9.745629311E0,-1.462417394E-1,-4.870807230E-1,1.021183431E-1
9.757627243E0,-1.993870288E-1,-5.078501701E-1,8.745758235E-2
9.769625741E0,-2.647496164E-1,-4.504288435E-1,3.553403169E-2
9.781624371E0,-3.240035474E-1,-3.484143317E-1,-3.532633558E-2
9.793623534E0,-3.612663150E-1,-2.732778788E-1,-1.245126650E-1
9.805622998E0,-3.722619116E-1,-2.262412757E-1,-1.904861182E-1
9.815623597E0,-3.386642933E-1,-2.018066645E-1,-2.369118631E-1
9.827623393E0,-2.525323033E-1,-1.828698367E-1,-3.089939654E-1
9.839623257E0,-1.725089550E-1,-1.779829264E-1,-3.297633827E-1
9.851622921E0,-1.419657022E-1,-1.883676350E-1,-2.845593691E-1
9.863622019E0,-1.615133882E-1,-2.048609853E-1,-2.204184979E-1
9.875621782E0,-1.963327080E-1,-2.219652086E-1,-1.385625601E-1
9.887620847E0,-2.433693260E-1,-2.616714537E-1,-1.012997851E-1
9.899620079E0,-2.904059589E-1,-3.172602057E-1,-9.702372551E-2
9.911618812E0,-3.191166222E-1,-3.612425029E-1,-6.525873393E-2
9.923617344E0,-3.020123839E-1,-3.661294281E-1,-3.532633558E-2
9.935614342E0,-2.580300868E-1,-4.015595913E-1,2.547307871E-3
9.947612007E0,-1.981652975E-1,-4.406549633E-1,2.637105249E-2
9.959610172E0,-1.279157996E-1,-4.400441051E-1,5.080566555E-2
9.971609170E0,-4.239465669E-2,-3.783467114E-1,7.462941110E-2
9.983607802E0,2.968744002E-2,-2.769430876E-1,8.684670925E-2
9.995607167E0,9.688261151E-2,-1.321680248E-1,9.234450012E-2
1.000760623E1,1.170411706E-1,1.688309200E-2,5.935777724E-2
1.001960470E1,7.916752994E-2,1.011824980E-1,8.045095019E-3
1.003160256E1,-5.131878890E-3,1.408887357E-1,-3.960239515E-2
1.004360066E1,-7.599224895E-2,6.330884993E-2,-4.876537248E-2
1.005559916E1,-1.144767627E-1,-9.857043624E-2,-1.516778395E-2
1.006759789E1,-7.110532373E-2,-1.798155159E-1,5.202739313E-2
1.007959636E1,2.846571058E-2,-1.340006292E-1,1.106704548E-1
1.009159482E1,1.188737676E-1,-1.732535847E-2,1.387702674E-1
1.010359302E1,1.396431923E-1,1.060694233E-1,1.589288116E-1
1.011559055E1,9.260655940E-2,2.038078606E-1,1.772547662E-1
1.012758902E1,1.624840498E-2,2.661161125E-1,1.796982288E-1
1.013958741E1,-4.850330949E-2,2.868855298E-1,1.766439080E-1
1.015158588E1,-8.210089803E-2,2.801660299E-1,1.699243933E-1
1.016358518E1,-1.083681062E-1,2.160251588E-1,1.839742959E-1
1.017558374E1,-1.383005083E-1,1.414996088E-1,2.450608015E-1
1.018758214E1,-1.633459777E-1,1.537169069E-1,3.299710751E-1
1.019958061E1,-1.731198281E-1,2.349619865E-1,3.831163645E-1
1.021157907E1,-1.505178064E-1,3.278135061E-1,3.739533722E-1
1.022357754E1,-1.034811884E-1,3.638545573E-1,3.140885830E-1
1.023557680E1,-3.689687327E-2,3.290352523E-1,2.395630181E-1
1.024757543E1,2.724397928E-2,3.394199610E-1,2.175718695E-1
1.025957416E1,5.900897086E-2,3.601893485E-1,2.389521599E-1
1.027157282E1,4.740253091E-2,3.009354174E-1,2.639976144E-1
1.028357115E1,2.113532647E-2,2.593966126E-1,2.945408821E-1
1.029556885E1,-8.558222326E-4,2.184686214E-1,3.214189708E-1
1.030756658E1,-2.712302841E-2,1.616581529E-1,3.354688585E-1
1.031956505E1,-6.377494335E-2,1.115672067E-1,3.464644551E-1
1.033156358E1,-8.576609194E-2,1.482191235E-1,3.440209627E-1
1.034356231E1,-9.248561412E-2,2.422923744E-1,3.336362541E-1
1.035556204E1,-6.988359988E-2,3.436960280E-1,2.994278371E-1
1.036556231E1,-4.728158191E-2,3.907326460E-1,2.444499582E-1
1.037756077E1,-3.017735481E-2,3.840130866E-1,1.833634228E-1
1.038955874E1,-3.200994805E-2,3.314786851E-1,1.228877604E-1
1.040155627E1,-3.628600761E-2,2.441249639E-1,7.279681414E-2
1.041355447E1,-5.277936906E-2,1.347800940E-1,7.707286626E-2
1.042555130E1,-7.538138330E-2,3.337645158E-2,1.241094917E-1
1.043754970E1,-9.431820363E-2,-2.282314748E-2,1.894720793E-1
1.044954873E1,-9.859426320E-2,-3.809478134E-2,2.267348468E-1
1.046154809E1,-7.721398026E-2,-8.319984772E-4,2.102414817E-1
1.047354562E1,-3.445341066E-2,4.986981675E-2,1.479332447E-1
1.048554496E1,-2.449569583E-4,1.103454754E-1,7.829460502E-2
1.049754342E1,1.747013442E-2,1.622690260E-1,2.759278379E-2
1.050954182E1,3.420234425E-3,1.476082653E-1,8.655959740E-3
1.052154038E1,-3.323168308E-2,1.164541319E-1,1.598634385E-2
1.053353978E1,-6.866186857E-2,6.941750646E-2,3.247970715E-2
1.054553818E1,-8.759868890E-2,-3.275459632E-3,4.958393052E-2
1.055753664E1,-8.393349499E-2,-5.153381452E-2,6.302297115E-2
1.056953581E1,-4.850330949E-2,-8.085534722E-2,7.279681414E-2
1.058153428E1,1.380494423E-2,-9.979216754E-2,7.707286626E-2
1.059353254E1,7.550233603E-2,-9.795957059E-2,8.562498540E-2
1.060553107E1,1.078781858E-1,-5.275554210E-2,1.076161265E-1
1.061752954E1,1.219280958E-1,1.443963218E-2,1.283855438E-1
1.062952694E1,1.127651110E-1,6.941750646E-2,1.045618057E-1
1.064152533E1,8.405444026E-2,6.269798428E-2,7.646200806E-2
1.065352470E1,2.968744002E-2,5.887519568E-3,4.103181884E-2
1.066552336E1,-3.139908239E-2,-7.169236988E-2,2.270586230E-2
1.067752199E1,-5.766629055E-2,-1.535483152E-1,3.675575927E-2
1.068952102E1,-4.667071626E-2,-1.767611802E-1,7.951632887E-2
1.070151962E1,-1.062966604E-2,-1.517157108E-1,1.106704548E-1
1.071351752E1,4.129388183E-2,-9.429437667E-2,1.204442978E-1
1.072551598E1,9.505002201E-2,-2.648833767E-2,1.112813205E-1
1.073751454E1,1.249824241E-1,2.299174666E-2,8.318151534E-2
1.074951294E1,1.103216559E-1,4.742635787E-2,6.485556066E-2
1.076151148E1,6.206329912E-2,3.887424245E-2,4.958393052E-2
1.077350947E1,9.767734446E-4,1.611462445E-3,3.858835623E-2
1.078550794E1,-4.117292911E-2,-3.565131873E-2,2.820364758E-2
1.079750634E1,-4.300552234E-2,-6.863804162E-2,4.958393052E-2
1.080950480E1,2.198504051E-3,-8.940745890E-2,8.867930621E-2
1.082150327E1,5.106772110E-2,-5.947506428E-2,1.033400744E-1
1.083350133E1,1.017695367E-1,8.330980316E-3,8.562498540E-2
1.084549980E1,1.280367374E-1,9.690643847E-2,2.759278379E-2
1.085749826E1,1.225389540E-1,1.518843025E-1,-3.471547365E-2
1.086949669E1,7.611319423E-2,1.573821008E-1,-7.136738300E-2
1.088149502E1,3.640696034E-2,1.262279749E-1,-7.319997996E-2
1.089349482E1,-8.558222326E-4,5.597846955E-2,-6.586959958E-2
1.090549402E1,-2.895562351E-2,-1.366016828E-2,-2.433076315E-2
1.091749328E1,-3.750773519E-2,-7.535755634E-2,2.453845553E-2
1.092949265E1,-2.956648916E-2,-1.248376444E-1,5.080566555E-2
1.094149204E1,-2.688417910E-3,-1.382766664E-1,4.591874033E-2
1.095349084E1,3.946128488E-2,-1.327788830E-1,2.576018684E-2
1.096548931E1,8.588703722E-2,-1.101768762E-1,4.990769085E-3
1.097748814E1,1.158194393E-1,-9.001832455E-2,-1.577864960E-2
1.098948710E1,1.115433797E-1,-6.375111639E-2,-2.127643675E-2
1.100148557E1,7.794579118E-2,-4.542515799E-2,-2.371989749E-2
1.101348514E1,2.357878722E-2,-4.481429607E-2,-2.310903184E-2
1.102548367E1,-3.750773519E-2,-2.343401313E-2,-2.616335824E-2
1.103748176E1,-7.782484591E-2,9.552710690E-3,-4.326758534E-2
1.104947973E1,-7.721398026E-2,3.215472400E-2,-4.693277925E-2
1.106147813E1,-4.667071626E-2,3.704164550E-2,-4.510018229E-2
1.107347456E1,-6.353609730E-3,3.154385835E-2,-3.654807061E-2
1.108547302E1,1.197234821E-2,1.505049784E-2,-1.516778395E-2
1.109747136E1,4.641965032E-3,-1.549276430E-2,9.266825393E-3
1.110946975E1,-1.979264431E-2,-5.703160167E-2,2.637105249E-2
1.112146785E1,-4.422725365E-2,-1.034573615E-1,3.309056908E-2
1.113346725E1,-5.583369359E-2,-1.156746671E-1,3.797749430E-2
1.114546572E1,-3.872947022E-2,-9.551611543E-2,2.209499478E-2
1.115746481E1,-9.407935664E-3,-2.709920332E-2,-5.070181214E-4
1.116946328E1,1.930273138E-2,3.948510811E-2,-1.761124469E-2
1.118146261E1,2.357878722E-2,7.858048379E-2,-4.082412273E-2
1.119345964E1,5.252830219E-3,7.980221510E-2,-6.403700262E-2
1.120545811E1,-1.368399244E-2,6.941750646E-2,-7.930862904E-2
1.121745600E1,-1.796004921E-2,3.948510811E-2,-9.152594209E-2
1.122945467E1,-2.101437561E-2,5.276653916E-3,-8.175209910E-2
1.124145337E1,-2.467956766E-2,-4.420343041E-2,-6.892392784E-2
1.125345333E1,-3.811860457E-2,-1.083442867E-1,-5.731748417E-2
1.126545173E1,-2.651216276E-2,-1.376658231E-1,-4.510018229E-2
1.127745040E1,1.013975218E-2,-1.254485101E-1,-5.670661852E-2
1.128944886E1,7.305887341E-2,-7.963361591E-2,-8.541729301E-2
1.130144792E1,1.152085736E-1,-4.725775495E-2,-1.275669932E-1
1.131344652E1,1.188737676E-1,-3.275459632E-3,-1.746036112E-1
1.132544475E1,9.077396244E-2,3.154385835E-2,-2.057577372E-1
1.133744328E1,5.961984023E-2,6.147625670E-2,-2.204184979E-1
1.134944138E1,5.473291501E-2,7.002837211E-2,-2.246945649E-1
1.136143878E1,6.572849303E-2,5.353500694E-2,-2.289706320E-1
1.137343624E1,7.733493298E-2,5.353500694E-2,-2.295814753E-1
1.138543501E1,8.161098510E-2,4.315029830E-2,-2.326358259E-1
1.139743347E1,7.183714211E-2,3.215472400E-2,-2.393553257E-1
1.140943280E1,8.894136548E-2,2.848953195E-2,-2.595138848E-1
1.142143120E1,1.439192295E-1,3.154385835E-2,-2.967766821E-1
1.143343067E1,2.153904736E-1,2.543520741E-2,-3.340394199E-1
1.144542926E1,2.654814124E-1,-2.664594213E-3,-3.725239635E-1
1.145742773E1,2.728118002E-1,-2.587747388E-2,-4.048998058E-1
1.146942569E1,2.532641292E-1,-7.551515941E-3,-4.311670363E-1
1.148142453E1,2.245534509E-1,5.842192844E-2,-4.849231541E-1
1.149342299E1,2.117252797E-1,1.402778774E-1,-5.710551739E-1
1.150542239E1,2.105035484E-1,2.209120840E-1,-6.761239767E-1
1.151742086E1,2.056166381E-1,2.734465003E-1,-7.763059139E-1
1.152941932E1,1.866798103E-1,2.636726499E-1,-8.318945765E-1
1.154141742E1,1.628560573E-1,1.995317936E-1,-8.538857698E-1
1.155341512E1,1.707973182E-1,8.774346113E-2,-8.459445238E-1
1.156541271E1,2.361598909E-1,-1.182757318E-2,-8.233425021E-1
1.157741111E1,3.057985306E-1,-4.298169911E-2,-8.166229725E-1
1.158940958E1,3.357309401E-1,-5.519900471E-2,-8.355597854E-1
1.160140768E1,2.886942923E-1,-3.137526289E-2,-8.795421124E-1
1.161340691E1,2.367707491E-1,-9.994977154E-3,-9.442937970E-1
1.162540531E1,1.903450042E-1,-1.304930262E-2,-1.021262765E0
1.163740377E1,1.543039531E-1,-1.488189865E-2,-1.060969114E0
1.164940224E1,1.292584687E-1,-1.442863722E-3,-1.081738472E0
1.166140113E1,1.152085736E-1,1.810482331E-2,-1.095788479E0
1.167339863E1,1.048238650E-1,6.147625670E-2,-1.103118777E0
1.168539726E1,1.011586785E-1,7.980221510E-2,-1.114114404E0
1.169739579E1,9.260655940E-2,6.880664080E-2,-1.138548970E0
1.170739676E1,8.222185075E-2,5.048068240E-2,-1.153820515E0
1.171939579E1,9.382829070E-2,2.115915157E-2,-1.165426970E0
1.173139448E1,1.298693419E-1,-3.275459632E-3,-1.161761880E0
1.174339215E1,1.591908783E-1,2.604607120E-2,-1.143435955E0
1.175539081E1,1.732407659E-1,6.147625670E-2,-1.123888135E0
1.176738721E1,1.475844234E-1,8.591086417E-2,-1.131829500E0
1.177938524E1,9.749348462E-2,6.941750646E-2,-1.166037917E0
1.179138371E1,4.740253091E-2,9.079778939E-2,-1.204522491E0
1.180138404E1,4.434820637E-2,1.146215349E-1,-1.224070072E0
1.181338244E1,1.036021337E-1,1.115672067E-1,-1.263165474E0
1.182537997E1,2.214991301E-1,8.835432678E-2,-1.305926085E0
1.183737844E1,3.357309401E-1,4.315029830E-2,-1.321197629E0
1.184937660E1,4.108673334E-1,-5.580987036E-2,-1.321197629E0
1.186137500E1,4.310259223E-1,-1.621004194E-1,-1.296152234E0
1.187337340E1,4.365236759E-1,-2.085261792E-1,-1.247893810E0
1.188337346E1,4.371345639E-1,-1.920328289E-1,-1.220404863E0
1.189537189E1,4.236955345E-1,-1.248376444E-1,-1.225291848E0
1.190737066E1,3.894870579E-1,-1.854708977E-2,-1.285767436E0
1.191936862E1,3.308439851E-1,8.224567771E-2,-1.380451679E0
1.193136765E1,2.831965089E-1,1.298931539E-1,-1.467805266E0
1.194336665E1,2.679249048E-1,9.934990108E-2,-1.522172332E0
1.195536635E1,2.996898890E-1,5.887519568E-3,-1.524615884E0
1.196736614E1,3.644416034E-1,-6.375111639E-2,-1.470859647E0
1.197936597E1,4.200303257E-1,-1.187289879E-1,-1.397555828E0
1.199136567E1,4.310259223E-1,-1.333897561E-1,-1.373732090E0
1.200136580E1,4.133108258E-1,-1.156746671E-1,-1.395723224E0
1.201336563E1,3.766589165E-1,-6.314025819E-2,-1.473303080E0
1.202536480E1,3.375635445E-1,1.810482331E-2,-1.564932823E0
1.203536490E1,3.167940974E-1,5.475674197E-2,-1.636404157E0
1.204736370E1,3.143506348E-1,4.986981675E-2,-1.673056006E0
1.205936126E1,3.314548731E-1,-2.465574257E-2,-1.690771103E0
1.207135913E1,3.375635445E-1,-1.718742698E-1,-1.670001745E0
1.208335759E1,3.247353435E-1,-3.093189299E-1,-1.613191247E0
1.209535662E1,3.149615228E-1,-4.266050756E-1,-1.546606898E0
1.210735509E1,3.540568948E-1,-4.754742980E-1,-1.502624631E0
1.211935399E1,4.200303257E-1,-4.174421132E-1,-1.506900787E0
1.213135245E1,4.737864733E-1,-3.062646091E-1,-1.560046077E0
1.214335038E1,4.866146445E-1,-2.158565670E-1,-1.616245627E0
1.215534788E1,4.615691900E-1,-1.468288004E-1,-1.699323297E0
1.216734635E1,4.114782214E-1,-1.566026360E-1,-1.767740130E0
1.217934488E1,3.595546782E-1,-2.036392689E-1,-1.775681376E0
1.219134344E1,3.430612981E-1,-2.903821170E-1,-1.738418698E0
1.220334237E1,3.711611032E-1,-3.203145266E-1,-1.688327670E0
1.221534117E1,4.163651466E-1,-3.074863553E-1,-1.662671328E0
1.222733964E1,4.365236759E-1,-2.836625874E-1,-1.685884237E0
1.223933810E1,4.157542586E-1,-2.580062449E-1,-1.744527340E0
1.225133650E1,3.650524616E-1,-2.409020364E-1,-1.780568361E0
1.226333496E1,3.375635445E-1,-2.311281860E-1,-1.807446361E0
1.227533256E1,3.436721861E-1,-2.213543504E-1,-1.817220211E0
1.228733103E1,3.937631249E-1,-1.987523288E-1,-1.809279084E0
1.229932949E1,4.890581071E-1,-2.183000147E-1,-1.787898660E0
1.231132789E1,5.696923137E-1,-2.714453042E-1,-1.742083907E0
1.232332599E1,5.770227313E-1,-3.203145266E-1,-1.682829976E0
1.233532539E1,5.257100463E-1,-3.691837490E-1,-1.648621440E0
1.234732392E1,4.536279440E-1,-3.258123100E-1,-1.674888730E0
1.235932182E1,3.974283040E-1,-3.306992054E-1,-1.678553820E0
1.237132028E1,3.772697747E-1,-3.190928102E-1,-1.718260169E0
1.238331912E1,3.613872826E-1,-3.423056602E-1,-1.737807751E0
1.239531761E1,2.856399715E-1,-3.319209516E-1,-1.678553820E0
1.240731731E1,1.940101981E-1,-2.934364676E-1,-1.620521665E0
1.241931604E1,1.695755720E-1,-2.671692371E-1,-1.627241254E0
1.243131477E1,2.282186449E-1,-2.201326191E-1,-1.638847709E0
1.244331307E1,3.167940974E-1,-2.079153210E-1,-1.644345284E0
1.245531126E1,3.772697747E-1,-2.329607904E-1,-1.643734455E0
1.246730856E1,3.632198572E-1,-2.903821170E-1,-1.616245627E0
1.247930746E1,3.198484182E-1,-3.453599811E-1,-1.579593658E0
1.249130592E1,2.996898890E-1,-3.740706444E-1,-1.530724525E0
1.250130636E1,3.045768142E-1,-3.520795405E-1,-1.486742139E0
1.251330525E1,3.106854558E-1,-2.787756920E-1,-1.451312065E0
1.252530385E1,2.911377549E-1,-2.121913731E-1,-1.476357460E0
1.253730232E1,2.422685325E-1,-1.798155159E-1,-1.544163465E0
1.254930078E1,2.068383694E-1,-2.274629921E-1,-1.611969471E0
1.256129735E1,1.988971084E-1,-3.264231980E-1,-1.621132612E0
1.257329491E1,2.013405710E-1,-4.895241857E-1,-1.575317621E0
1.258529331E1,1.964536607E-1,-6.770598292E-1,-1.503846407E0
1.259729184E1,1.652995348E-1,-8.096175790E-1,-1.426266432E0
1.260929024E1,1.005478054E-1,-8.200023174E-1,-1.407940507E0
1.262128921E1,4.556993395E-2,-7.699112892E-1,-1.468416214E0
1.263328870E1,2.418965288E-2,-7.143226266E-1,-1.597919703E0
1.264528717E1,5.961984023E-2,-7.057704926E-1,-1.723146915E0
1.265728557E1,1.127651110E-1,-7.680787444E-1,-1.762853265E0
1.266928403E1,1.359779984E-1,-8.609302640E-1,-1.646178007E0
1.268128256E1,1.194846332E-1,-8.841431141E-1,-1.475135684E0
1.269328093E1,8.405444026E-2,-7.955676913E-1,-1.285767436E0
1.270527939E1,6.206329912E-2,-6.086429358E-1,-1.182531238E0
1.271727886E1,5.534378067E-2,-3.587990403E-1,-1.164816141E0
1.272927732E1,5.045685917E-2,-1.223941818E-1,-1.180087805E0
1.274127596E1,6.206329912E-2,-3.320785612E-2,-1.181920409E0
1.275327409E1,7.428060472E-2,-2.709920332E-2,-1.183753014E0
1.276527248E1,1.042129993E-1,-7.047063112E-2,-1.171535611E0
1.277727035E1,1.536930799E-1,-1.358332187E-1,-1.120223045E0
1.278926882E1,2.318838388E-1,-1.437744647E-1,-1.004158616E0
1.280126745E1,2.929703593E-1,-1.193398610E-1,-9.045875669E-1
1.281326548E1,2.966355681E-1,-3.870564327E-2,-8.318945765E-1
1.282526414E1,2.263860404E-1,3.581991419E-2,-8.630487919E-1
1.283726240E1,1.084890589E-1,7.125009596E-2,-9.436829686E-1
1.284926113E1,-6.964474451E-3,1.146215349E-1,-9.864435196E-1
1.286125813E1,-5.094677210E-2,1.231736466E-1,-9.974390864E-1
1.287325653E1,-5.155763775E-2,6.269798428E-2,-9.937739372E-1
1.288525499E1,-2.101437561E-2,-6.008592620E-2,-9.467372894E-1
1.289725346E1,3.090916947E-2,-1.523265839E-1,-8.642704487E-1
1.290925149E1,1.029912755E-1,-1.718742698E-1,-7.793602347E-1
1.291925155E1,1.836254895E-1,-1.468288004E-1,-7.622559667E-1
1.293125012E1,2.660922706E-1,-1.016247645E-1,-7.598124743E-1
1.294324932E1,2.960246801E-1,-5.397727713E-2,-7.549256086E-1
1.295524778E1,2.593727708E-1,-1.366016828E-2,-7.488169670E-1
1.296724688E1,1.561365575E-1,-8.773246780E-3,-7.311018705E-1
1.297924568E1,3.946128488E-2,-2.587747388E-2,-6.981151104E-1
1.299124414E1,-3.139908239E-2,-5.519900471E-2,-6.755131483E-1
1.300324194E1,-3.567514196E-2,-5.580987036E-2,-6.504676342E-1
1.301524057E1,4.031099845E-3,-4.359256849E-2,-6.113722324E-1
1.302723874E1,6.572849303E-2,-7.657929510E-2,-5.643356442E-1
1.303923780E1,1.121542528E-1,-9.124004841E-2,-4.861449003E-1
1.305123706E1,1.048238650E-1,-4.664689302E-2,-4.006237388E-1
1.306123733E1,5.412205309E-2,-1.060584281E-2,-3.627501130E-1
1.307323599E1,-2.956648916E-2,2.971126325E-2,-3.364829123E-1
1.308523496E1,-9.920512140E-2,5.353500694E-2,-3.260982037E-1
1.309723426E1,-1.352461725E-1,3.948510811E-2,-3.059396446E-1
1.310923266E1,-1.218071431E-1,5.231327936E-2,-2.760072351E-1
1.312123169E1,-8.637695014E-2,7.430443168E-2,-2.387444675E-1
1.313323055E1,-5.949888751E-2,1.024042293E-1,-2.008708119E-1
1.314522902E1,-3.689687327E-2,9.446298331E-2,-1.794905365E-1
1.315722692E1,1.319407858E-2,4.803721979E-2,-1.636080295E-1
1.316922551E1,6.939368695E-2,2.238088101E-2,-1.226800680E-1
1.318122278E1,1.023804024E-1,4.376116395E-2,-9.152594209E-2
1.319322131E1,9.871520847E-2,7.125009596E-2,-7.197824866E-2
1.320521931E1,5.534378067E-2,1.280605644E-1,-4.571104795E-2
1.321721794E1,-9.407935664E-3,1.579929590E-1,-5.915008113E-2
1.322921627E1,-7.171619684E-2,1.659342200E-1,-8.541729301E-2
1.324121497E1,-1.028703153E-1,1.360018104E-1,-8.602815121E-2
1.325321344E1,-1.077572405E-1,6.941750646E-2,-5.487402529E-2
1.326521230E1,-8.637695014E-2,1.016357634E-2,1.325577614E-3
1.327721107E1,-6.072061509E-2,-9.994977154E-3,3.370143473E-2
1.328920973E1,-2.895562351E-2,-3.504044935E-2,6.119037420E-2
1.330120943E1,-1.368399244E-2,-9.384112433E-3,1.057835296E-1
1.331320816E1,-3.445341066E-2,7.613702118E-2,1.522092968E-1
1.332520663E1,-6.682927161E-2,1.146215349E-1,1.656483263E-1
1.333720462E1,-9.920512140E-2,1.286714375E-1,1.656483263E-1
1.334920296E1,-1.132550314E-1,9.812817723E-2,1.687026471E-1
1.336119969E1,-1.120332927E-1,3.826337680E-2,1.858068854E-1
1.337319822E1,-1.175310835E-1,-3.275459632E-3,2.255131155E-1
1.338519668E1,-1.437982917E-1,8.941845968E-3,2.487259954E-1
1.339719515E1,-1.535721272E-1,3.276558965E-2,2.450608015E-1
1.340919325E1,-1.444091499E-1,5.964365974E-2,2.554455400E-1
1.342115298E1,-1.181419492E-1,6.880664080E-2,2.749931812E-1
1.343315118E1,-7.843570411E-2,2.177001536E-2,3.024821579E-1
1.344514991E1,-4.056205973E-2,-2.954266593E-2,3.421883881E-1
1.345714857E1,-3.299283329E-3,-8.818572760E-2,3.880032599E-1
1.346914753E1,3.396349773E-2,-1.437744647E-1,4.600853920E-1
1.348114569E1,4.618079960E-2,-2.054718584E-1,5.333892107E-1
1.349314422E1,1.380494423E-2,-2.158565670E-1,6.372363567E-1
1.350514296E1,-8.210089803E-2,-1.254485101E-1,7.239791751E-1
1.351714139E1,-2.079391330E-1,2.787866816E-2,7.288661003E-1
1.352913985E1,-3.380534351E-1,1.812058389E-1,6.347928643E-1
1.354113802E1,-3.942530453E-1,2.441249639E-1,5.254479647E-1
1.355313635E1,-3.814248741E-1,2.300750613E-1,4.332073033E-1
1.356513455E1,-2.989580631E-1,1.164541319E-1,4.362616241E-1
1.357713295E1,-1.883914471E-1,-4.114910588E-2,5.248370767E-1
1.358913141E1,-7.232705504E-2,-2.677801251E-1,6.647252440E-1
1.360113078E1,1.624840498E-2,-3.948400915E-1,7.807896137E-1
1.361312944E1,9.016310424E-2,-3.911748827E-1,9.060170054E-1
1.362512784E1,9.016310424E-2,-2.604497373E-1,9.884838462E-1
1.363712634E1,9.528886527E-3,-9.124004841E-2,9.933707118E-1
1.364912480E1,-1.468526125E-1,1.158432588E-1,9.176234603E-1
1.366112270E1,-2.781886160E-1,2.416815013E-1,8.278262615E-1
1.367312110E1,-3.936421871E-1,3.015463054E-1,7.539115548E-1
1.368511956E1,-4.651134014E-1,2.679486871E-1,7.618528008E-1
1.369711810E1,-4.754981101E-1,1.378344148E-1,8.449304700E-1
1.370911656E1,-4.174659252E-1,-1.060584281E-2,9.738230705E-1
1.372111473E1,-3.056775928E-1,-1.315571666E-1,1.119819880E0
1.373311292E1,-1.657894403E-1,-2.347933799E-1,1.237105966E0
1.374511139E1,-5.522282794E-2,-2.891604006E-1,1.290251255E0
1.375710985E1,8.307156153E-3,-2.531193495E-1,1.290862083E0
1.376910839E1,2.541138232E-2,-1.394984126E-1,1.249323249E0
1.378110672E1,-7.575339638E-3,1.566136442E-2,1.212671399E0
1.379310502E1,-7.293792069E-2,1.586038321E-1,1.192512870E0
1.380510348E1,-1.694546342E-1,2.587857246E-1,1.185182333E0
1.381710218E1,-2.794103622E-1,3.064332306E-1,1.192512870E0
1.382910058E1,-3.600445986E-1,2.978810966E-1,1.191290975E0
1.384110014E1,-3.710401654E-1,2.545096874E-1,1.182128072E0
1.385309880E1,-3.215600848E-1,2.056404501E-1,1.213282228E0
1.386509753E1,-2.488671094E-1,1.763189286E-1,1.282920957E0
1.387709596E1,-1.725089550E-1,1.970883459E-1,1.322016239E0
1.388909456E1,-1.077572405E-1,2.154142857E-1,1.310409784E0
1.390109419E1,-7.477051765E-2,2.099165022E-1,1.263373137E0
1.391309309E1,-6.499667466E-2,1.830384433E-1,1.221834302E0
1.392509155E1,-5.766629055E-2,1.170649976E-1,1.210227847E0
1.393709112E1,-4.178379476E-2,1.993742026E-2,1.240160227E0
1.394908965E1,-3.139908239E-2,-1.732535847E-2,1.320794582E0
1.396108698E1,-4.361639172E-2,1.566136442E-2,1.424641609E0
1.397308545E1,-8.087916672E-2,9.629558027E-2,1.458239079E0
1.398508384E1,-1.273049265E-1,1.689885408E-1,1.411813498E0
1.399708124E1,-1.657894403E-1,2.361837178E-1,1.353170395E0
1.400907971E1,-1.798393428E-1,2.710030079E-1,1.318351030E0
1.402107824E1,-1.743415594E-1,2.856637836E-1,1.308577180E0
1.403307654E1,-1.358570457E-1,3.094875515E-1,1.329957485E0
1.404507500E1,-8.332262933E-2,3.180396855E-1,1.355613828E0
1.405707397E1,-5.094677210E-2,3.345330060E-1,1.367831230E0
1.406907283E1,-3.872947022E-2,3.174287975E-1,1.336676955E0
1.408107023E1,-4.483811930E-2,2.740573585E-1,1.303690314E0
1.409306956E1,-5.949888751E-2,2.154142857E-1,1.307966352E0
1.410506936E1,-7.415965199E-2,1.812058389E-1,1.343396425E0
1.411706875E1,-8.087916672E-2,2.050295919E-1,1.396541715E0
1.412906802E1,-7.721398026E-2,2.648943663E-1,1.417922139E0
1.413906845E1,-7.538138330E-2,3.125418723E-1,1.402650356E0
1.414906888E1,-7.843570411E-2,3.461394608E-1,1.378826618E0
1.416106818E1,-9.431820363E-2,3.809587657E-1,1.361722589E0
1.417306738E1,-1.102006957E-1,3.595784903E-1,1.353170395E0
1.418506688E1,-1.218071431E-1,3.149853349E-1,1.358668208E0
1.419706571E1,-1.108115688E-1,2.600074410E-1,1.368442059E0
1.420906437E1,-1.065355092E-1,2.007535398E-1,1.402650356E0
1.422106294E1,-1.340244412E-1,1.622690260E-1,1.477176070E0
1.423306140E1,-2.006087601E-1,1.512734592E-1,1.565140605E0
1.424505987E1,-2.561975121E-1,2.123599648E-1,1.626227140E0
1.425705853E1,-2.525323033E-1,3.369764686E-1,1.632946610E0
1.426905720E1,-1.963327080E-1,5.116839409E-1,1.562086344E0
1.428105510E1,-1.486852169E-1,6.020919681E-1,1.472289085E0
1.429305356E1,-1.150876209E-1,5.862094760E-1,1.406315684E0
1.430505202E1,-1.248614639E-1,4.585386515E-1,1.424641609E0
1.431705042E1,-1.425765604E-1,3.027680218E-1,1.526045322E0
1.432904869E1,-1.517395377E-1,1.714320034E-1,1.673263788E0
1.434104822E1,-1.547938734E-1,1.414996088E-1,1.788717270E0
1.435304668E1,-1.700654924E-1,1.860927790E-1,1.834532261E0
1.436504478E1,-1.902240515E-1,2.911615968E-1,1.791160822E0
1.437704238E1,-1.914457828E-1,3.950086534E-1,1.699530959E0
1.438904078E1,-1.554047167E-1,4.457105100E-1,1.626227140E0
1.440103911E1,-1.040920466E-1,4.133346379E-1,1.616453290E0
1.441303758E1,-7.599224895E-2,3.052114844E-1,1.672652841E0
1.442503647E1,-7.232705504E-2,1.158432588E-1,1.775889158E0
1.443703481E1,-4.789244384E-2,-5.580987036E-2,1.890120983E0
1.444903334E1,7.696291432E-3,-1.694308072E-1,1.982361555E0
1.446103234E1,5.595464632E-2,-1.718742698E-1,2.041004658E0
1.447303077E1,6.084156781E-2,-4.175997153E-2,2.050778627E0
1.448502916E1,1.563753933E-2,1.433321983E-1,1.997633219E0
1.449702873E1,-3.750773519E-2,3.479720354E-1,1.901727319E0
1.450902739E1,-6.072061509E-2,4.805298150E-1,1.799712896E0
1.452102466E1,-6.988359988E-2,5.135165453E-1,1.721522093E0
1.453302335E1,-1.034811884E-1,4.634256065E-1,1.705639601E0
1.454502202E1,-1.437982917E-1,3.375873268E-1,1.756341457E0
1.455702018E1,-1.554047167E-1,1.818167120E-1,1.855301619E0
1.456901865E1,-1.242506057E-1,1.871568896E-2,1.949374914E0
1.458101804E1,-7.538138330E-2,-8.513139933E-2,1.993357182E0
1.459301644E1,-3.262081370E-2,-1.309462935E-1,1.993357182E0
1.460501427E1,-2.773389220E-2,-1.004030332E-1,1.988470197E0
1.461701227E1,-6.805100292E-2,4.054923542E-3,1.992746234E0
1.462901117E1,-1.138658896E-1,1.402778774E-1,1.982361555E0
1.464100983E1,-1.156984866E-1,2.673378289E-1,1.968311667E0
1.465300830E1,-6.316407770E-2,4.115020335E-1,1.921275020E0
1.466500740E1,1.587638748E-3,5.214577913E-1,1.855301619E0
1.467700606E1,4.129388183E-2,5.807117224E-1,1.802767158E0
1.468900409E1,5.412205309E-2,5.972051024E-1,1.780165195E0
1.470100226E1,6.450676173E-2,5.538336039E-1,1.802767158E0
1.471300072E1,7.061541080E-2,4.841949940E-1,1.881568789E0
1.472499919E1,5.961984023E-2,4.218867421E-1,1.964646459E0
1.473699822E1,3.274176642E-2,3.772935867E-1,2.008628845E0
1.474899662E1,7.085425779E-3,3.528589904E-1,2.025732994E0
1.476099495E1,3.420234425E-3,3.571350276E-1,2.030619860E0
1.477299321E1,3.213090077E-2,3.534698486E-1,2.038561106E0
1.478499175E1,8.038925380E-2,3.253700435E-1,2.058719635E0
1.479698931E1,1.317019314E-1,2.655052543E-1,2.099647760E0
1.480898778E1,1.695755720E-1,2.178577632E-1,2.169286489E0
1.482098591E1,1.915667206E-1,2.135816962E-1,2.224264145E0
1.483298464E1,1.805711538E-1,2.141925693E-1,2.233427286E0
1.484498304E1,1.402540505E-1,2.319076508E-1,2.203494787E0
1.485698197E1,6.572849303E-2,2.685595751E-1,2.161956072E0
1.486898050E1,-1.612745225E-2,3.198722601E-1,2.139964819E0
1.488097920E1,-5.033590645E-2,3.803479075E-1,2.143018961E0
1.489297766E1,-5.033590645E-2,4.023390412E-1,2.172951460E0
1.490497626E1,-2.651216276E-2,3.980630040E-1,2.220599174E0
1.491697526E1,-1.857091486E-2,3.626328111E-1,2.238924980E0
1.492897392E1,-4.178379476E-2,2.905507088E-1,2.216322899E0
1.494097165E1,-7.538138330E-2,2.453466952E-1,2.189444780E0
1.495297025E1,-1.108115688E-1,2.154142857E-1,2.169897318E0
1.496496871E1,-1.181419492E-1,2.490118891E-1,2.151571274E0
1.497696641E1,-9.553993493E-2,3.180396855E-1,2.114919424E0
1.498896488E1,-6.438580900E-2,4.389909804E-1,2.062995911E0
1.500096361E1,-2.834475972E-2,5.177925825E-1,2.030619860E0
1.501296207E1,1.319407858E-2,5.703270435E-1,2.021456957E0
1.502496060E1,3.701782227E-2,5.984268188E-1,2.001298428E0
1.503696020E1,1.502667461E-2,5.984268188E-1,1.933492303E0
1.504895887E1,-6.072061509E-2,5.587205887E-1,1.829645276E0
1.506095773E1,-1.370787621E-1,5.104622245E-1,1.769780517E0
1.507295586E1,-2.061065584E-1,4.609821141E-1,1.755730629E0
1.508495433E1,-2.342063487E-1,4.157781005E-1,1.783219457E0
1.509695263E1,-2.091608793E-1,3.644654155E-1,1.822925806E0
1.510895082E1,-1.645677090E-1,2.972702384E-1,1.863853812E0
1.512095012E1,-1.554047167E-1,2.606183290E-1,1.861410260E0
1.513294892E1,-1.945001036E-1,2.691704333E-1,1.796047568E0
1.514494699E1,-2.653604746E-1,2.569531202E-1,1.687313557E0
1.515694472E1,-3.246144056E-1,2.349619865E-1,1.582244873E0
1.516894345E1,-3.191166222E-1,1.854819059E-1,1.507719278E0
1.518094261E1,-2.598626614E-1,8.224567771E-2,1.485117316E0
1.519294234E1,-1.694546342E-1,-1.854708977E-2,1.536429882E0
1.520294261E1,-9.431820363E-2,-4.175997153E-2,1.651272535E0
1.521294337E1,-3.445341066E-2,-1.610363089E-2,1.801545382E0
1.522494310E1,-1.001880039E-2,7.186096162E-2,1.868740559E0
1.523694270E1,-4.361639172E-2,1.604364365E-1,1.818649650E0
1.524894190E1,-1.144767627E-1,2.905507088E-1,1.699530959E0
1.526094016E1,-2.018304914E-1,4.341040552E-1,1.577357888E0
1.527293783E1,-2.665822208E-1,5.177925825E-1,1.469845533E0
1.528493703E1,-2.769669294E-1,5.477249622E-1,1.388600588E0
1.529693542E1,-2.476453930E-1,5.287881494E-1,1.374550700E0
1.530893372E1,-2.061065584E-1,4.915253818E-1,1.401428699E0
1.532093305E1,-1.572373211E-1,4.487648308E-1,1.416089535E0
1.533293245E1,-9.859426320E-2,3.736283779E-1,1.427695870E0
1.534493072E1,-5.216850340E-2,2.190794796E-1,1.468013048E0
1.535692918E1,-8.149003237E-2,8.468913287E-2,1.501610637E0
1.536892788E1,-2.061065584E-1,-5.336640775E-2,1.497334599E0
1.538092634E1,-3.881443739E-1,-1.462179273E-1,1.464347959E0
1.539292518E1,-5.292542577E-1,-1.828698367E-1,1.393487453E0
1.540492327E1,-5.567432046E-1,-1.981414855E-1,1.314074993E0
1.541692174E1,-4.663351476E-1,-1.621004194E-1,1.273146987E0
1.542892020E1,-3.203383386E-1,-7.535755634E-2,1.336676955E0
1.544091874E1,-1.847262532E-1,1.627222821E-2,1.450908780E0
1.545291713E1,-9.859426320E-2,4.192857072E-2,1.499167085E0
1.546491610E1,-7.415965199E-2,2.238088101E-2,1.453352332E0
1.547691456E1,-9.737252444E-2,-3.931650892E-2,1.336066127E0
1.548891303E1,-1.596807837E-1,-1.217833161E-1,1.194956303E0
1.550091143E1,-2.109934688E-1,-1.804263741E-1,1.136313200E0
1.551290989E1,-2.409258634E-1,-1.932545453E-1,1.165023923E0
1.552490836E1,-2.189347148E-1,-1.517157108E-1,1.252988577E0
1.553690689E1,-1.505178064E-1,-8.574226499E-2,1.343396425E0
1.554890535E1,-5.216850340E-2,-1.427103393E-2,1.391044021E0
1.556090375E1,1.587638748E-3,3.398732096E-2,1.348894238E0
1.557290142E1,3.274176642E-2,6.498384289E-3,1.220612526E0
1.558489988E1,2.052446082E-2,-5.764246732E-2,1.085611343E0
1.559689835E1,-1.796004921E-2,-8.024448156E-2,1.039796472E0
1.560889674E1,-7.293792069E-2,-9.979216754E-2,1.099661231E0
1.562089581E1,-9.981599450E-2,-1.095660105E-1,1.181517243E0
1.563289554E1,-1.004268602E-1,-8.879659325E-2,1.276201248E0
1.564489420E1,-8.332262933E-2,-7.230322808E-2,1.359279037E0
1.565689236E1,-7.354878634E-2,-4.847948998E-2,1.421587229E0
1.566889103E1,-6.438580900E-2,-3.992737457E-2,1.453963161E0
1.568088862E1,-5.583369359E-2,-8.773246780E-3,1.446632743E0
1.569288802E1,-5.277936906E-2,4.803721979E-2,1.378826618E0
1.570488649E1,-4.850330949E-2,6.269798428E-2,1.230386496E0
1.571688539E1,-6.805100292E-2,3.520904854E-2,1.089887500E0
1.572888385E1,-1.138658896E-1,-4.114910588E-2,1.004366279E0
1.574088285E1,-1.767850220E-1,-9.551611543E-2,1.016583562E0
1.575288018E1,-2.403150052E-1,-9.001832455E-2,1.097828746E0
1.576487858E1,-2.580300868E-1,-1.121670753E-2,1.184571505E0
1.577687704E1,-2.030522227E-1,6.025452539E-2,1.215725660E0
1.578887558E1,-1.053137854E-1,1.531060487E-1,1.182739019E0
1.580087371E1,-2.651216276E-2,1.891470999E-1,1.081335306E0
1.581287210E1,1.747013442E-2,2.141925693E-1,9.078496099E-1
1.582487057E1,1.380494423E-2,2.514553666E-1,7.557441592E-1
1.583686870E1,-3.910148516E-3,2.551205456E-1,6.744990945E-1
1.584886717E1,-6.353609730E-3,2.319076508E-1,6.622818112E-1
1.586086563E1,1.747013442E-2,1.781515181E-1,7.080966830E-1
1.587286316E1,6.206329912E-2,7.125009596E-2,7.997264266E-1
1.588486120E1,9.077396244E-2,-2.160141803E-2,9.102931023E-1
1.589685999E1,6.817194819E-2,-1.040682197E-1,9.799317122E-1
1.590885846E1,-1.246226206E-2,-1.443853229E-1,1.019637942E0
1.592085719E1,-8.637695014E-2,-1.230050474E-1,1.003144622E0
1.593285659E1,-1.260831952E-1,-8.696399629E-2,9.237321019E-1
1.594485555E1,-1.211962774E-1,1.566136442E-2,8.137763739E-1
1.595685409E1,-1.095898375E-1,1.353909522E-1,6.934359074E-1
1.596885248E1,-9.859426320E-2,2.435141057E-1,5.853127241E-1
1.598085095E1,-8.759868890E-2,3.290352523E-1,5.095654726E-1
1.599284941E1,-6.866186857E-2,3.296460807E-1,4.698592126E-1
1.600484801E1,-6.194235012E-2,2.673378289E-1,4.600853920E-1
1.601684641E1,-7.721398026E-2,1.732646078E-1,4.771896005E-1
1.602884424E1,-9.248561412E-2,3.643078357E-2,4.698592126E-1
1.604084207E1,-8.393349499E-2,-1.010138988E-1,4.539767206E-1
1.605283980E1,-3.934033215E-2,-1.877567619E-1,4.411485493E-1
1.606483833E1,3.762868792E-2,-2.500650287E-1,4.240443408E-1
1.607683689E1,1.090999246E-1,-2.616714537E-1,3.898358643E-1
1.608883619E1,1.555256844E-1,-1.987523288E-1,3.513513505E-1
1.610083556E1,1.591908783E-1,-8.818572760E-2,3.079799116E-1
1.611283502E1,1.164303049E-1,5.292414501E-2,2.578889728E-1
1.612483342E1,5.290031806E-2,1.561603695E-1,1.858068854E-1
1.613683195E1,-3.910148516E-3,1.848710328E-1,1.149465069E-1
1.614883041E1,-3.506427631E-2,1.524951756E-1,8.318151534E-2
1.616082935E1,-2.834475972E-2,4.864808545E-2,8.012719452E-2
1.617282681E1,8.918021806E-3,-8.940745890E-2,7.157508284E-2
1.618482528E1,7.977838814E-2,-2.268521488E-1,5.385999009E-2
1.619682377E1,1.463627070E-1,-3.197036386E-1,7.035334408E-2
1.620882231E1,1.762951016E-1,-3.594098985E-1,1.076161265E-1
1.622082030E1,1.445301026E-1,-3.276448846E-1,1.412137151E-1
1.623281870E1,4.923512787E-2,-2.531193495E-1,1.632048637E-1
1.624481730E1,-7.293792069E-2,-1.431636065E-1,1.424354613E-1
1.625681636E1,-1.822828054E-1,-4.359256849E-2,9.539882839E-2
1.626881523E1,-2.397041321E-1,5.109154806E-2,3.736662492E-2
1.628081443E1,-2.177129835E-1,9.812817723E-2,-2.494162694E-2
1.629281469E1,-1.309701204E-1,1.152324006E-1,-7.136738300E-2
1.630481382E1,-2.467956766E-2,1.121780723E-1,-7.503257692E-2
1.631681232E1,7.061541080E-2,1.011824980E-1,-4.815450683E-2
1.632881112E1,1.219280958E-1,7.735875249E-2,1.038470946E-4
1.634080958E1,1.152085736E-1,-1.427103393E-2,3.858835623E-2
1.635280772E1,5.839810520E-2,-1.376658231E-1,7.157508284E-2
1.636480585E1,-2.345783636E-2,-2.237978131E-1,1.082269996E-1
1.637680444E1,-8.820954710E-2,-2.036392689E-1,1.314398795E-1
1.638880291E1,-8.454436064E-2,-1.278919727E-1,1.088378578E-1
1.640080138E1,-1.185139641E-2,1.932655461E-2,5.263825879E-2
1.641279924E1,8.283271641E-2,1.598255634E-1,-1.577864960E-2
1.642479810E1,1.811820269E-1,2.929941714E-1,-9.885632247E-2
1.643679654E1,2.019514441E-1,3.608002365E-1,-1.587211192E-1
1.644879583E1,1.530822217E-1,3.626328111E-1,-1.941513121E-1
1.646079300E1,1.005478054E-1,3.003245592E-1,-1.941513121E-1
1.647279146E1,6.450676173E-2,1.842601746E-1,-1.642189026E-1
1.648479016E1,5.961984023E-2,2.177001536E-2,-1.159605458E-1
1.649678863E1,7.183714211E-2,-1.425527334E-1,-5.365229398E-2
1.650878532E1,7.183714211E-2,-2.250195444E-1,1.781893894E-2
1.652078516E1,7.428060472E-2,-2.195217609E-1,3.736662492E-2
1.653278445E1,8.161098510E-2,-9.429437667E-2,-1.028086152E-2
1.654478262E1,9.321742505E-2,7.247183472E-2,-1.501690000E-1
1.655678108E1,1.005478054E-1,1.928122938E-1,-3.505328000E-1
1.656878005E1,9.443915635E-2,2.765008211E-1,-5.863267779E-1
1.658077951E1,9.993693978E-2,2.636726499E-1,-7.408756614E-1
1.659277711E1,1.097107828E-1,1.873144954E-1,-8.221207857E-1
1.660477508E1,1.255932897E-1,7.735875249E-2,-8.111251593E-1
1.661677361E1,1.384214461E-1,-4.114910588E-2,-7.390431166E-1
1.662877257E1,1.390323192E-1,-1.737068594E-1,-6.480241418E-1
1.664076954E1,1.158194393E-1,-2.714453042E-1,-6.022092700E-1
1.665276880E1,6.389589608E-2,-3.093189299E-1,-5.887702703E-1
1.666476753E1,-2.077552723E-3,-2.775539458E-1,-6.205351949E-1
1.667676620E1,-6.621840596E-2,-2.152456939E-1,-7.060564160E-1
1.668876436E1,-1.065355092E-1,-1.321680248E-1,-8.648813367E-1
1.670076346E1,-9.248561412E-2,-4.542515799E-2,-9.949956536E-1
1.671276229E1,-6.353609730E-3,3.887424245E-2,-1.113503575E0
1.672476119E1,1.365888566E-1,6.880664080E-2,-1.191083431E0
1.673675988E1,2.673140168E-1,3.887424245E-2,-1.222237587E0
1.674875872E1,3.125180304E-1,-3.748391196E-2,-1.236898303E0
1.676075688E1,2.550967038E-1,-9.979216754E-2,-1.252780795E0
1.677275441E1,1.323128045E-1,-1.291136891E-1,-1.263165474E0
1.678475294E1,8.918021806E-3,-1.675982028E-1,-1.305315137E0
1.679675111E1,-8.454436064E-2,-2.024175227E-1,-1.352351785E0
1.680874957E1,-8.759868890E-2,-1.327788830E-1,-1.364569068E0
1.682074834E1,-2.077552723E-3,-7.902275026E-2,-1.351130128E0
1.683274774E1,1.567474008E-1,-2.893179841E-2,-1.354184389E0
1.684474614E1,3.235135972E-1,-5.718920380E-3,-1.379840732E0
1.685674460E1,4.536279440E-1,3.032212891E-2,-1.419546962E0
1.686874313E1,5.086057782E-1,4.803721979E-2,-1.483687878E0
1.688074156E1,4.713430107E-1,9.690643847E-2,-1.561878562E0
1.689274003E1,3.668850362E-1,1.292822957E-1,-1.665114880E0
1.690473843E1,2.257751822E-1,1.176758558E-1,-1.773237944E0
1.691673689E1,1.066564620E-1,1.871568896E-2,-1.864256859E0
1.692873536E1,5.351118371E-2,-1.121670753E-2,-1.868533015E0
1.694073456E1,9.566088766E-2,-3.015352972E-2,-1.795229077E0
1.695273362E1,2.196665406E-1,-2.526661009E-2,-1.712151527E0
1.696473215E1,3.729937077E-1,-1.121670753E-2,-1.699934125E0
1.697673062E1,4.707321525E-1,-4.664689302E-2,-1.750025034E0
1.698872908E1,4.505736232E-1,-1.059008166E-1,-1.787287831E0
1.700072685E1,3.314548731E-1,-1.743177325E-1,-1.767740130E0
1.701272465E1,1.903450042E-1,-1.914219558E-1,-1.735975266E0
1.702472311E1,8.710877597E-2,-2.305173278E-1,-1.753079295E0
1.703672164E1,5.351118371E-2,-2.329607904E-1,-1.811722398E0
1.704872011E1,8.038925380E-2,-1.889784932E-1,-1.857537389E0
1.706071877E1,1.219280958E-1,-1.413310021E-1,-1.899687052E0
1.707271767E1,1.347562522E-1,-8.879659325E-2,-1.946112752E0
1.708471633E1,1.097107828E-1,-4.420343041E-2,-2.006588459E0
1.709671499E1,6.328503042E-2,-3.320785612E-2,-2.038964272E0
1.710871359E1,2.357878722E-2,-6.252938509E-2,-2.035910130E0
1.712071205E1,1.013975218E-2,-1.291136891E-1,-2.037131786E0
1.713271055E1,2.174619026E-2,-2.256304026E-1,-2.046905756E0
1.714470902E1,4.007214680E-2,-3.227579892E-1,-2.020027399E0
1.715670732E1,7.366973907E-2,-4.082791209E-1,-1.969325662E0
1.716870578E1,1.219280958E-1,-4.809720814E-1,-1.899687052E0
1.718070378E1,1.634669304E-1,-5.188456774E-1,-1.799505115E0
1.719270171E1,1.701864451E-1,-5.188456774E-1,-1.695658088E0
1.720470018E1,1.109325215E-1,-4.925785363E-1,-1.655340910E0
1.721669834E1,3.640696034E-2,-4.516505301E-1,-1.703599334E0
1.722869681E1,-1.551658846E-2,-3.972835243E-1,-1.784233570E0
1.724069624E1,-2.284697071E-2,-3.404730856E-1,-1.847152710E0
1.725269504E1,5.252830219E-3,-2.885495424E-1,-1.870976448E0
1.726469343E1,2.785484493E-2,-2.494541407E-1,-1.850817919E0
1.727669230E1,4.618079960E-2,-2.036392689E-1,-1.805613756E0
1.728869090E1,7.916752994E-2,-1.792046577E-1,-1.756133795E0
1.730068913E1,1.353671253E-1,-1.730959862E-1,-1.698101521E0
1.731268786E1,1.933993250E-1,-1.517157108E-1,-1.640069366E0
1.732468746E1,2.184447944E-1,-1.315571666E-1,-1.600973964E0
1.733668722E1,1.891232729E-1,-1.040682197E-1,-1.591811061E0
1.734868705E1,1.115433797E-1,-1.205615848E-1,-1.618689060E0
1.736068651E1,3.090916947E-2,-1.376658231E-1,-1.654119253E0
1.737268644E1,-2.712302841E-2,-1.303354353E-1,-1.670612574E0
1.738468584E1,-5.155763775E-2,-1.498831213E-1,-1.692603707E0
1.739668501E1,-2.223610505E-2,-1.657656133E-1,-1.697490692E0
1.740868404E1,3.090916947E-2,-2.128022462E-1,-1.646788836E0
1.742068347E1,8.710877597E-2,-2.555628121E-1,-1.547828794E0
1.743268214E1,1.640777886E-1,-3.160384595E-1,-1.407940507E0
1.744468060E1,2.184447944E-1,-3.453599811E-1,-1.277826309E0
1.745667913E1,2.306621075E-1,-3.105406761E-1,-1.206354976E0
1.746867753E1,1.830146164E-1,-2.476215512E-1,-1.243006945E0
1.748067453E1,1.292584687E-1,-2.085261792E-1,-1.323030233E0
1.749267216E1,7.672406733E-2,-1.840915680E-1,-1.415270925E0
1.750467106E1,3.579609469E-2,-1.706525385E-1,-1.464751005E0
1.751666952E1,1.258321293E-2,-1.810372472E-1,-1.457420707E0
1.752866706E1,1.587638748E-3,-2.384585738E-1,-1.414049149E0
1.754066759E1,1.319407858E-2,-2.995451093E-1,-1.368234277E0
1.755266695E1,6.756108999E-2,-3.716272116E-1,-1.315088987E0
1.756466588E1,1.402540505E-1,-4.149986207E-1,-1.270495892E0
1.757666422E1,1.885123998E-1,-3.807902038E-1,-1.222848415E0
1.758666451E1,1.744625121E-1,-3.215362430E-1,-1.176422596E0
1.759866298E1,1.231498271E-1,-2.073044628E-1,-1.175811768E0
1.761066011E1,8.100011945E-2,-1.089551449E-1,-1.230178714E0
1.762265898E1,6.633935869E-2,-8.452054113E-2,-1.278437138E0
1.763465794E1,7.916752994E-2,-8.757486194E-2,-1.315699935E0
1.764665570E1,9.566088766E-2,-1.120094731E-1,-1.330360770E0
1.765865417E1,1.213172302E-1,-1.657656133E-1,-1.297984719E0
1.767065300E1,1.243715510E-1,-2.299064696E-1,-1.229567885E0
1.768264923E1,9.993693978E-2,-2.677801251E-1,-1.202689767E0
1.769464726E1,4.679166898E-2,-2.836625874E-1,-1.188029051E0
1.770664586E1,-2.773389220E-2,-2.451781034E-1,-1.173368335E0
1.771864426E1,-1.047029123E-1,-1.712633967E-1,-1.178866148E0
1.773064273E1,-1.578481942E-1,-1.492722481E-1,-1.234454870E0
1.774264212E1,-1.651785672E-1,-1.621004194E-1,-1.299817324E0
1.775464059E1,-1.328027248E-1,-2.048609853E-1,-1.393279791E0
1.776663899E1,-4.911417887E-2,-2.506758869E-1,-1.458642364E0
1.777863762E1,5.595464632E-2,-2.757213414E-1,-1.472692251E0
1.779063635E1,1.396431923E-1,-3.148167431E-1,-1.452533722E0
1.780263501E1,1.885123998E-1,-3.484143317E-1,-1.410994887E0
1.781463367E1,2.056166381E-1,-3.899531662E-1,-1.368845224E0
1.782663227E1,1.915667206E-1,-3.673511446E-1,-1.326695442E0
1.783863077E1,1.683538556E-1,-2.531193495E-1,-1.313867331E0
1.785062923E1,1.591908783E-1,-1.071225479E-1,-1.365790844E0
1.786262683E1,1.769059598E-1,-2.893179841E-2,-1.436040282E0
1.787462523E1,2.031731755E-1,7.613702118E-2,-1.527059317E0
1.788662376E1,1.982862502E-1,1.311149001E-1,-1.634571552E0
1.789862176E1,1.799602956E-1,8.468913287E-2,-1.772627115E0
1.791062022E1,1.665212512E-1,-5.825332925E-2,-1.842876554E0
1.792261966E1,1.750733703E-1,-2.787756920E-1,-1.822718024E0
1.793461799E1,1.909558773E-1,-5.982581973E-1,-1.690771103E0
1.794661645E1,1.720190495E-1,-8.377174139E-1,-1.479411721E0
1.795861545E1,1.194846332E-1,-9.116320610E-1,-1.317532420E0
1.797061368E1,6.145243347E-2,-8.340522051E-1,-1.332804084E0
1.798261118E1,3.579609469E-2,-6.959966421E-1,-1.429931641E0
1.799460978E1,3.701782227E-2,-5.267869830E-1,-1.577761054E0
1.800660791E1,6.023070216E-2,-3.942292035E-1,-1.709097147E0
1.801860638E1,7.122628391E-2,-3.331426978E-1,-1.778124928E0
1.803060454E1,6.328503042E-2,-3.783467114E-1,-1.774459720E0
1.804260294E1,5.839810520E-2,-4.437092841E-1,-1.723146915E0
1.805460147E1,6.084156781E-2,-5.774887800E-1,-1.604639173E0
1.806660027E1,7.672406733E-2,-7.008835673E-1,-1.478800893E0
1.807859867E1,8.894136548E-2,-7.509745359E-1,-1.399388433E0
1.809059756E1,7.794579118E-2,-6.685076952E-1,-1.379840732E0
1.810259696E1,5.228945613E-2,-5.286195874E-1,-1.391447186E0
1.811459533E1,3.518522531E-2,-3.478034735E-1,-1.450700998E0
1.812659379E1,3.029830568E-2,-1.853133142E-1,-1.567987204E0
1.813859226E1,3.457436338E-2,-5.886419863E-2,-1.701155901E0
1.815059076E1,3.518522531E-2,-1.671449468E-2,-1.784844398E0
1.816258922E1,2.968744002E-2,-2.832093462E-2,-1.830048442E0
1.817458779E1,2.113532647E-2,-1.468288004E-1,-1.829437613E0
1.818658638E1,4.190474376E-2,-3.569664359E-1,-1.767129302E0
1.819858504E1,6.756108999E-2,-5.286195874E-1,-1.633960724E0
1.821058378E1,9.932608157E-2,-6.159733534E-1,-1.498348594E0
1.822258247E1,1.237606853E-1,-5.958147645E-1,-1.457420707E0
1.823458140E1,1.420866400E-1,-5.310630202E-1,-1.484298706E0
1.824657987E1,1.420866400E-1,-4.137769043E-1,-1.553326368E0
1.825857830E1,1.237606853E-1,-2.958799005E-1,-1.646178007E0
1.827057676E1,9.382829070E-2,-2.445672303E-1,-1.706042767E0
1.828257426E1,7.000454515E-2,-2.250195444E-1,-1.690771103E0
1.829457239E1,5.656550825E-2,-2.085261792E-1,-1.626019359E0
1.830657093E1,6.511761993E-2,-2.292955965E-1,-1.548439622E0
1.831856942E1,1.072673276E-1,-2.195217609E-1,-1.462918401E0
1.833056789E1,1.805711538E-1,-1.877567619E-1,-1.393279791E0
1.834256722E1,2.361598909E-1,-1.810372472E-1,-1.371899486E0
1.835456568E1,2.599836290E-1,-1.908110976E-1,-1.350519180E0
1.836656415E1,2.214991301E-1,-2.237978131E-1,-1.333415031E0
1.837856268E1,1.591908783E-1,-2.665583789E-1,-1.336469412E0
1.839056128E1,9.993693978E-2,-3.135949969E-1,-1.330360770E0
1.840256044E1,8.283271641E-2,-3.386404812E-1,-1.332804084E0
1.841455951E1,7.183714211E-2,-3.368079066E-1,-1.327306271E0
1.842655877E1,6.023070216E-2,-2.922147214E-1,-1.317532420E0
1.843855823E1,4.923512787E-2,-2.195217609E-1,-1.288210988E0
1.845055730E1,5.290031806E-2,-9.795957059E-2,-1.268663168E0
1.846255593E1,7.183714211E-2,-2.211332176E-4,-1.292487025E0
1.847455466E1,8.710877597E-2,1.188975871E-1,-1.364569068E0
1.848655313E1,7.366973907E-2,2.099165022E-1,-1.461085796E0
1.849855126E1,3.701782227E-2,2.422923744E-1,-1.545385242E0
1.851054946E1,2.235705778E-2,1.781515181E-1,-1.577761054E0
1.852254792E1,3.762868792E-2,3.704164550E-2,-1.544774413E0
1.853454639E1,6.756108999E-2,-1.908110976E-1,-1.444592357E0
1.854654479E1,8.588703722E-2,-4.223290086E-1,-1.285767436E0
1.855854378E1,6.572849303E-2,-5.414477587E-1,-1.138548970E0
1.857054252E1,4.434820637E-2,-5.041849613E-1,-1.087236285E0
1.858254005E1,6.633935869E-2,-4.418767095E-1,-1.147711873E0
1.859453891E1,1.017695367E-1,-3.478034735E-1,-1.275382757E0
1.860653738E1,1.023804024E-1,-2.696126997E-1,-1.411605716E0
1.861853608E1,4.007214680E-2,-2.561736703E-1,-1.487963915E0
1.863053461E1,-4.178379476E-2,-2.922147214E-1,-1.468416214E0
1.864253401E1,-6.866186857E-2,-3.484143317E-1,-1.395112395E0
1.865453274E1,-3.872947022E-2,-3.881205618E-1,-1.327306271E0
1.866653120E1,2.113532647E-2,-4.516505301E-1,-1.305315137E0
1.867852883E1,4.495907202E-2,-4.736416936E-1,-1.290043592E0
1.869052730E1,1.013975218E-2,-3.814010322E-1,-1.291265249E0
1.870252570E1,-4.239465669E-2,-2.891604006E-1,-1.342578053E0
1.871452343E1,-1.034811884E-1,-1.553809047E-1,-1.425655603E0
1.872652196E1,-1.389113665E-1,-2.893179841E-2,-1.498348594E0
1.873852009E1,-1.437982917E-1,3.276558965E-2,-1.541109085E0
1.875051849E1,-1.407439560E-1,6.498384289E-3,-1.524615884E0
1.876251602E1,-1.541830003E-1,-3.565131873E-2,-1.462307453E0
1.877451449E1,-1.670111716E-1,-1.193398610E-1,-1.312645555E0
1.878651295E1,-1.334135681E-1,-1.706525385E-1,-1.110449195E0
1.879851155E1,-3.445341066E-2,-1.682090759E-1,-9.314656258E-1
1.881051018E1,1.011586785E-1,-1.773720533E-1,-8.416684866E-1
1.882250978E1,1.616343409E-1,-1.559917778E-1,-7.879123092E-1
1.883450837E1,1.915667206E-1,-8.818572760E-2,-7.066672444E-1
1.884650704E1,1.933993250E-1,-2.053729026E-3,-6.724588275E-1
1.885850597E1,1.640777886E-1,1.060694233E-1,-7.549256086E-1
1.887050446E1,1.164303049E-1,1.524951756E-1,-8.386141062E-1
1.888250326E1,9.260655940E-2,1.708211303E-1,-8.624378443E-1
1.889450180E1,8.405444026E-2,1.292822957E-1,-8.752660751E-1
1.890650039E1,9.566088766E-2,1.566136442E-2,-8.312837481E-1
1.891849839E1,1.231498271E-1,-9.124004841E-2,-7.207171917E-1
1.893049686E1,1.787385494E-1,-1.578243673E-1,-6.364177465E-1
1.894249412E1,2.263860404E-1,-1.706525385E-1,-6.070961952E-1
1.895449259E1,2.776987255E-1,-1.230050474E-1,-5.973224044E-1
1.896649042E1,3.082419932E-1,-6.497284770E-2,-6.199243665E-1
1.897848942E1,2.740335464E-1,-1.442863722E-3,-6.614632010E-1
1.899048831E1,1.927884668E-1,2.543520741E-2,-6.993368268E-1
1.900248771E1,1.054347306E-1,3.581991419E-2,-7.048346400E-1
1.901448611E1,3.885041922E-2,3.520904854E-2,-6.944499612E-1
1.902648501E1,4.373734072E-2,1.260703616E-2,-6.926173568E-1
1.903848347E1,1.011586785E-1,-5.108055193E-3,-6.852869987E-1
1.905048064E1,1.561365575E-1,2.222327748E-3,-6.687935591E-1
1.906247974E1,1.781277061E-1,1.611462445E-3,-6.663501859E-1
1.907447820E1,1.817928851E-1,-2.221228182E-2,-6.504676342E-1
1.908647723E1,1.726299077E-1,-3.809478134E-2,-6.015984416E-1
1.909847570E1,1.512496173E-1,-4.359256849E-2,-5.331815481E-1
1.911047503E1,1.317019314E-1,-1.915795542E-2,-4.940861464E-1
1.912247219E1,9.077396244E-2,9.552710690E-3,-5.026382208E-1
1.913447072E1,2.113532647E-2,3.520904854E-2,-5.423445106E-1
1.914646769E1,-3.750773519E-2,3.459818661E-2,-5.667791367E-1
1.915846616E1,-5.155763775E-2,2.177001536E-2,-5.734986067E-1
1.917046542E1,-3.017735481E-2,-2.526661009E-2,-5.496748686E-1
1.918246362E1,1.587638748E-3,-6.008592620E-2,-4.940861464E-1
1.919446212E1,5.961984023E-2,-5.886419863E-2,-4.189496934E-1
1.920646158E1,1.249824241E-1,-2.587747388E-2,-3.383154869E-1
1.921846018E1,1.616343409E-1,1.505049784E-2,-2.912788689E-1
1.923045804E1,1.207063571E-1,7.720115129E-3,-2.735637724E-1
1.924245757E1,4.190474376E-2,2.177001536E-2,-2.460748404E-1
1.925445620E1,-4.056205973E-2,2.543520741E-2,-2.228619754E-1
1.926645536E1,-8.576609194E-2,2.115915157E-2,-2.173641771E-1
1.927845383E1,-9.981599450E-2,-8.162381127E-3,-2.008708119E-1
1.929045229E1,-9.004214406E-2,-2.343401313E-2,-1.416168809E-1
1.930244989E1,-6.255321205E-2,-1.427103393E-2,-8.602815121E-2
1.931444836E1,-3.689687327E-2,3.897320421E-4,-4.387845099E-2
1.932644619E1,-3.384254500E-2,3.154385835E-2,-3.532633558E-2
1.933844465E1,-3.811860457E-2,7.430443168E-2,-5.426315963E-2
1.935044312E1,-2.712302841E-2,1.469973922E-1,-5.487402529E-2
1.936244252E1,-9.407935664E-3,1.983100772E-1,-3.838066384E-2
1.937444091E1,-5.742744077E-3,1.940340102E-1,-1.028086152E-2
1.938643945E1,-4.117292911E-2,1.274497062E-1,3.736662492E-2
1.939843798E1,-8.637695014E-2,3.398732096E-2,1.051726714E-1
1.941043644E1,-9.920512140E-2,-2.709920332E-2,1.656483263E-1
1.942243484E1,-8.087916672E-2,-1.793622598E-2,1.748113036E-1
1.943443374E1,-4.544898495E-2,-1.442863722E-3,1.381593943E-1
1.944643270E1,-1.796004921E-2,1.688309200E-2,1.186117008E-1
1.945843236E1,2.809369238E-3,2.054828405E-2,1.424354613E-1
1.947043203E1,2.418965288E-2,5.887519568E-3,1.931372732E-1
1.948243169E1,2.846571058E-2,4.054923542E-3,2.444499582E-1
1.949443126E1,1.319407858E-2,1.505049784E-2,2.890431285E-1
1.950643089E1,-1.246226206E-2,-4.497190006E-3,3.177537918E-1
1.951842995E1,-2.223610505E-2,-1.671449468E-2,3.623469174E-1
1.953042935E1,6.474560592E-3,-3.565131873E-2,4.252660573E-1
1.954242868E1,4.984599352E-2,-4.298169911E-2,4.857417345E-1
1.955442788E1,7.305887341E-2,-3.748391196E-2,5.059002638E-1
1.956642611E1,4.434820637E-2,-5.947506428E-2,4.912394881E-1
1.957842448E1,-2.077552723E-3,-4.664689302E-2,4.949046969E-1
1.959042294E1,5.252830219E-3,-1.732535847E-2,5.193393230E-1
1.960242154E1,7.672406733E-2,-1.121670753E-2,5.486608148E-1
1.961442001E1,1.646886617E-1,-3.275459632E-3,5.963083506E-1
1.962641834E1,1.872906834E-1,-2.282314748E-2,6.696121693E-1
1.963841724E1,1.433083862E-1,-5.947506428E-2,7.514680624E-1
1.965041577E1,4.251560941E-2,-6.130765751E-2,8.125545979E-1
1.966241330E1,-2.651216276E-2,-3.442958742E-2,8.149980903E-1
1.967441177E1,-7.171619684E-2,2.543520741E-2,7.581876516E-1
1.968641106E1,-6.621840596E-2,6.391971558E-2,7.050423622E-1
1.969840953E1,-4.117292911E-2,8.591086417E-2,7.111510038E-1
1.971040799E1,-1.551658846E-2,8.713259548E-2,8.040025234E-1
1.972240746E1,5.863695405E-3,7.430443168E-2,8.980757594E-1
1.973440556E1,3.762868792E-2,9.385211021E-2,1.014751077E0
1.974640402E1,4.984599352E-2,1.079020128E-1,1.058122396E0
1.975840249E1,2.968744002E-2,1.188975871E-1,1.012918353E0
1.977040095E1,-1.918178052E-2,1.030150875E-1,9.573296905E-1
1.978239842E1,-4.667071626E-2,6.208711863E-2,9.359493852E-1
1.979439718E1,-5.766629055E-2,1.199617237E-2,9.420580268E-1
1.980639571E1,-3.811860457E-2,-1.610363089E-2,9.842077494E-1
1.981839398E1,2.198504051E-3,-4.847948998E-2,1.009864092E0
1.983039251E1,4.801339656E-2,-3.931650892E-2,1.025135756E0
1.984039321E1,7.305887341E-2,2.833193168E-3,1.039796472E0
1.985239184E1,9.443915635E-2,7.430443168E-2,1.059955120E0
1.986439034E1,1.048238650E-1,1.195084527E-1,1.083167911E0
1.987638920E1,9.810435027E-2,1.360018104E-1,1.105769873E0
1.988838780E1,7.000454515E-2,1.164541319E-1,1.141811013E0
1.990038600E1,4.495907202E-2,8.102393895E-2,1.190680146E0
1.991238443E1,3.152003512E-2,5.903279409E-2,1.260929704E0
1.992438306E1,2.846571058E-2,4.803721979E-2,1.345229149E0
1.993638115E1,3.640696034E-2,6.880664080E-2,1.428917646E0
1.994837962E1,3.701782227E-2,1.665450782E-1,1.494280219E0
1.996037752E1,3.029830568E-2,2.587857246E-1,1.525434375E0
1.997237618E1,1.197234821E-2,4.011173546E-1,1.537651658E0
1.998437458E1,-6.964474451E-3,4.982449114E-1,1.522379994E0
1.999637335E1,-3.323168308E-2,5.746030807E-1,1.500999808E0
2.000837181E1,-6.133148074E-2,5.825443268E-1,1.502832413E0
2.002036934E1,-6.133148074E-2,5.532227755E-1,1.536429882E0
2.003236767E1,-4.300552234E-2,4.793080688E-1,1.582855701E0
2.004436614E1,-8.797070943E-3,3.730175197E-1,1.633557439E0
2.005636467E1,1.380494423E-2,3.296460807E-1,1.722132921E0
2.006836314E1,3.659082868E-4,3.565241694E-1,1.788717270E0
2.008036277E1,-2.040350996E-2,4.261628091E-1,1.782608628E0
2.009236113E1,-3.811860457E-2,5.251230001E-1,1.741680622E0
2.010435916E1,-4.483811930E-2,6.069789529E-1,1.685481071E0
2.011635803E1,-5.277936906E-2,6.442416906E-1,1.630503178E0
2.012835656E1,-8.637695014E-2,6.271374226E-1,1.626227140E0
2.014035436E1,-1.132550314E-1,6.136984229E-1,1.663489819E0
2.015235199E1,-1.114224344E-1,5.623857379E-1,1.685481071E0
2.016435046E1,-8.759868890E-2,4.854167402E-1,1.691589713E0
2.017634852E1,-5.155763775E-2,4.273845553E-1,1.703806996E0
2.018834692E1,-1.857091486E-2,4.041716754E-1,1.728241563E0
2.020034565E1,-1.857091486E-2,4.169998169E-1,1.737404704E0
2.021234481E1,-3.506427631E-2,4.200541675E-1,1.722132921E0
2.022434378E1,-7.415965199E-2,4.035607874E-1,1.683648467E0
2.023634224E1,-1.334135681E-1,3.498046696E-1,1.648218274E0
2.024834064E1,-2.012196183E-1,2.887181342E-1,1.652494431E0
2.026033981E1,-2.140477896E-1,2.312967926E-1,1.679983258E0
2.027233887E1,-1.743415594E-1,1.860927790E-1,1.716024280E0
2.028433660E1,-1.059246436E-1,1.970883459E-1,1.740458965E0
2.029633550E1,-4.178379476E-2,2.484010160E-1,1.742291451E0
2.030833423E1,-9.407935664E-3,3.198722601E-1,1.733739376E0
2.032033346E1,-3.445341066E-2,3.736283779E-1,1.742291451E0
2.033233132E1,-7.171619684E-2,4.261628091E-1,1.745956659E0
2.034433022E1,-1.047029123E-1,4.719776809E-1,1.725798249E0
2.035632839E1,-1.016485915E-1,5.440598130E-1,1.725187302E0
2.036832685E1,-8.820954710E-2,6.216397285E-1,1.744735003E0
2.038032328E1,-9.615080059E-2,6.570698619E-1,1.756341457E0
2.039232218E1,-1.297483891E-1,6.314135194E-1,1.775889158E0
2.040432108E1,-1.694546342E-1,5.776574016E-1,1.828423619E0
2.041631911E1,-2.042739540E-1,4.793080688E-1,1.926162004E0
2.042831758E1,-2.317628711E-1,3.809587657E-1,2.062385082E0
2.044031697E1,-2.574192286E-1,3.766826987E-1,2.172951460E0
2.045231554E1,-2.849081755E-1,4.713668227E-1,2.231594563E0
2.046431400E1,-2.940711379E-1,6.155310273E-1,2.187612295E0
2.047631277E1,-2.824646831E-1,7.706907988E-1,2.072769642E0
2.048831123E1,-2.610844076E-1,8.329991102E-1,1.936546683E0
2.050030963E1,-2.232107669E-1,7.798537612E-1,1.862631917E0
2.051230793E1,-1.749524176E-1,6.363005042E-1,1.896840453E0
2.052430623E1,-1.279157996E-1,4.157781005E-1,2.017180920E0
2.053630519E1,-1.199745461E-1,2.270207405E-1,2.154625416E0
2.054830445E1,-1.804502159E-1,1.592146903E-1,2.234038115E0
2.056030312E1,-3.032341301E-1,2.203012258E-1,2.241368294E0
2.057230315E1,-4.302940965E-1,3.797370493E-1,2.182725430E0
2.058230328E1,-4.926023483E-1,5.275664926E-1,2.092928171E0
2.059430308E1,-4.895479977E-1,6.381330490E-1,1.995800614E0
2.060630271E1,-4.327375591E-1,6.961652040E-1,1.959148645E0
2.061630317E1,-3.899769783E-1,7.383149266E-1,1.954261661E0
2.062630373E1,-3.771488070E-1,7.651929855E-1,1.968311667E0
2.063830260E1,-4.156333208E-1,7.682473660E-1,2.024511337E0
2.065030156E1,-4.736655354E-1,7.218216062E-1,2.127747536E0
2.066230070E1,-4.968783855E-1,6.619567871E-1,2.235259771E0
2.067429966E1,-4.834393561E-1,6.082006097E-1,2.381867409E0
2.068629683E1,-4.302940965E-1,6.112549901E-1,2.490601540E0
2.069829529E1,-3.533250690E-1,6.356895566E-1,2.515036106E0
2.071029376E1,-3.075101674E-1,7.004413009E-1,2.468610287E0
2.072229229E1,-3.142296970E-1,7.315954566E-1,2.388586998E0
2.073428915E1,-3.484381437E-1,7.364823818E-1,2.277409315E0
2.074628762E1,-3.747053444E-1,6.778392792E-1,2.164399385E0
2.075828625E1,-3.624880314E-1,5.623857379E-1,2.103312969E0
2.077028471E1,-2.922385633E-1,4.371583760E-1,2.126525879E0
2.078228311E1,-2.305411547E-1,3.956195414E-1,2.208992720E0
2.079428211E1,-1.792284697E-1,3.882891536E-1,2.323835135E0
2.080628064E1,-1.303592473E-1,4.047825336E-1,2.420351982E0
2.081827874E1,-3.934033215E-2,4.121129215E-1,2.473497391E0
2.083027674E1,8.771963418E-2,4.115020335E-1,2.446008205E0
2.084227514E1,1.616343409E-1,3.882891536E-1,2.331165552E0
2.085427380E1,1.976753771E-1,3.363656402E-1,2.148516893E0
2.086627263E1,1.585800052E-1,3.039897382E-1,1.995189667E0
2.087827136E1,6.633935869E-2,2.227446735E-1,1.907836080E0
2.089027020E1,-2.651216276E-2,1.164541319E-1,1.906614304E0
2.090226829E1,-8.698782325E-2,3.643078357E-2,2.010461330E0
2.091426563E1,-9.492906928E-2,-1.488189865E-2,2.182114601E0
2.092626422E1,-6.072061509E-2,-2.160141803E-2,2.356211185E0
2.093826299E1,-2.651216276E-2,3.444058122E-3,2.480216742E0
2.095026105E1,-3.200994805E-2,6.941750646E-2,2.527253389E0
2.096225995E1,-6.194235012E-2,8.285653591E-2,2.486936331E0
2.097226075E1,-1.358570457E-1,1.366126835E-1,2.398971796E0
2.098425865E1,-2.494779825E-1,1.641016304E-1,2.272522449E0
2.099625691E1,-3.600445986E-1,1.744863242E-1,2.175395012E0
2.100825601E1,-4.339592755E-1,2.044187188E-1,2.132023335E0
2.102025454E1,-4.351809919E-1,2.257990092E-1,2.097204447E0
2.103225207E1,-3.960856199E-1,2.367945910E-1,2.021456957E0
2.104424937E1,-3.606554568E-1,2.435141057E-1,1.944487929E0
2.105624790E1,-3.673749566E-1,2.435141057E-1,1.910279393E0
2.106824750E1,-4.015834332E-1,2.447358221E-1,1.945709586E0
2.108024759E1,-4.296832383E-1,2.465684265E-1,2.011072159E0
2.109224509E1,-4.260180295E-1,1.860927790E-1,2.011072159E0
2.110424482E1,-4.174659252E-1,1.115672067E-1,1.971365929E0
2.111624332E1,-4.266289175E-1,3.826337680E-2,1.932270646E0
2.112824145E1,-4.284614921E-1,-6.069679186E-2,1.889510036E0
2.114023872E1,-4.064703286E-1,-1.504939944E-1,1.851636410E0
2.115223805E1,-3.777596653E-1,-1.144529358E-1,1.868129730E0
2.116423662E1,-3.582119942E-1,-1.366016828E-2,1.937157631E0
2.117623515E1,-3.576011360E-1,1.292822957E-1,1.993357182E0
2.118823281E1,-3.777596653E-1,2.465684265E-1,1.978696465E0
2.120023144E1,-4.089138210E-1,3.241483271E-1,1.865686297E0
2.121223001E1,-4.144116044E-1,2.923833430E-1,1.700141788E0
2.122422854E1,-4.192985296E-1,2.606183290E-1,1.592629552E0
2.123622751E1,-4.351809919E-1,2.129708380E-1,1.595683813E0
2.124822590E1,-4.559504390E-1,2.044187188E-1,1.640887976E0
2.126022330E1,-4.626699388E-1,2.050295919E-1,1.698309183E0
2.127222083E1,-4.327375591E-1,1.842601746E-1,1.736793756E0
2.128421980E1,-4.064703286E-1,2.068621814E-1,1.739848018E0
2.129621763E1,-4.180767834E-1,1.634907573E-1,1.761839271E0
2.130821616E1,-4.724437892E-1,1.537169069E-1,1.846749544E0
2.132021523E1,-5.536888242E-1,1.805949807E-1,1.909057736E0
2.133221462E1,-6.324904561E-1,2.141925693E-1,1.905392528E0
2.134421252E1,-6.624228954E-1,2.600074410E-1,1.839419127E0
2.135621099E1,-6.276035905E-1,2.899398506E-1,1.753897905E0
2.136820945E1,-5.170369148E-1,2.575640082E-1,1.597516537E0
2.138020872E1,-3.850900531E-1,2.001426667E-1,1.431971908E0
2.139220625E1,-2.164912522E-1,1.457756609E-1,1.294527292E0
2.140420488E1,-9.370733798E-2,1.879253685E-1,1.267038345E0
2.141620351E1,-9.309647232E-2,2.691704333E-1,1.329957485E0
2.142820217E1,-2.103825957E-1,2.929941714E-1,1.429528594E0
2.144020033E1,-3.295013011E-1,2.972702384E-1,1.499778032E0
2.145219966E1,-4.003616869E-1,2.575640082E-1,1.558421135E0
2.146419816E1,-3.905878663E-1,2.355728447E-1,1.614620686E0
2.147619726E1,-3.130079508E-1,2.300750613E-1,1.582855701E0
2.148819579E1,-2.152695209E-1,2.013643980E-1,1.449687123E0
2.150019389E1,-1.664002985E-1,1.958666146E-1,1.353781223E0
2.151219256E1,-1.535721272E-1,2.184686214E-1,1.267649174E0
2.152419102E1,-1.670111716E-1,2.484010160E-1,1.166245580E0
2.153618895E1,-1.804502159E-1,3.027680218E-1,1.078891873E0
2.154818735E1,-1.578481942E-1,3.565241694E-1,1.012918353E0
2.156018582E1,-9.492906928E-2,3.840130866E-1,9.671035409E-1
2.157218341E1,-5.742744077E-3,4.017282128E-1,9.487776160E-1
2.158418235E1,8.161098510E-2,4.481539726E-1,9.420580268E-1
2.159618038E1,1.463627070E-1,4.786972106E-1,9.200668931E-1
2.160817878E1,1.561365575E-1,4.713668227E-1,8.870801926E-1
2.162017707E1,8.771963418E-2,4.493756890E-1,8.736411929E-1
2.163217580E1,-4.972504079E-2,4.292171299E-1,8.608129621E-1
2.164417427E1,-1.914457828E-1,3.284243643E-1,8.430979252E-1
2.165417520E1,-2.794103622E-1,2.545096874E-1,8.455412984E-1
2.166617446E1,-3.319447935E-1,1.592146903E-1,8.565369248E-1
2.167617459E1,-3.343882561E-1,7.796961814E-2,8.540934324E-1
2.168817359E1,-3.209492266E-1,2.848953195E-2,8.620347381E-1
2.170017339E1,-3.032341301E-1,5.887519568E-3,8.962431550E-1
2.171216989E1,-2.836864293E-1,2.833193168E-3,9.090713263E-1
2.172416842E1,-2.372606695E-1,2.482434362E-2,8.528717160E-1
2.173616659E1,-1.853371263E-1,7.552615553E-2,7.581876516E-1
2.174816505E1,-1.535721272E-1,1.952557564E-1,6.867163777E-1
2.176016328E1,-1.395222247E-1,3.119310141E-1,6.182994843E-1
2.177216291E1,-1.358570457E-1,3.779044449E-1,5.236153603E-1
2.178416138E1,-1.425765604E-1,3.705740571E-1,4.228225946E-1
2.179615958E1,-1.474634856E-1,3.284243643E-1,3.434101343E-1
2.180815804E1,-1.425765604E-1,3.052114844E-1,3.000386953E-1
2.181815821E1,-1.346353143E-1,2.447358221E-1,2.609432936E-1
2.183015671E1,-1.291375309E-1,1.506625861E-1,2.279565930E-1
2.184215477E1,-1.260831952E-1,2.971126325E-2,2.224587947E-1
2.185415324E1,-1.108115688E-1,-4.114910588E-2,2.316217870E-1
2.186615170E1,-7.232705504E-2,-8.513139933E-2,2.273457199E-1
2.187814810E1,-4.178379476E-2,-5.031208321E-2,2.132958174E-1
2.189014646E1,-5.644455925E-2,2.222327748E-3,1.693135202E-1
2.190214416E1,-9.431820363E-2,3.887424245E-2,1.125030518E-1
2.191414263E1,-1.254723370E-1,3.948510811E-2,2.514932305E-2
2.192614016E1,-1.273049265E-1,3.897320421E-4,-4.693277925E-2
2.193813949E1,-8.210089803E-2,-1.121670753E-2,-7.930862904E-2
2.195013802E1,-2.223610505E-2,2.054828405E-2,-1.031323746E-1
2.196213739E1,-1.466687419E-3,4.681549221E-2,-1.275669932E-1
2.197413592E1,-2.956648916E-2,3.643078357E-2,-1.501690000E-1
2.198613532E1,-8.332262933E-2,-2.526661009E-2,-1.752144843E-1
2.199813285E1,-1.218071431E-1,-1.046790928E-1,-1.892643720E-1
2.201013128E1,-1.279157996E-1,-1.578243673E-1,-1.697166860E-1
2.202212981E1,-1.059246436E-1,-1.920328289E-1,-1.513907313E-1
2.203412847E1,-5.766629055E-2,-1.779829264E-1,-1.226800680E-1
2.204612707E1,1.441580895E-2,-8.207707852E-2,-1.116844937E-1
2.205812667E1,9.688261151E-2,2.177001536E-2,-1.605537087E-1
2.207012583E1,1.188737676E-1,8.468913287E-2,-2.393553257E-1
2.208212423E1,6.206329912E-2,9.812817723E-2,-2.729529142E-1
2.209412263E1,-5.277936906E-2,1.127889380E-1,-2.466857135E-1
2.210612062E1,-1.413548291E-1,8.835432678E-2,-1.788796633E-1
2.211811886E1,-1.633459777E-1,5.658933520E-2,-1.061867028E-1
2.213011689E1,-1.236397400E-1,1.932655461E-2,-5.548489094E-2
2.214211555E1,-6.682927161E-2,1.566136442E-2,-5.059796944E-2
2.215411402E1,9.767734446E-4,-3.275459632E-3,-9.213680029E-2
2.216611295E1,5.961984023E-2,-3.198612481E-2,-1.446712166E-1
2.217811071E1,9.993693978E-2,-4.909035191E-2,-2.136989832E-1
2.219010918E1,1.341453940E-1,-4.114910588E-2,-2.882245481E-1
2.220210708E1,1.494170278E-1,7.109249476E-3,-3.523653746E-1
2.221410554E1,1.555256844E-1,4.131770507E-2,-4.262800813E-1
2.222610407E1,1.677429825E-1,8.285653591E-2,-5.056925416E-1
2.223810354E1,1.988971084E-1,1.024042293E-1,-5.716660023E-1
2.225010194E1,2.715900838E-1,4.498289526E-2,-6.351959705E-1
2.226210097E1,3.455047607E-1,-1.304930262E-2,-6.675718427E-1
2.227409943E1,4.267498553E-1,-4.847948998E-2,-6.858978271E-1
2.228609790E1,4.682886899E-1,-9.979216754E-2,-7.139976025E-1
2.229809630E1,4.542388022E-1,-1.236159131E-1,-7.500386834E-1
2.231009476E1,3.949848711E-1,-9.918130189E-2,-7.818036675E-1
2.232209386E1,3.345091939E-1,-7.108150423E-2,-8.532748818E-1
2.233409229E1,2.886942923E-1,-4.786862060E-2,-9.546785355E-1
2.234609076E1,2.862508595E-1,-2.037968673E-2,-1.038977861E0
2.235808822E1,3.247353435E-1,-1.610363089E-2,-1.087236285E0
2.237008668E1,3.717719615E-1,1.566136442E-2,-1.084182024E0
2.238208452E1,4.340802431E-1,-1.060584281E-2,-1.086625338E0
2.239408308E1,5.037188530E-1,-4.725775495E-2,-1.092123151E0
2.240608201E1,5.434250832E-1,-5.214468017E-2,-1.110449195E0
2.241808124E1,5.373164415E-1,-9.918130189E-2,-1.152598858E0
2.243007981E1,4.627909064E-1,-1.046790928E-1,-1.178255200E0
2.244207847E1,3.656633198E-1,-9.185092151E-2,-1.209409356E0
2.245407707E1,2.770878673E-1,-7.780101895E-2,-1.243006945E0
2.246607520E1,2.581510246E-1,-4.420343041E-2,-1.244839430E0
2.247807316E1,3.406178653E-1,-1.095660105E-1,-1.232622147E0
2.249007179E1,4.652343690E-1,-1.798155159E-1,-1.214296222E0
2.250207032E1,5.929052234E-1,-2.598388791E-1,-1.236287355E0
2.251406996E1,7.071370482E-1,-3.172602057E-1,-1.310812950E0
2.252606842E1,7.547844648E-1,-3.313100934E-1,-1.409773231E0
2.253806692E1,7.340150476E-1,-2.891604006E-1,-1.524615884E0
2.255006538E1,6.448287368E-1,-2.586171329E-1,-1.603417516E0
2.256206371E1,5.385382175E-1,-2.482324243E-1,-1.607693434E0
2.257406101E1,4.395780265E-1,-2.115805000E-1,-1.535000443E0
2.258605948E1,4.175868928E-1,-1.425527334E-1,-1.466583610E0
2.259805884E1,4.719538987E-1,-1.828698367E-1,-1.489185691E0
2.261005724E1,5.385382175E-1,-2.628931999E-1,-1.556380749E0
2.262205571E1,5.764117837E-1,-4.125551879E-1,-1.594254375E0
2.263205577E1,5.819095969E-1,-5.609954000E-1,-1.614413023E0
2.264405430E1,5.819095969E-1,-7.100465894E-1,-1.607082605E0
2.265605270E1,5.874074101E-1,-7.295942307E-1,-1.572263360E0
2.266805136E1,6.087877154E-1,-6.110863686E-1,-1.564321995E0
2.268005033E1,5.935160518E-1,-4.492070973E-1,-1.600363016E0
2.269204803E1,5.208231211E-1,-3.093189299E-1,-1.683440804E0
2.270404762E1,4.249172807E-1,-2.573954165E-1,-1.788509607E0
2.271604659E1,3.968174458E-1,-3.203145266E-1,-1.863035202E0
2.272804592E1,4.798951149E-1,-4.589809179E-1,-1.861202478E0
2.274004561E1,5.984029770E-1,-5.811539888E-1,-1.819052815E0
2.275204558E1,6.802589297E-1,-7.271507382E-1,-1.768351078E0
2.276404508E1,6.429961324E-1,-8.615411520E-1,-1.735364199E0
2.277604411E1,5.183796287E-1,-9.232385159E-1,-1.728644729E0
2.278804357E1,3.962065876E-1,-8.810887933E-1,-1.700545073E0
2.280004277E1,3.424504399E-1,-6.947749257E-1,-1.686495066E0
2.281204110E1,3.345091939E-1,-4.968545735E-1,-1.745748997E0
2.282403933E1,3.332874775E-1,-4.308811426E-1,-1.850817919E0
2.283603873E1,3.137397766E-1,-5.267869830E-1,-1.909460902E0
2.284803720E1,2.764769793E-1,-6.581229568E-1,-1.849596024E0
2.286003520E1,2.862508595E-1,-7.534179688E-1,-1.757966280E0
2.287203366E1,3.277896643E-1,-8.352739215E-1,-1.693214655E0
2.288403212E1,3.778806031E-1,-8.798670769E-1,-1.646788836E0
2.289603166E1,3.833784163E-1,-8.737584352E-1,-1.578982830E0
2.290803012E1,3.308439851E-1,-7.295942307E-1,-1.543552637E0
2.292002859E1,2.819747925E-1,-6.269688606E-1,-1.596086979E0
2.293202705E1,2.715900838E-1,-5.756561756E-1,-1.717038274E0
2.294402552E1,3.137397766E-1,-5.402260423E-1,-1.845320106E0
2.295602372E1,4.017043710E-1,-5.310630202E-1,-1.927175999E0
2.296802211E1,4.853929281E-1,-5.359499454E-1,-1.915569544E0
2.298002058E1,5.159361362E-1,-5.677149892E-1,-1.846541762E0
2.299201911E1,5.006645322E-1,-6.605664492E-1,-1.797061682E0
2.300401728E1,4.340802431E-1,-7.564722896E-1,-1.789120436E0
2.301601494E1,3.528351486E-1,-8.138936162E-1,-1.826383233E0
2.302801341E1,2.935812473E-1,-8.560433388E-1,-1.911904454E0
2.304001187E1,2.960246801E-1,-8.780344725E-1,-1.990705967E0
2.305201034E1,3.595546782E-1,-9.012473822E-1,-2.079892397E0
2.306400910E1,4.768407941E-1,-8.884192109E-1,-2.198400259E0
2.307600663E1,6.118420362E-1,-7.961785197E-1,-2.255210638E0
2.308800510E1,6.912544966E-1,-6.874445081E-1,-2.224056482E0
2.310000316E1,6.827024221E-1,-5.652714968E-1,-2.158082962E0
2.311200153E1,5.898509026E-1,-5.988690853E-1,-2.122041941E0
2.312399992E1,4.805059731E-1,-7.179877758E-1,-2.137924671E0
2.313599932E1,4.035369456E-1,-9.036908746E-1,-2.139757156E0
2.314799792E1,3.711611032E-1,-1.081452608E0,-2.076226950E0
2.315999659E1,3.485591114E-1,-1.171249747E0,-1.971769214E0
2.317199528E1,3.082419932E-1,-1.119937181E0,-1.881361127E0
2.318399394E1,2.642596960E-1,-9.641665220E-1,-1.890524030E0
2.319599261E1,2.337164283E-1,-7.638026476E-1,-1.972990870E0
2.320799120E1,2.074492127E-1,-6.306340694E-1,-2.068285942E0
2.321998970E1,1.567474008E-1,-6.092537642E-1,-2.092109680E0
2.323198817E1,7.794579118E-2,-6.947749257E-1,-2.031633854E0
2.324398670E1,9.528886527E-3,-7.790743113E-1,-1.985208273E0
2.325598516E1,-2.040350996E-2,-8.108392954E-1,-1.962606192E0
2.326798363E1,-2.688417910E-3,-7.240964174E-1,-1.951610565E0
2.327998209E1,6.633935869E-2,-6.031451225E-1,-1.955886722E0
2.329198013E1,1.371997297E-1,-5.127370358E-1,-1.974823475E0
2.330397859E1,1.683538556E-1,-4.504288435E-1,-1.967493176E0
2.331597712E1,1.481952965E-1,-4.980762899E-1,-1.954664946E0
2.332797525E1,1.042129993E-1,-5.744344592E-1,-1.914958715E0
2.333997402E1,7.855665684E-2,-5.744344592E-1,-1.880139351E0
2.335197248E1,1.011586785E-1,-6.104755402E-1,-1.902130485E0
2.336397095E1,1.488061696E-1,-6.507925987E-1,-1.916180372E0
2.337596841E1,1.695755720E-1,-6.856119633E-1,-1.847152710E0
2.338796715E1,1.506387591E-1,-6.428513527E-1,-1.711540580E0
2.339996568E1,1.145977080E-1,-5.225109458E-1,-1.608304262E0
2.341196464E1,7.428060472E-2,-4.156095088E-1,-1.573485017E0
2.342396311E1,2.418965288E-2,-3.172602057E-1,-1.564932823E0
2.343596161E1,-1.466687419E-3,-2.549519241E-1,-1.593643546E0
2.344796007E1,-3.910148516E-3,-2.341825217E-1,-1.640680194E0
2.345995817E1,-1.734918356E-2,-2.683909535E-1,-1.668169141E0
2.347190031E1,-3.445341066E-2,-3.105406761E-1,-1.673666835E0
2.348389871E1,-1.857091486E-2,-3.423056602E-1,-1.647399664E0
2.349589804E1,4.312647507E-2,-3.484143317E-1,-1.588145733E0
2.350789650E1,1.152085736E-1,-2.653366327E-1,-1.516674519E0
2.351989534E1,1.573582739E-1,-1.645438820E-1,-1.514841914E0
2.353189373E1,1.402540505E-1,-9.368351847E-2,-1.586924076E0
2.354389177E1,8.405444026E-2,-4.786862060E-2,-1.660838723E0
2.355589036E1,2.968744002E-2,-6.436198205E-2,-1.701766729E0
2.356788909E1,3.579609469E-2,-2.048609853E-1,-1.699323297E0
2.357988776E1,7.061541080E-2,-3.655185401E-1,-1.666947365E0
2.359188642E1,9.566088766E-2,-5.561085343E-1,-1.579593658E0
2.360388552E1,7.183714211E-2,-6.825576425E-1,-1.447035909E0
2.361588314E1,2.724397928E-2,-7.039378881E-1,-1.360293150E0
2.362788161E1,1.319407858E-2,-7.014944553E-1,-1.389614582E0
2.363988001E1,2.541138232E-2,-7.112682462E-1,-1.528280973E0
2.365187844E1,3.946128488E-2,-7.405897975E-1,-1.693825483E0
2.366387697E1,3.396349773E-2,-7.613592744E-1,-1.741473079E0
2.367587577E1,3.518522531E-2,-7.418115139E-1,-1.691992879E0
2.368787417E1,8.955223113E-2,-6.892771125E-1,-1.627852082E0
2.369987263E1,1.659103781E-1,-5.994799137E-1,-1.649843097E0
2.371187110E1,2.263860404E-1,-4.968545735E-1,-1.751857638E0
2.372386863E1,2.239425778E-1,-4.510396719E-1,-1.821496367E0
2.373586770E1,1.555256844E-1,-4.657004476E-1,-1.820274591E0
2.374786529E1,5.839810520E-2,-5.573302507E-1,-1.773237944E0
2.375986352E1,-2.077552723E-3,-6.666750908E-1,-1.706042767E0
2.377186265E1,-3.689687327E-2,-7.790743113E-1,-1.600973964E0
2.378386245E1,-3.078821860E-2,-9.043017030E-1,-1.502013803E0
2.379586072E1,-2.077552723E-3,-1.011813998E0,-1.441538095E0
2.380586098E1,1.930273138E-2,-1.050909281E0,-1.424433947E0
2.381786011E1,9.767734446E-4,-1.014868259E0,-1.429320812E0
2.382985961E1,-4.361639172E-2,-8.725366592E-1,-1.468416214E0
2.384185811E1,-8.515522629E-2,-6.330775023E-1,-1.525226712E0
2.385385757E1,-7.782484591E-2,-3.765141368E-1,-1.613191247E0
2.386585604E1,-3.689687327E-2,-2.085261792E-1,-1.696879745E0
2.387785450E1,2.480051853E-2,-1.101768762E-1,-1.792174816E0
2.388985290E1,4.068301246E-2,-1.254485101E-1,-1.814776897E0
2.390185137E1,1.013975218E-2,-1.944762915E-1,-1.756133795E0
2.391384990E1,-4.728158191E-2,-3.221471310E-1,-1.668169141E0
2.392584836E1,-7.415965199E-2,-4.479853511E-1,-1.597919703E0
2.393784643E1,-2.345783636E-2,-5.671040416E-1,-1.575928450E0
2.394984486E1,2.418965288E-2,-6.538469195E-1,-1.585702300E0
2.396184333E1,1.197234821E-2,-6.623990536E-1,-1.596697927E0
2.397384122E1,-6.072061509E-2,-5.732126832E-1,-1.597308755E0
2.398583969E1,-1.053137854E-1,-4.938002527E-1,-1.616856456E0
2.399783925E1,-8.149003237E-2,-4.412658513E-1,-1.661449552E0
2.400983772E1,-6.010975316E-2,-5.054066777E-1,-1.700545073E0
2.402183582E1,-8.087916672E-2,-6.617882252E-1,-1.712762356E0
2.403383485E1,-1.285266578E-1,-8.951387405E-1,-1.673666835E0
