"Time (s)","Linear Acceleration x (m/s^2)","Linear Acceleration y (m/s^2)","Linear Acceleration z (m/s^2)"
0.000000000E0,3.933623135E-1,-9.779255092E-2,7.857036591E-2
1.999858300E-2,4.030537903E-1,-8.104869723E-2,4.505538940E-2
3.999748300E-2,3.906283975E-1,-8.554622531E-2,6.179332733E-2
5.999614300E-2,4.067418277E-1,-9.247314930E-2,4.739761353E-2
7.999466500E-2,3.896871209E-1,-8.274947107E-2,4.498958588E-2
9.999292900E-2,3.817040920E-1,-8.283177018E-2,5.693054199E-2
1.199911530E-1,3.882515132E-1,-1.064189300E-1,4.971790314E-2
1.399892150E-1,3.923621774E-1,-7.498744875E-2,4.968643188E-2
1.599873840E-1,3.893218637E-1,-8.909620345E-2,4.965686798E-2
1.799857410E-1,3.931623995E-1,-9.854178131E-2,4.722309113E-2
1.999841600E-1,3.322201967E-1,-7.255712152E-2,4.925346375E-2
2.199824560E-1,2.588878274E-1,-4.938236997E-2,4.975509644E-2
2.399806520E-1,2.080765069E-1,-4.311937094E-2,4.369258881E-2
2.599788340E-1,1.804073155E-1,-4.106289893E-2,3.804588318E-2
2.799769340E-1,1.455330551E-1,-4.051162675E-2,4.465007782E-2
2.999749330E-1,1.164027676E-1,-1.273751631E-2,4.426097870E-2
3.199738330E-1,8.321610093E-2,-1.755025983E-2,4.161453247E-2
3.399716990E-1,5.456397682E-2,-1.620463282E-2,1.750564575E-2
3.599694990E-1,6.330756843E-2,-5.748085678E-3,4.134082794E-2
3.799672320E-1,5.281906202E-2,3.974750638E-3,4.126548767E-2
3.999650320E-1,5.828389525E-2,-6.369754672E-3,3.403091431E-2
4.199627650E-1,2.378368750E-2,-1.234189421E-2,3.399181366E-2
4.399605650E-1,3.859399259E-2,-1.063437015E-2,3.396224976E-2
4.599582310E-1,1.840908639E-2,-1.618666947E-2,3.633403778E-2
4.799557640E-1,1.466775499E-2,1.185735688E-2,4.349994659E-2
4.999531630E-1,1.609047502E-2,5.257777870E-3,3.631019592E-2
5.199505620E-1,2.799160779E-2,7.880069315E-3,3.630542755E-2
5.399480280E-1,2.332048491E-2,-6.084185094E-3,4.348278046E-2
5.599455270E-1,9.171544574E-3,-4.999142140E-3,2.911090851E-2
5.799430590E-1,2.441029809E-2,-6.783608347E-3,3.868389130E-2
5.999405910E-1,1.095833629E-2,7.832463831E-3,4.347038269E-2
6.199371900E-1,-2.430738881E-3,3.333836794E-4,3.389358521E-2
6.399342220E-1,1.360157132E-2,1.260340214E-4,4.826068878E-2
6.599316880E-1,6.495668553E-3,2.314958721E-3,2.910709381E-2
6.799292200E-1,1.929697581E-3,1.666112244E-2,3.868389130E-2
6.999267520E-1,1.583871432E-3,1.902868226E-2,3.868389130E-2
7.199242840E-1,8.850902319E-3,-1.501291990E-4,4.586696625E-2
7.399217500E-1,8.824242279E-3,-2.573173493E-3,3.389549255E-2
7.599196490E-1,4.122518934E-3,-5.075268447E-3,2.910804749E-2
7.799171150E-1,4.088315181E-3,-1.007326692E-2,4.107952118E-2
7.999146140E-1,6.517414469E-3,6.493620574E-3,3.389739990E-2
8.199121460E-1,-1.040548831E-2,-7.784776390E-4,3.868675232E-2
8.399097780E-1,-8.276719600E-3,-1.508456282E-2,2.432060242E-2
8.599072110E-1,6.239757873E-3,-5.460213870E-3,4.586887360E-2
8.799046100E-1,-9.186265524E-4,-5.875267088E-4,2.910900116E-2
8.999020760E-1,-1.396005042E-3,1.669596136E-2,3.150081635E-2
9.198994750E-1,5.583046004E-3,-1.453428157E-2,1.953029633E-2
9.398973740E-1,1.695171930E-2,-1.677050442E-2,2.431678772E-2
9.598948730E-1,9.439467452E-3,-1.132798567E-2,1.952648163E-2
9.798924050E-1,-1.002849545E-2,5.295392126E-3,4.346942902E-2
9.998898710E-1,-2.946493914E-3,2.454300225E-2,2.431583405E-2
1.019887337E0,2.339973487E-2,1.913027838E-2,4.107761383E-2
1.039884869E0,6.311049685E-3,-5.657341331E-3,3.389739990E-2
1.059882035E0,-5.805194378E-3,-7.076263428E-4,2.671432495E-2
1.079879567E0,1.587674022E-2,-7.372036576E-3,2.431774139E-2
1.099877066E0,-3.743167501E-3,-1.433616690E-2,4.825973511E-2
1.119874598E0,5.678572226E-3,8.425191045E-4,2.910232544E-2
1.139871964E0,5.029537133E-4,-1.281582005E-2,2.191638947E-2
1.159869430E0,-4.580102395E-3,-2.777792513E-3,1.952075958E-2
1.179866962E0,-4.495661706E-3,6.774663925E-3,2.191448212E-2
1.199864494E0,1.670869999E-2,9.086795151E-3,2.191448212E-2
1.219862094E0,1.428261492E-2,4.033379257E-3,3.867626190E-2
1.239859760E0,2.306170762E-3,8.585806936E-3,3.149509430E-2
1.259857526E0,1.786723733E-3,8.372239769E-3,2.910137177E-2
1.279855192E0,3.948038910E-3,-1.602325588E-2,3.389072418E-2
1.299852924E0,8.813838474E-3,2.925638109E-3,2.910327911E-2
1.319850656E0,-6.140379701E-4,-1.133735850E-2,2.431488037E-2
1.339848388E0,1.760879066E-3,3.180216998E-3,2.910232544E-2
1.359846054E0,7.177715655E-3,1.303047314E-2,3.149604797E-2
1.379843720E0,1.202374045E-2,-2.137999982E-3,3.868198395E-2
1.399841452E0,2.892926750E-5,-5.018867552E-3,3.150081635E-2
1.419839118E0,-1.972316240E-4,-1.209906489E-2,3.868293762E-2
1.439836850E0,-5.133107188E-4,-2.088248730E-4,3.628921509E-2
1.459834582E0,-1.245725807E-2,-1.694001257E-2,3.389453888E-2
1.479832314E0,-4.503562115E-3,9.939141572E-3,2.431583405E-2
1.499829980E0,-8.842800744E-3,5.375467241E-3,2.670860291E-2
1.519827579E0,6.388484500E-3,7.260628045E-3,3.628826141E-2
1.539825112E0,-7.571831811E-3,9.198091924E-3,4.586696625E-2
1.559822578E0,-1.202333905E-2,8.724868298E-3,3.868579865E-2
1.579820044E0,5.125480704E-3,-6.028812379E-3,4.108238220E-2
1.599817510E0,4.668310285E-3,-1.271106303E-3,3.150558472E-2
1.619815042E0,-2.647819230E-3,-8.597690612E-3,3.629493713E-2
1.639812508E0,1.316727139E-4,-1.317273825E-3,2.911090851E-2
1.659809974E0,9.419557638E-3,1.060172170E-2,4.108333588E-2
1.679807506E0,-1.351935789E-4,-8.412860334E-3,2.911090851E-2
1.699805038E0,-1.597674564E-4,-1.314219087E-3,2.671623230E-2
1.719802570E0,9.328029118E-3,-3.545243293E-3,3.868675232E-2
1.739800036E0,-5.139112473E-4,-1.119192690E-3,2.192687988E-2
1.759797568E0,-2.879270352E-3,1.248393208E-3,1.713943481E-2
1.779795801E0,-1.266337745E-2,-3.561701626E-3,1.953315735E-2
1.799793333E0,6.572746672E-3,-5.925200880E-3,2.192687988E-2
1.819790865E0,1.850125380E-2,3.691956401E-3,3.150463104E-2
1.839788397E0,-6.294094026E-3,1.344555989E-2,2.671432495E-2
1.859785863E0,-1.595819369E-2,-7.995136082E-3,2.910900116E-2
1.879783329E0,3.480923828E-3,1.299493015E-2,2.671623230E-2
1.899780795E0,5.964443088E-3,-2.283386886E-3,3.869152069E-2
1.919778194E0,1.213775715E-3,9.786576033E-3,2.672004700E-2
1.939775660E0,5.923636258E-3,1.169217750E-2,3.390502930E-2
1.959773126E0,-1.319998410E-2,-2.755600959E-3,2.432823181E-2
1.979770592E0,2.015705034E-2,6.732158363E-3,2.911758423E-2
1.999768058E0,-4.184831865E-3,1.484684646E-3,2.911949158E-2
2.019765524E0,-2.183738910E-2,-6.314251572E-3,3.630542755E-2
2.039763056E0,-9.787661955E-3,1.335632429E-2,3.151416779E-2
2.059760588E0,9.170541540E-3,-1.809571497E-2,1.954364777E-2
2.079757354E0,2.177579328E-3,-3.237295896E-3,3.630256653E-2
2.099754920E0,-9.941582568E-3,-1.458963007E-2,3.869247437E-2
2.119752452E0,2.287352923E-3,2.332516015E-3,3.629875183E-2
2.139750584E0,-1.222463883E-2,-5.008418113E-3,2.432727814E-2
2.159748050E0,-6.651797798E-3,-1.200939342E-2,4.108715057E-2
2.179745582E0,-2.026700415E-2,-2.085164189E-3,2.193069458E-2
2.199742981E0,1.683177426E-2,1.491315663E-2,2.671813965E-2
2.219740513E0,5.139037967E-3,2.924416214E-3,3.150749207E-2
2.239737979E0,-2.312940778E-3,-1.092390716E-2,3.629398346E-2
2.259735545E0,1.195896976E-2,-1.447439194E-3,3.868865967E-2
2.279733278E0,1.133255195E-2,1.094472408E-2,2.192687988E-2
2.299731144E0,-8.715863340E-3,-1.560601778E-2,4.108142853E-2
2.319729110E0,7.888253778E-3,6.033815444E-3,4.586982727E-2
2.339727176E0,9.886709042E-3,1.304924861E-2,3.150558472E-2
2.359725242E0,7.063534111E-3,-8.903827518E-3,2.192878723E-2
2.379723308E0,-7.818738930E-3,3.145474941E-3,3.390026093E-2
2.399721340E0,4.486822058E-3,-4.052676260E-3,3.150653839E-2
2.419719406E0,1.443966385E-2,-8.868869394E-3,2.432441711E-2
2.439716872E0,-7.248918992E-3,1.480225474E-3,2.432060242E-2
2.459715004E0,-2.186230617E-3,1.115079597E-2,2.671432495E-2
2.479713136E0,-1.899084821E-2,-5.513679236E-3,2.910900116E-2
2.499711335E0,1.024150010E-2,4.401303828E-3,2.192401886E-2
2.519709567E0,5.188241601E-3,-7.538303733E-3,3.868389130E-2
2.539708199E0,1.462354697E-2,9.299613535E-3,3.629016876E-2
2.559706298E0,2.574344166E-3,-5.207732320E-3,2.431869507E-2
2.579704164E0,1.684377156E-2,-4.366636276E-4,4.347229004E-2
2.599701830E0,1.655960456E-2,-9.830050170E-3,3.389453888E-2
2.619699463E0,-3.395579057E-3,-1.877086610E-2,2.910423279E-2
2.639696929E0,5.681608804E-3,7.671825588E-4,2.191925049E-2
2.659694328E0,-1.591040054E-3,2.949971706E-3,3.628635406E-2
2.679691794E0,-1.143295877E-2,1.016455889E-2,2.910423279E-2
2.699689260E0,-6.744773127E-3,-1.713443547E-3,3.389167786E-2
2.719686792E0,-1.419330575E-2,-4.422951490E-3,1.952743530E-2
2.739684258E0,-1.369650383E-2,-1.153174415E-2,4.107570648E-2
2.759681790E0,4.291242454E-3,-1.381494105E-3,2.910232544E-2
2.779679256E0,1.566789346E-3,-6.265580654E-3,3.149700165E-2
2.799676788E0,-1.055670530E-2,1.047478989E-2,2.670764923E-2
2.819673721E0,-3.581356723E-3,8.760951459E-4,4.107379913E-2
2.839670753E0,1.352056279E-3,8.272472769E-3,2.670669556E-2
2.859668219E0,1.096860506E-2,1.993995532E-2,7.554054260E-3
2.879665685E0,-1.292413659E-2,2.571292222E-3,1.713371277E-2
2.899663217E0,-7.412628038E-4,1.924194768E-2,2.671051025E-2
2.919660683E0,3.957992885E-3,-2.369179018E-2,4.107666016E-2
2.939658215E0,2.776072593E-3,-1.687809825E-3,3.389167786E-2
2.959655747E0,-1.115112100E-2,-6.321221590E-3,2.191925049E-2
2.979653279E0,-8.486333303E-3,6.635487080E-4,2.670860291E-2
2.999650745E0,3.701329697E-3,3.204666078E-3,4.107379913E-2
3.019648144E0,3.723352216E-3,-6.205096841E-3,3.389072418E-2
3.039645610E0,-1.072534942E-3,1.171760261E-3,2.670669556E-2
3.059643076E0,6.490061060E-3,-3.755286336E-3,4.107284546E-2
3.079640542E0,-1.118541788E-2,-3.386959434E-3,2.431201935E-2
3.099637941E0,8.099967381E-4,8.321575820E-3,3.628444672E-2
3.119635873E0,1.262729429E-2,8.357506245E-3,3.628444672E-2
3.139633339E0,1.266541146E-2,-5.909599364E-3,1.952457428E-2
3.159817131E0,2.696230542E-3,1.094672456E-2,3.867816925E-2
3.179814430E0,-5.030911416E-3,3.466054797E-3,3.389072418E-2
3.199811962E0,1.425880659E-2,5.948670208E-3,2.431297302E-2
3.219809494E0,-2.867553616E-3,2.957832068E-3,3.868103027E-2
3.239806960E0,-7.853247225E-3,-1.888941228E-2,3.628826141E-2
3.259804492E0,-5.727454089E-3,5.570624024E-3,3.628540039E-2
3.279801958E0,-1.030733809E-2,-1.618333161E-3,2.192020416E-2
3.299799490E0,2.374602016E-3,1.028239727E-2,3.149700165E-2
3.319797022E0,-9.637914598E-3,-4.098672420E-3,2.192020416E-2
3.339794554E0,3.425970674E-3,5.213856697E-3,2.431583405E-2
3.359792087E0,8.217259310E-4,1.721910015E-2,2.670955658E-2
3.379789753E0,-1.410149969E-3,-2.192772925E-3,3.868198395E-2
3.399787553E0,-1.380883856E-3,-4.613742232E-3,4.107666016E-2
3.419785252E0,1.504931878E-2,-1.940310001E-3,2.670955658E-2
3.439782984E0,-1.819653064E-2,-1.860675961E-2,4.107570648E-2
3.459780716E0,1.637297496E-2,-6.110522896E-3,2.670669556E-2
3.479778682E0,-7.600564510E-3,-1.239825040E-3,3.149604797E-2
3.499776348E0,-5.143175949E-4,-1.257326454E-3,2.191829681E-2
3.519774014E0,3.882540623E-3,6.021879613E-3,3.388977051E-2
3.539771746E0,-1.516790316E-2,-7.770877331E-3,2.191543579E-2
3.559769478E0,-3.397076856E-3,1.965254545E-3,2.670288086E-2
3.579767210E0,1.894080546E-3,3.920309246E-3,2.431106567E-2
3.599764876E0,1.619203016E-2,9.039398283E-3,3.388690948E-2
3.619762608E0,4.022615962E-3,-2.828374505E-3,2.670288086E-2
3.639760274E0,8.139980957E-3,8.535061032E-3,2.191829681E-2
3.659757873E0,5.612185691E-3,-2.273426764E-2,1.952457428E-2
3.679755406E0,8.026533760E-3,8.961077780E-3,3.388786316E-2
3.699752872E0,-1.413800870E-3,-1.050720736E-2,3.388786316E-2
3.719750338E0,3.662906587E-3,-2.869524062E-3,3.867530823E-2
3.739747771E0,-2.050527744E-2,-7.473677397E-4,3.388786316E-2
3.759745303E0,-5.516232457E-3,-1.507588476E-2,9.944915771E-3
3.779742769E0,2.198240720E-3,9.122658521E-3,3.149318695E-2
3.799740301E0,5.373797379E-3,1.140733063E-2,2.909946442E-2
3.819737833E0,-4.599711392E-3,-5.145315081E-3,3.149223328E-2
3.839735365E0,-2.833309956E-2,4.397947341E-3,3.628063202E-2
3.859732831E0,8.365649730E-3,-4.997204989E-3,4.106807709E-2
3.879730297E0,-8.416787721E-3,2.120022103E-2,2.909755707E-2
3.899727829E0,1.127812197E-3,1.434158534E-3,3.628349304E-2
3.919725295E0,1.573132537E-2,-6.183899939E-3,4.346752167E-2
3.939722827E0,3.309597261E-3,-1.595825329E-2,3.389072418E-2
3.959720359E0,-1.449481933E-3,7.957834750E-3,2.431392670E-2
3.979717891E0,8.264743723E-3,3.202185035E-3,3.628540039E-2
3.999715357E0,-6.178880576E-3,-1.728061587E-3,3.868007660E-2
4.019712823E0,3.296016250E-3,-1.115631685E-2,3.628540039E-2
4.039710322E0,-1.568089705E-3,8.175455034E-3,2.431392670E-2
4.059707788E0,7.785169873E-3,1.039799303E-3,4.107284546E-2
4.079705254E0,-3.532400588E-3,-3.793690354E-3,2.191829681E-2
4.099702653E0,-3.156705992E-3,-1.052320004E-3,3.628444672E-2
4.119700119E0,8.646471426E-3,1.575684920E-2,3.149509430E-2
4.139697518E0,-1.062093209E-2,1.442492008E-3,1.712799072E-2
4.159694984E0,-9.628823027E-4,6.289556623E-3,4.107093811E-2
4.179692516E0,-3.328349907E-3,1.583997533E-2,2.670574188E-2
4.199690048E0,-1.517429389E-2,-5.717668682E-3,1.952362061E-2
4.219687580E0,2.598759253E-3,3.855649382E-3,2.191734314E-2
4.239685046E0,1.032382250E-2,-8.511804044E-3,3.389072418E-2
4.259682578E0,5.391227081E-3,3.620754927E-3,3.628444672E-2
4.279680044E0,1.240253821E-2,1.056123525E-2,3.149700165E-2
4.299677576E0,2.844173927E-3,-6.322897971E-3,2.670764923E-2
4.319675108E0,-5.151029676E-3,-1.331405155E-2,1.713085175E-2
4.339672640E0,6.712418050E-3,-1.402217895E-3,2.670764923E-2
4.359670106E0,6.669444963E-3,-1.093929261E-2,3.149604797E-2
4.379667572E0,3.993266262E-3,1.515123621E-2,3.149700165E-2
4.399665138E0,-3.271659371E-3,9.957171977E-3,3.149890900E-2
4.419662871E0,-8.356631733E-4,-7.162019610E-3,3.149986267E-2
4.439660803E0,-3.396162530E-3,2.408817410E-3,4.107666016E-2
4.459658769E0,-1.043297723E-2,7.355503738E-3,1.713371277E-2
4.479656835E0,-1.171960030E-2,5.030468106E-3,3.149986267E-2
4.499654901E0,-1.769675640E-3,1.466313377E-2,1.473903656E-2
4.519652967E0,6.294753402E-4,-9.043503553E-3,3.868103027E-2
4.539651099E0,-1.443620771E-3,8.509680629E-4,2.670764923E-2
4.559649231E0,8.259698749E-3,3.583021462E-3,3.867816925E-2
4.579647363E0,5.951873958E-3,-1.565118134E-2,2.431392670E-2
4.599645429E0,3.361191601E-3,-3.256924450E-3,3.628349304E-2
4.619643561E0,1.098790439E-3,6.491608918E-3,1.712799072E-2
4.639641627E0,-1.165782101E-3,1.929927617E-3,1.952171326E-2
4.659639693E0,-5.752738100E-3,6.531726569E-3,1.233959198E-2
4.679637825E0,-3.286628518E-3,1.676473767E-3,2.670478821E-2
4.699635924E0,-7.820459083E-3,-5.635578185E-3,1.952457428E-2
4.719633790E0,-3.010227345E-3,-1.025679335E-2,3.628253937E-2
4.739631456E0,-9.264559485E-4,-2.918977290E-3,3.628253937E-2
4.759629089E0,1.075941510E-2,6.869461387E-3,3.149318695E-2
4.779626555E0,-1.257196069E-3,-2.178773284E-4,3.388595581E-2
4.799624021E0,-1.766313333E-3,-2.353664488E-3,2.909660339E-2
4.819621487E0,-3.617793322E-3,-6.816580892E-3,2.909660339E-2
4.839618953E0,1.298075635E-2,-1.893278211E-2,2.909660339E-2
4.859616352E0,5.927636288E-3,1.446702331E-2,3.388500214E-2
4.879613818E0,-5.791216157E-3,1.199892908E-2,4.585647583E-2
4.899611350E0,-1.149630174E-3,-8.522160351E-4,3.149509430E-2
4.919608816E0,-8.385944180E-3,8.667334914E-3,2.670669556E-2
4.939606348E0,5.875370931E-3,-1.103202626E-2,2.191925049E-2
4.959603880E0,3.314867150E-3,3.327425569E-3,3.149700165E-2
4.979601412E0,1.727475226E-2,3.062445670E-3,3.149795532E-2
4.999598878E0,-1.015234645E-2,-2.266563475E-3,2.910518646E-2
5.019596344E0,1.840596669E-3,-1.407061704E-2,3.149986267E-2
5.039593876E0,-1.010084897E-2,-1.375027560E-2,3.628730774E-2
5.059591408E0,-2.979645971E-3,3.548592329E-3,2.431297302E-2
5.079588940E0,-5.420924630E-3,6.093785167E-3,3.628444672E-2
5.099586406E0,1.318896073E-3,-7.941517979E-3,2.191638947E-2
5.119583938E0,-1.323061716E-2,1.407192275E-2,1.712608337E-2
5.139581404E0,9.021399310E-4,-4.785668105E-3,3.149127960E-2
5.159578870E0,6.326730363E-4,2.567440271E-3,3.149127960E-2
5.179576336E0,7.613546215E-3,3.128886223E-3,3.148841858E-2
5.199573802E0,1.258678921E-2,-4.171911627E-3,4.106616974E-2
5.219571268E0,-4.329144955E-3,1.267933100E-2,2.669906616E-2
5.239568667E0,5.975217791E-4,1.507878676E-2,3.867053986E-2
5.259566133E0,3.144077200E-4,-8.708052337E-3,3.388214111E-2
5.279563599E0,-6.972430740E-3,5.834136158E-3,3.148746490E-2
5.299561131E0,2.616921673E-3,1.305906102E-2,4.106426239E-2
5.319558663E0,-6.760983262E-3,5.744889379E-3,3.388214111E-2
5.339556195E0,-4.696849268E-3,-3.900073469E-3,2.430534363E-2
5.359553661E0,-1.510247093E-4,-1.809439063E-2,2.669811249E-2
5.379551127E0,-1.700954512E-2,2.025192231E-2,1.951599121E-2
5.399548659E0,-7.355867885E-3,1.267157495E-3,2.909183502E-2
5.419546125E0,-7.390357088E-3,7.107444108E-4,2.430534363E-2
5.439543657E0,-2.459931886E-3,1.499839872E-2,2.430629730E-2
5.459541189E0,-4.137518816E-3,-7.161617279E-3,4.346179962E-2
5.479538721E0,7.303087623E-4,2.168368921E-2,3.388500214E-2
5.499536254E0,-6.739854813E-3,1.162396371E-2,3.149223328E-2
5.519533920E0,-6.926496513E-3,6.259400398E-3,2.431201935E-2
5.539531720E0,-4.278450273E-3,-3.419216722E-3,3.149509430E-2
5.559529520E0,-6.957539357E-3,8.735805750E-3,3.628253937E-2
5.579527252E0,1.473271847E-2,-1.049638167E-2,2.909946442E-2
5.599524918E0,-1.619607955E-2,1.097621396E-2,3.628349304E-2
5.619522650E0,-6.123575848E-3,1.032861695E-2,3.149700165E-2
5.639520316E0,-1.071810536E-2,-4.404474050E-3,4.586410522E-2
5.659518048E0,-4.983009305E-3,-1.203760505E-2,3.150081635E-2
5.679515780E0,1.730217226E-2,-7.290896028E-3,3.629016876E-2
5.699513512E0,6.071035750E-4,6.827399135E-3,3.629016876E-2
5.719511244E0,2.960539423E-3,6.811991334E-3,3.868484497E-2
5.739508910E0,7.055818569E-4,-4.807211459E-3,3.389453888E-2
5.759506642E0,-1.618872769E-2,-7.317546755E-3,1.713562012E-2
5.779504308E0,3.107133554E-3,2.556301653E-3,1.234531403E-2
5.799501974E0,3.422417911E-3,-9.306117892E-3,3.389358521E-2
5.819499507E0,-1.166297123E-3,1.724655926E-2,3.389263153E-2
5.839496973E0,6.150944624E-3,-1.136871055E-2,2.431583405E-2
5.859494372E0,1.101453323E-2,-3.960993141E-3,2.192020416E-2
5.879491771E0,1.335384045E-2,1.242216304E-2,3.389263153E-2
5.899489270E0,-1.292846166E-3,5.513243377E-4,2.192115784E-2
5.919486802E0,2.966933884E-3,1.734696329E-2,2.192115784E-2
5.939484334E0,-4.403670318E-3,7.221549749E-3,1.713466644E-2
5.959481800E0,-6.781545468E-3,-2.397280000E-2,1.473999023E-2
5.979479332E0,5.549891852E-3,1.068470627E-2,3.149700165E-2
5.999476798E0,-6.857700180E-3,1.361778006E-2,3.628253937E-2
6.019474264E0,2.153405733E-2,6.241839379E-3,4.107189178E-2
6.039471796E0,-1.249211095E-2,2.317707613E-2,3.388786316E-2
6.059469328E0,1.717715757E-3,1.054757833E-2,3.149700165E-2
6.079466860E0,-1.025376655E-2,-6.587058306E-3,3.149795532E-2
6.099464326E0,1.131371502E-2,4.885397851E-3,1.952838898E-2
6.119461858E0,-7.634415524E-4,7.511641830E-3,2.192115784E-2
6.139459324E0,-1.014955062E-2,-1.155211031E-2,3.149890900E-2
6.159456856E0,-1.282619964E-2,1.727640629E-4,3.149986267E-2
6.179454388E0,1.611150429E-2,-4.566445947E-3,2.670955658E-2
6.199451887E0,-5.308708176E-3,1.247584075E-2,1.713275909E-2
6.219449286E0,6.214325316E-3,1.896619797E-3,2.910804749E-2
6.239446685E0,-1.550244913E-2,-2.842750400E-3,2.671241760E-2
6.259444151E0,-8.304283023E-3,-1.926899701E-2,3.150081635E-2
6.279441550E0,8.355976082E-3,4.739411175E-3,3.628826141E-2
6.299439016E0,-1.516278554E-2,-1.260142401E-2,3.389739990E-2
6.319436548E0,1.877237670E-2,2.154480666E-3,3.629016876E-2
6.339434080E0,-1.006280538E-2,-2.832248807E-3,2.671241760E-2
6.359431546E0,-3.298877273E-3,-7.927924395E-3,3.629207611E-2
6.379429012E0,-3.169186413E-3,9.086649865E-3,3.389549255E-2
6.399426544E0,1.827151328E-2,-9.524635971E-4,3.150367737E-2
6.419424076E0,-1.762114279E-2,-3.179367632E-3,3.629207611E-2
6.439421608E0,-1.515453868E-2,-3.246061504E-3,4.108047485E-2
6.459419074E0,1.795202610E-3,6.449174136E-3,3.389739990E-2
6.479416606E0,-3.027455881E-3,9.008716792E-3,1.474189758E-2
6.499414072E0,-5.638912553E-4,8.997417986E-3,2.671337128E-2
6.519411538E0,-1.479884330E-2,-1.307354495E-2,3.868675232E-2
6.539409104E0,7.301635109E-3,3.762558103E-3,3.150463104E-2
6.559406804E0,7.927970961E-3,-3.840927035E-3,4.347705841E-2
6.579404736E0,-9.133647196E-3,-1.149303466E-2,1.714229584E-2
6.599402702E0,-1.698278124E-3,1.237587631E-2,3.869152069E-2
6.619400768E0,1.502986345E-2,2.908635885E-3,2.671813965E-2
6.639398834E0,-9.436985478E-3,5.574725568E-3,2.671718597E-2
6.659396966E0,-2.281906316E-3,7.967982441E-3,3.150653839E-2
6.679395098E0,-5.448842421E-5,1.442286000E-2,2.911472321E-2
6.699393230E0,9.433868341E-3,3.884859383E-3,3.390789032E-2
6.719391296E0,-7.924614474E-3,5.951412022E-3,3.630352020E-2
6.739389362E0,2.292916924E-2,-5.794212222E-3,2.911949158E-2
6.759387494E0,6.299479399E-3,1.615535468E-3,2.672386169E-2
6.779385560E0,-1.761998981E-2,-1.263820007E-2,2.672386169E-2
6.799383692E0,6.148003973E-3,-5.239881575E-3,2.432918549E-2
6.819381824E0,1.333728316E-3,7.049728185E-3,2.911567688E-2
6.839379923E0,-8.107028902E-3,4.716075957E-3,2.911567688E-2
6.859377822E0,-9.650320280E-4,-1.445353404E-2,3.629875183E-2
6.879375488E0,6.268098019E-3,-9.149584919E-3,1.953697205E-2
6.899373121E0,1.680103131E-3,-8.933920413E-3,5.066108704E-2
6.919370654E0,6.337677594E-3,3.559943289E-3,3.389930725E-2
6.939368120E0,1.310957316E-2,-6.333328784E-4,4.347324371E-2
6.959365519E0,-1.419328852E-3,-5.511257797E-3,2.192592621E-2
6.979362985E0,-4.104937427E-3,-7.902573794E-3,4.347419739E-2
6.999360384E0,7.830252871E-3,-4.990398884E-4,2.192401886E-2
7.019357817E0,1.246578153E-2,-7.673710585E-3,3.150177002E-2
7.039355349E0,-1.852352358E-2,2.111818641E-2,2.431869507E-2
7.059352881E0,-1.109311543E-2,6.442598999E-3,3.389739990E-2
7.079350413E0,1.089030690E-2,-1.284796745E-2,4.826450348E-2
7.099347879E0,-7.699695881E-3,3.655474633E-3,2.671527863E-2
7.119345411E0,-1.224258915E-2,-1.303976402E-2,2.910995483E-2
7.139342877E0,-1.072607934E-3,2.037379891E-3,5.164146423E-3
7.159340409E0,6.361673772E-2,3.572508693E-2,2.192401886E-2
7.179337941E0,-5.952008534E-3,8.308887482E-3,5.305385590E-2
7.199335473E0,9.513813071E-3,1.245271042E-2,3.868961334E-2
7.219332939E0,-1.017836947E-2,-4.771251231E-3,4.348087311E-2
7.239330405E0,-3.163418733E-3,-2.327702940E-3,2.672004700E-2
7.259327937E0,-1.131696044E-3,-1.702597924E-2,1.953983307E-2
7.279325403E0,-3.200597595E-3,-2.800986171E-3,2.432823181E-2
7.299322935E0,-3.361211158E-3,-7.359620184E-3,2.672100067E-2
7.319320434E0,-3.847674932E-3,4.075132310E-4,2.911376953E-2
7.339317900E0,-3.729329910E-4,-6.707422435E-3,2.193069458E-2
7.359315299E0,1.980627421E-4,-1.154418662E-2,2.432537079E-2
7.379312698E0,-1.217734627E-2,1.484726742E-2,4.347801208E-2
7.399310164E0,2.491939813E-2,2.639075741E-2,2.672100067E-2
7.419307630E0,3.298863173E-1,2.354224026E-1,1.943378448E-1
7.439305162E0,9.426236153E-2,4.223267734E-1,6.827459335E-1
7.459302628E0,-3.266176581E-1,2.491598725E-1,2.404370308E0
7.479300160E0,-3.135299683E-1,3.399675488E-1,-1.172809601E-1
7.499297626E0,-3.739762902E-1,-1.525687277E-1,7.653560638E-1
7.519295092E0,-1.391487360E0,-9.931699932E-2,2.474425316E0
7.539292624E0,-1.497178316E0,3.418389261E-1,3.009433746E0
7.559290156E0,-6.533193588E-1,3.960688412E-1,2.933007240E0
7.579287688E0,-2.339619100E-1,-1.122663170E-1,2.529948235E0
7.599285154E0,1.112667322E-1,2.940339744E-1,1.999720573E0
7.619282686E0,4.424844682E-1,9.108665586E-1,1.275402069E0
7.639280219E0,4.153326154E-1,5.663763285E-1,5.924396515E-1
7.659277885E0,3.199529052E-1,2.683387101E-1,1.098957062E-1
7.679275685E0,5.078786612E-1,2.594440579E-1,-1.442909241E-2
7.699273485E0,2.309857011E-1,-6.542250514E-2,4.351339340E-1
7.719271218E0,3.869469464E-2,-1.968270987E-1,2.384548187E-1
7.739268884E0,5.748509616E-2,-8.330413699E-2,9.751148224E-1
7.759266616E0,4.783382118E-1,6.473881006E-2,1.291567802E0
7.779264282E0,7.112858891E-1,3.673779964E-2,1.324463844E0
7.799262014E0,3.071772456E-1,3.314626217E-2,1.126498222E0
7.819259746E0,-1.543225646E-1,-4.473047256E-1,1.052339554E0
7.839257478E0,7.865471393E-2,-1.983124316E-1,3.880949020E-1
7.859255144E0,2.552834451E-1,4.309451580E-2,6.676425934E-1
7.879252810E0,3.844159544E-1,1.456487179E-2,7.701463699E-1
7.899250542E0,2.834245563E-1,-1.542752385E-1,2.674989700E-1
7.919248274E0,5.585916340E-2,-1.797598600E-1,-1.415252686E-2
7.939245940E0,-1.492952853E-1,-7.599306107E-2,-8.147239685E-3
7.959243473E0,-1.001449674E-1,-2.808320522E-2,1.940021515E-1
7.979240939E0,1.283694804E-1,1.903738976E-1,2.495737076E-1
7.999238338E0,-8.633323014E-2,4.690307379E-2,1.462440491E-1
8.019235737E0,-1.367098391E-1,-2.324241400E-1,-8.317756653E-2
8.039233203E0,-2.687528133E-1,-2.446990609E-1,-1.307010651E-1
8.059230702E0,-5.731137991E-1,-9.807837009E-2,5.367946625E-2
8.079228234E0,-4.796699286E-1,-1.550459862E-1,3.423728943E-1
8.099225700E0,-1.588570774E-1,-9.357023239E-2,7.041740417E-1
8.119223232E0,1.318022013E-1,1.706361771E-3,9.878149033E-1
8.139220698E0,3.307055235E-1,2.157351971E-1,8.404569626E-1
8.159218230E0,-1.157058477E-1,-5.373030901E-2,7.090692520E-1
8.179215762E0,-5.469801426E-1,-1.006240845E-1,1.007089615E-1
8.199213294E0,-6.716227531E-1,-1.089873314E-1,7.814979553E-2
8.219210760E0,-6.246443391E-1,-2.541435659E-1,3.995294571E-1
8.239208226E0,-2.457283735E-1,-4.419016838E-2,5.703926086E-1
8.259205758E0,-2.144524455E-1,-2.888458967E-2,5.112771988E-1
8.279203224E0,-2.887721062E-1,-4.763739407E-1,1.316356659E-1
8.299200756E0,-3.282565475E-1,-6.056622267E-1,-1.261863708E-1
8.319198288E0,-1.320554316E-1,-4.007670879E-1,-3.428239822E-1
8.339195820E0,1.667132974E-1,-2.572577596E-1,7.692909241E-2
8.359193253E0,4.027717412E-1,-3.278264999E-1,4.527187347E-2
8.379190652E0,4.446198791E-2,-7.619830370E-1,-2.740449905E-1
8.399188118E0,-2.665513158E-1,-6.889277697E-1,-1.077874184E0
8.419185584E0,3.050372899E-1,-5.280332565E-1,-8.231201172E-1
8.439183050E0,3.900271058E-1,-4.970827699E-1,-1.365900040E-1
8.459180483E0,2.555985451E-1,-4.422452450E-1,1.051855087E-1
8.479178015E0,3.286002278E-1,-2.770719528E-1,2.381362915E-1
8.499175481E0,7.539945841E-2,-1.892747879E-1,1.765689850E-1
8.519172947E0,1.908632070E-1,-1.049400568E-1,-8.314132690E-3
8.539170479E0,1.784060001E-1,-7.956898212E-2,4.332447052E-2
8.559168011E0,3.776406050E-1,-1.460951567E-1,-3.980121613E-1
8.579165543E0,4.662860334E-1,-4.600811005E-1,-8.795757294E-1
8.599163009E0,1.772626042E-1,-7.366386652E-1,-1.475684166E0
8.619160541E0,-1.392948627E-2,-7.389241457E-1,-1.399156570E0
8.639158007E0,-3.101038933E-2,-6.405392885E-1,-9.786329269E-1
8.659155539E0,-3.895841837E-1,-6.281681061E-1,-4.052972794E-1
8.679153105E0,-1.504570246E-2,1.598477364E-2,3.673505783E-1
8.699150805E0,4.967246652E-1,5.696289539E-1,3.348178864E-1
8.719148671E0,5.066379309E-1,1.962625980E-1,1.401615143E-1
8.739146637E0,1.561364532E-1,-5.390763283E-2,-2.931747437E-1
8.759144703E0,-1.728210449E-1,-2.645637989E-1,-5.747156143E-1
8.779142836E0,-2.698120475E-1,-1.892032623E-1,-3.117809296E-1
8.799141036E0,-7.485926151E-2,1.244432926E-1,3.111963272E-1
8.819139236E0,2.176010609E-2,3.252773285E-1,3.632059097E-1
8.839137436E0,-4.067509174E-1,-2.013504505E-1,7.537174225E-2
8.859135569E0,-7.272080183E-1,-2.757487297E-1,-9.322261810E-2
8.879133702E0,-2.773599029E-1,-1.831102371E-2,-5.455560684E-1
8.899131902E0,2.984693050E-1,1.072847843E-1,-2.290010452E-1
8.919130102E0,6.017827392E-1,1.707177162E-1,-1.080989838E-1
8.939128302E0,3.955002427E-1,1.801836491E-1,6.984043121E-2
8.959126435E0,1.981818974E-1,4.112961292E-1,-1.309547424E-1
8.979124601E0,5.012689829E-1,4.164204597E-1,-1.314439774E-1
8.999122567E0,4.027607739E-1,2.566671371E-1,-5.595407486E-1
9.019120300E0,5.123426318E-1,2.496309280E-1,-8.840227127E-1
9.039117999E0,3.091101646E-1,1.649308205E-2,-6.314744949E-1
9.059115632E0,-2.343031168E-1,-1.022689342E-1,-3.494911194E-1
9.079113098E0,-1.818305850E-1,3.160960674E-1,-4.047679901E-2
9.099110497E0,1.443740726E-1,2.163286209E-1,3.865633011E-1
9.119107996E0,-2.270438075E-1,1.572599411E-1,4.833078384E-1
9.139105462E0,-3.387219906E-1,2.982513905E-1,5.792865753E-1
9.159102994E0,-4.434427023E-1,-2.604818344E-2,1.094312668E-1
9.179100526E0,-1.791414022E-1,4.583668709E-2,-2.349996567E-1
9.199098058E0,2.942860126E-3,4.192104340E-1,-1.175718307E-1
9.219095524E0,5.412343740E-1,7.259998322E-1,1.682062149E-1
9.239092990E0,6.172290444E-1,3.996126652E-1,2.416009903E-1
9.259090522E0,2.139917016E-1,9.773969650E-2,-7.588481903E-2
9.279087988E0,-2.155586481E-1,-4.991722107E-2,-4.241800308E-1
9.299085520E0,-3.492028713E-1,-1.171904802E-1,-3.686361313E-1
9.319083052E0,-3.387656808E-1,-1.408591270E-1,-9.317016602E-2
9.339080584E0,1.263283491E-1,-7.099294662E-2,-8.905410767E-2
9.359078050E0,6.980103254E-2,-1.425551176E-1,-2.401161194E-2
9.379075516E0,-2.601023316E-1,-2.473984957E-1,5.826568604E-2
9.399073048E0,-3.392575979E-1,-3.208347559E-1,4.607009888E-2
9.419070547E0,-7.321991324E-1,-6.722328663E-1,-1.915168762E-1
9.439068013E0,-8.500487208E-1,-8.722231388E-1,-6.767463684E-1
9.459065412E0,-3.566234112E-1,-6.937655210E-1,-9.153785706E-1
9.479062878E0,-7.454949617E-2,-4.591362476E-1,-4.479818344E-1
9.499060277E0,6.529277563E-2,-3.051744699E-1,5.918502808E-2
9.519057710E0,-1.368483901E-1,-1.266002655E-2,-2.947616577E-2
9.539055242E0,-5.745306611E-1,-3.206390142E-1,-2.850923538E-1
9.559052774E0,-2.994293571E-1,-5.108825564E-1,-2.630214691E-1
9.579050306E0,-1.018315554E-1,-7.725759149E-1,-3.261146545E-1
9.599047772E0,-2.029879093E-1,-7.113174200E-1,-6.197214127E-1
9.619045304E0,8.210420609E-2,-1.079211235E-1,-3.591966629E-1
9.639042770E0,2.682965100E-1,3.367539644E-1,5.471010208E-1
9.659040302E0,2.594059706E-1,5.929005146E-2,4.296159744E-1
9.679037834E0,2.921494246E-1,-1.290692687E-1,-2.204666138E-1
9.699035366E0,4.654027224E-1,5.406486988E-2,-8.663034439E-1
9.719032832E0,7.353420258E-1,-7.803070545E-2,-1.344541550E0
9.739030298E0,5.016109943E-1,-4.637280703E-1,-1.558293343E0
9.759027830E0,6.906248331E-1,4.767072201E-2,-1.114917755E0
9.779025363E0,3.376137018E-1,2.952184677E-1,-7.633714676E-1
9.799023163E0,4.244212508E-1,1.635476947E-1,-6.783990860E-1
9.819021095E0,5.716522336E-1,1.340839267E-1,-1.983318329E-1
9.839019061E0,-7.602817565E-2,-3.033530712E-2,-2.548284531E-1
9.859017127E0,-3.559858203E-1,-3.454899788E-2,-5.703010559E-1
9.879015193E0,-3.513548970E-1,-1.759030819E-1,-7.395591736E-1
9.899013325E0,-1.044373065E-1,-3.559171855E-1,-6.961851120E-1
9.919011457E0,-3.151400983E-1,-3.043064475E-1,-3.366708755E-1
9.939009589E0,-1.607993245E-2,-9.352600574E-2,-1.555862427E-1
9.959007655E0,-2.300051004E-1,-2.843770385E-2,4.697799683E-2
9.979005787E0,-3.546065688E-1,1.293092966E-1,3.136358261E-1
9.999003853E0,-3.022843897E-1,1.399933696E-1,1.828660965E-1
1.001900192E1,8.306670189E-2,8.680158854E-2,-6.131029129E-1
1.003900005E1,4.450767040E-1,-1.092483699E-1,-1.121665955E0
1.005899818E1,-6.077951193E-2,6.086856127E-2,-7.087707520E-1
1.007899625E1,-5.645341873E-1,1.389510632E-1,7.525634766E-2
1.009899405E1,-6.150909662E-1,-3.624102473E-2,9.937286377E-3
1.011899175E1,-5.093619823E-1,-5.075395107E-3,-4.067382812E-1
1.013898931E1,-2.027873397E-1,-4.092472792E-2,-3.159265518E-1
1.015898678E1,7.624626160E-4,-1.084645092E-1,-3.795089722E-1
1.017898424E1,-5.727162957E-1,-4.887208343E-2,-3.156604767E-1
1.019898171E1,-5.271866322E-1,2.979263961E-1,2.298355103E-3
1.021897911E1,4.088062048E-2,3.951677680E-1,-1.103591919E-2
1.023897654E1,1.701823473E-1,2.500222325E-1,-1.340122223E-1
1.025897408E1,-1.515540779E-1,2.174887955E-1,-3.201427460E-1
1.027897154E1,1.167620569E-1,1.087892056E-1,-5.030851364E-1
1.029896907E1,2.566931248E-1,-1.865348518E-1,-5.013151169E-1
1.031896660E1,6.171586365E-2,2.962708473E-3,-4.875564575E-1
1.033896414E1,-1.015386134E-1,3.552630246E-1,-7.180213928E-2
1.035896160E1,1.986196488E-1,1.524098814E-1,7.560253143E-2
1.037895907E1,5.946911573E-1,2.886319458E-1,8.957672119E-2
1.039895660E1,7.220560908E-1,1.144521236E-1,-3.466892242E-2
1.041895413E1,2.610610127E-1,-5.055981874E-2,-1.374216080E-1
1.043895167E1,-1.225961596E-1,9.024477005E-2,1.183366776E-1
1.045894913E1,1.056545079E-1,4.486995935E-1,5.724496841E-1
1.047894666E1,2.855678201E-1,4.053126872E-1,6.319046021E-1
1.049894413E1,5.592191964E-2,1.728033423E-1,3.401069641E-1
1.051894160E1,4.014246166E-2,1.032634377E-1,1.850919724E-1
1.053893909E1,-3.058050573E-2,2.233595848E-1,1.134166718E-1
1.055893656E1,6.367124617E-2,2.225200236E-1,3.451585770E-1
1.057893403E1,-3.197857738E-2,1.717992127E-1,4.594259262E-1
1.059893142E1,-3.391095996E-1,-4.279467463E-2,4.257268906E-1
1.061892889E1,-2.583952248E-1,1.011732221E-2,1.772384644E-1
1.063892616E1,1.365961134E-1,-1.307904869E-1,-1.928873062E-1
1.065892369E1,2.765772045E-1,-2.226901650E-1,-4.197177887E-1
1.067892122E1,-1.618841439E-1,-9.960559011E-2,-9.936237335E-2
1.069891875E1,-3.586293757E-1,1.431497633E-1,2.181701660E-1
1.071891622E1,-9.934539348E-2,1.914099753E-1,2.394723892E-1
1.073891368E1,1.481481493E-1,-2.084037662E-2,-4.483890533E-2
1.075891122E1,1.220747158E-1,1.329255104E-2,-2.713050842E-1
1.077890782E1,1.463090330E-1,5.969393253E-2,-1.104774475E-1
1.079890535E1,-1.538608521E-1,1.124869585E-1,7.828140259E-2
1.081890288E1,-2.132782042E-1,1.947576702E-1,4.036073685E-1
1.083890041E1,7.845908403E-4,3.370538652E-1,3.298511505E-1
1.085889788E1,1.743050814E-1,1.946948171E-1,-4.721069336E-2
1.087889544E1,1.096428856E-1,-3.671377897E-3,-2.519083023E-1
1.089889318E1,-7.052014768E-2,-1.328798234E-1,-2.489938736E-1
1.091889098E1,-1.540425271E-1,-1.156965196E-1,-9.124374390E-2
1.093888891E1,-1.981101930E-2,1.350829899E-1,2.026491165E-1
1.095888658E1,-6.653487682E-3,1.402228773E-1,3.795948029E-1
1.097888431E1,-8.586138487E-2,6.464034319E-3,1.143884659E-1
1.099888197E1,-1.551173925E-1,-2.482146621E-1,-1.982860565E-1
1.101887971E1,-1.754087806E-1,-2.148410976E-1,-2.336473465E-1
1.103887744E1,-1.273287386E-1,-9.764298797E-2,-1.023416519E-1
1.105887517E1,-1.054830030E-1,-1.253260672E-1,1.052341461E-1
1.107887377E1,-1.769109368E-1,-5.123472214E-2,3.072071075E-2
1.109887144E1,-3.458996117E-2,-1.174386144E-1,-1.942443848E-1
1.111886917E1,9.442180395E-2,-9.886461496E-2,-2.638130188E-1
1.113886683E1,3.434104472E-2,1.020646989E-1,9.956359863E-2
1.115886456E1,-2.861800976E-2,1.336383224E-1,2.930936813E-1
1.117886220E1,1.272509843E-1,8.648890257E-2,1.303653717E-1
1.119885923E1,3.035613894E-1,4.675656557E-2,-1.785182953E-2
1.121885663E1,2.960390151E-1,-1.796877384E-2,-5.619812012E-2
1.123885403E1,4.243088365E-1,8.164760470E-2,8.292198181E-3
1.125885150E1,4.187773168E-1,2.237779796E-1,2.090873718E-1
1.127884899E1,5.144368410E-1,3.343077600E-1,6.612863541E-1
1.129884653E1,6.103288531E-1,2.984070480E-1,5.778999329E-1
1.131884399E1,5.680359006E-1,1.457958221E-1,3.515357971E-1
1.133884152E1,5.702876449E-1,5.796268582E-2,2.997579575E-1
1.135883899E1,6.804565191E-1,-1.791667938E-2,3.625869751E-1
1.137883646E1,6.491985917E-1,-5.788251758E-2,3.274021149E-1
1.139883399E1,7.664158940E-1,8.532041311E-2,4.096260071E-1
1.141883152E1,1.166809440E0,2.179853916E-1,6.307926178E-1
1.143882905E1,1.457292199E0,2.606729865E-1,5.679874420E-1
1.145882652E1,1.493191004E0,1.841884851E-1,3.100986481E-1
1.147882405E1,1.615165830E0,2.263728380E-1,2.177314758E-1
1.149882202E1,1.905789137E0,2.029406428E-1,3.023052216E-1
1.151881955E1,1.875753999E0,1.706790924E-2,5.440902710E-2
1.153881708E1,1.894936800E0,-1.526328921E-1,-1.189546585E-1
1.155881461E1,1.782031298E0,-2.723274827E-1,-1.750850677E-2
1.157881205E1,1.624180675E0,-4.016425908E-1,6.285667419E-2
1.159880944E1,1.711357713E0,-3.534476161E-1,-1.950387955E-1
1.161880691E1,1.758912444E0,-6.077735424E-1,-3.553123474E-1
1.163880431E1,1.404628158E0,-7.632914782E-1,-1.578588486E-1
1.165880178E1,1.089098096E0,-5.822712779E-1,2.731323242E-3
1.167879927E1,1.148221970E0,-5.679486990E-1,1.486787796E-1
1.169879681E1,1.236515403E0,-4.979348779E-1,2.133302689E-1
1.171879427E1,8.783411980E-1,-6.630042791E-1,2.200565338E-1
1.173879174E1,5.693711042E-1,-9.175436497E-1,4.352130890E-1
1.175878927E1,6.187241077E-1,-8.611841798E-1,2.087745667E-1
1.177878680E1,9.012216330E-1,-8.750696182E-1,-6.032562256E-2
1.179878433E1,9.012274742E-1,-7.934439182E-1,3.823661804E-1
1.181878180E1,1.017935276E0,-7.089167237E-1,6.431446075E-1
1.183877933E1,1.016062260E0,-7.323429585E-1,3.445949554E-1
1.185877680E1,7.833102345E-1,-9.542343020E-1,2.973079681E-2
1.187877426E1,4.616013169E-1,-1.049107432E0,1.406326294E-1
1.189877180E1,5.659993887E-1,-1.017765284E0,1.970129013E-1
1.191876936E1,8.400393128E-1,-9.137334824E-1,5.595302582E-2
1.193876716E1,1.010749102E0,-9.339960814E-1,2.012157440E-2
1.195876506E1,6.926656961E-1,-1.150166273E0,1.245441437E-1
1.197876306E1,4.989088178E-1,-1.078661680E0,-8.187103271E-2
1.199876113E1,8.046994805E-1,-9.908580184E-1,-1.120958328E-1
1.201875926E1,1.053570271E0,-1.007013559E0,9.712123871E-2
1.203875739E1,9.308288693E-1,-1.115570664E0,1.174354553E-1
1.205875552E1,1.027300715E0,-1.383118749E0,7.070159912E-2
1.207875359E1,9.047594070E-1,-1.321880102E0,5.673408508E-3
1.209875166E1,6.209852695E-1,-1.088827372E0,3.928737640E-1
1.211874979E1,6.318474412E-1,-1.080592871E0,7.594709396E-1
1.213874785E1,6.697598696E-1,-1.364567757E0,6.359806061E-1
1.215874599E1,8.050611019E-1,-1.474822402E0,2.924795151E-1
1.217874412E1,6.873912811E-1,-1.527682304E0,1.326427460E-1
1.219874225E1,4.857420921E-1,-1.423305988E0,3.395071030E-1
1.221874028E1,4.802441001E-1,-1.480690718E0,5.196857452E-1
1.223873808E1,5.772097707E-1,-1.421255827E0,3.963756561E-1
1.225873578E1,4.255065322E-1,-1.419803262E0,5.599670410E-1
1.227873341E1,2.526915669E-1,-1.338703871E0,8.415460587E-1
1.229873088E1,7.347226143E-2,-1.495268106E0,6.707563400E-1
1.231872828E1,-1.101704836E-1,-1.844433308E0,9.809780121E-2
1.233872574E1,1.137543917E-1,-1.604584932E0,-2.155303955E-2
1.235872314E1,-3.543901443E-2,-1.670918226E0,1.150245667E-1
1.237872054E1,-3.774622679E-1,-2.135411263E0,1.917295456E-1
1.239871804E1,-9.665867090E-1,-1.700053573E0,2.925701141E-1
1.241871557E1,-4.918287992E-1,-1.262627363E0,9.003839493E-1
1.243871311E1,-3.581491709E-1,-1.287307978E0,9.529838562E-1
1.245871057E1,-2.029188871E-1,-1.338080525E0,2.703018188E-1
1.247870810E1,-3.623223305E-1,-1.327343225E0,-3.366565704E-2
1.249870557E1,-6.709609032E-1,-1.532176495E0,2.490558624E-1
1.251870310E1,-3.818610907E-1,-1.247301340E0,1.588087082E-1
1.253870063E1,8.435058594E-2,-1.025851727E0,3.237247467E-2
1.255869817E1,-1.119780540E-2,-1.352520108E0,-2.053070068E-2
1.257869563E1,-1.156487465E-1,-1.446335316E0,-1.896505356E-1
1.259869310E1,-1.794694662E-1,-1.210028410E0,-1.152667999E-1
1.261869063E1,2.466422915E-1,-8.003393412E-1,-3.251266479E-2
1.263868810E1,3.999367952E-1,-9.291703701E-1,4.200029373E-1
1.265868563E1,-8.225533962E-1,-1.563094497E0,5.881948471E-1
1.267868316E1,-2.133121967E0,-1.477130413E0,6.621494293E-1
1.269868066E1,-2.233722687E0,-1.050253391E0,1.140522003E0
1.271867806E1,-1.553255796E0,-8.925944567E-1,1.309432983E0
1.273867546E1,-1.203027248E0,-9.535409212E-1,9.915914536E-1
1.275867292E1,-1.004209757E0,-8.604594469E-1,7.446660995E-1
1.277867039E1,-1.554428458E0,-7.982254028E-1,6.567296982E-1
1.279866785E1,-1.888084888E0,-1.016324759E0,3.298482895E-1
1.281866532E1,-1.082867503E0,-7.938730717E-1,-1.878643036E-1
1.283866285E1,-7.416737080E-1,-8.608350754E-1,-4.883556366E-1
1.285866032E1,-7.092765570E-1,-7.319841385E-1,-4.295320511E-1
1.287865778E1,-8.586992025E-1,-5.580829382E-1,-4.223222733E-1
1.289865532E1,-1.401951909E0,-2.876693010E-1,-1.374731064E-1
1.291865242E1,-1.538604736E0,-1.864640713E-1,1.872119904E-1
1.293864995E1,-1.545743823E0,-5.785964727E-1,-4.798030853E-2
1.295864741E1,-1.663277984E0,-5.292444229E-1,-7.037639618E-1
1.297864495E1,-1.731165528E0,-6.682264805E-1,-7.030982971E-1
1.299864241E1,-2.016972542E0,-4.278918505E-1,-2.389564514E-1
1.301864001E1,-2.171442270E0,-4.066801071E-1,-3.547096252E-2
1.303863774E1,-2.398650646E0,-7.350378036E-1,-1.279850006E-1
1.305863554E1,-2.256743908E0,-5.557624102E-1,-6.130914688E-1
1.307863328E1,-1.913722157E0,-4.864985943E-1,-5.130577087E-1
1.309863101E1,-1.895539165E0,-5.546284914E-1,7.596111298E-2
1.311862874E1,-1.949475884E0,-2.146365643E-1,3.688449860E-1
1.313862641E1,-1.522856116E0,2.653248310E-1,2.484817505E-1
1.315862414E1,-1.438850284E0,1.947212219E-2,3.292322159E-1
1.317862187E1,-1.450124860E0,-1.641047001E-1,2.943229675E-1
1.319861960E1,-1.469854951E0,-2.330869436E-1,-1.756668091E-1
1.321861770E1,-9.092776775E-1,-1.456534863E-1,-6.141614914E-1
1.323861537E1,-8.893240690E-1,-1.694700718E-1,-6.705255508E-1
1.325861310E1,-1.195438147E0,-1.063358784E-1,-5.585060120E-1
1.327861083E1,-9.769423008E-1,-6.091046333E-2,-4.033594131E-1
1.329860856E1,-1.266304374E0,-1.385757923E-1,-3.624496460E-1
1.331860616E1,-9.633796215E-1,-7.182884216E-2,-6.590518951E-1
1.333860370E1,-7.478865385E-1,-1.839374304E-1,-7.799072266E-1
1.335860110E1,-9.254902601E-1,-2.867388725E-1,-6.126594543E-1
1.337859850E1,-9.226276875E-1,-1.068296432E-1,-3.122396469E-1
1.339859596E1,-8.115864992E-1,-4.049015045E-2,-9.481525421E-2
1.341855405E1,-8.758374453E-1,-2.792310715E-2,-1.709327698E-1
1.343855158E1,-1.026012897E0,-6.318140030E-2,-3.215007782E-1
1.345854904E1,-1.424997687E0,-3.016269207E-1,-4.604082108E-1
1.347854678E1,-1.803399563E0,-8.075152636E-1,-7.290763855E-1
1.349854424E1,-1.794626117E0,-9.183012247E-1,-8.512592316E-1
1.351854177E1,-8.937894106E-1,-4.589432478E-1,-6.356039047E-1
1.353853931E1,1.325333118E-2,5.432176590E-2,-3.132686615E-1
1.355853684E1,-4.731909037E-1,-4.888927937E-2,-4.143810272E-2
1.357853430E1,-1.379507065E0,6.978511810E-4,-1.116647720E-1
1.359853177E1,-2.156949997E0,-2.393949032E-2,-3.918485641E-1
1.361852930E1,-2.094547987E0,-6.394149065E-1,-4.349002838E-1
1.363852677E1,-1.504763365E0,-6.884487867E-1,-7.422428131E-1
1.365852373E1,-1.119920373E0,-5.507537127E-1,-7.420597076E-1
1.367852127E1,-1.128755450E0,-6.259058714E-1,-4.054822922E-1
1.369851880E1,-1.585625052E0,-4.437371492E-1,1.366329193E-1
1.371851663E1,-1.747245431E0,-3.614032269E-1,8.203916550E-1
1.373851403E1,-1.198993444E0,-3.539777994E-1,9.095182419E-1
1.375851150E1,-1.110695243E0,-2.828985453E-1,8.768272400E-1
1.377850876E1,-1.232542515E0,-6.724747419E-1,5.312156677E-1
1.379850623E1,-1.037881732E0,-9.521870613E-1,1.124343872E-1
1.381850363E1,-5.398201942E-1,-8.041292429E-1,-7.804870605E-2
1.383850112E1,-3.189533949E-1,-5.655345917E-1,3.202667236E-1
1.385849859E1,-5.522249937E-1,-3.894262314E-1,6.663951874E-1
1.387849606E1,-1.886798143E-1,-2.635549307E-1,8.979806900E-1
1.389849359E1,2.163622379E-1,-2.546468973E-1,5.717573166E-1
1.391849112E1,-7.281303406E-4,-5.647970438E-1,1.804790497E-1
1.393848865E1,-5.901387334E-1,-9.248042703E-1,9.682464600E-2
1.395848668E1,-8.941367269E-1,-1.152345657E0,3.490095139E-1
1.397848422E1,-1.100202799E-1,-6.468051672E-1,2.612533569E-1
1.399848168E1,9.950864315E-2,-7.480773926E-1,3.456897736E-1
1.401847922E1,-1.229375005E-1,-5.909934044E-1,3.818712234E-1
1.403847675E1,-2.157344818E-1,-7.322325706E-1,3.831281662E-1
1.405847431E1,3.556160331E-1,-7.042973042E-1,1.362419128E-1
1.407847205E1,5.188201070E-1,-9.658589363E-1,-1.374130249E-1
1.409846995E1,-1.251158118E-1,-1.112818599E0,-4.006433487E-1
1.411846798E1,-5.371956825E-1,-1.006919742E0,-1.751899719E-1
1.413846601E1,-2.570005655E-1,-9.938942194E-1,-1.334657669E-1
1.415846421E1,-8.372849226E-2,-1.023826480E0,-2.553176880E-1
1.417846241E1,-5.663472414E-2,-1.179015398E0,-3.459234238E-1
1.419846061E1,-1.990936399E-1,-1.416021585E0,-2.445564270E-1
1.421845874E1,-9.269866347E-1,-1.435582638E0,-1.084537506E-1
1.423845688E1,-9.703220725E-1,-9.474922419E-1,2.664251328E-1
1.425845508E1,-5.867403150E-1,-8.704864979E-1,8.972187042E-1
1.427845328E1,8.997631073E-2,-1.017104149E0,7.886657715E-1
1.429845148E1,-1.020102501E-1,-1.423244119E0,1.265201569E-1
1.431844961E1,-9.151197672E-1,-1.674475789E0,-1.017494202E-1
1.433844781E1,-1.080475330E0,-1.687258363E0,1.767873764E-1
1.435844591E1,-5.385768414E-1,-1.310387492E0,8.029823303E-1
1.437844378E1,-1.475389004E-1,-1.207549572E0,1.128983498E0
1.439844154E1,-3.753655553E-1,-1.555430174E0,8.549356461E-1
1.441843924E1,-5.198621750E-1,-1.431769252E0,2.190618515E-1
1.443843684E1,-6.024362445E-1,-1.764814138E0,4.122028351E-1
1.445843424E1,-7.504310012E-1,-1.852799773E0,8.470020294E-1
1.447843170E1,-5.716672540E-1,-1.592741251E0,9.566745758E-1
1.449842917E1,-3.697448969E-2,-1.510364532E0,1.061566353E0
1.451842670E1,2.771453857E-1,-1.778028727E0,7.175025940E-1
1.453842424E1,-1.022467017E-1,-1.622904301E0,1.890964508E-1
1.455842177E1,-3.561061025E-1,-1.723446846E0,1.135072708E-1
1.457841923E1,-1.763148904E-1,-1.753121853E0,3.072118759E-1
1.459841670E1,-3.634885550E-1,-1.905313134E0,5.494537354E-1
1.461841423E1,-6.191354990E-1,-1.692790031E0,8.242282867E-1
1.463841170E1,-5.834180713E-1,-1.634763718E0,1.354291916E0
1.465840923E1,-1.790884733E-1,-1.612667561E0,1.581754684E0
1.467840676E1,-2.916854620E-2,-1.470882654E0,1.177538872E0
1.469840429E1,-1.906573772E-1,-1.733606339E0,4.894247055E-1
1.471840176E1,-2.510319352E-1,-2.051206350E0,1.657867432E-1
1.473839922E1,1.335970759E-1,-2.041195869E0,2.313308716E-1
1.475839676E1,2.949962914E-1,-2.061361551E0,5.098104477E-1
1.477839429E1,3.080376387E-1,-2.084184885E0,5.914459229E-1
1.479839176E1,6.490114331E-2,-2.246260643E0,4.385681152E-1
1.481838915E1,8.433085680E-2,-2.371608257E0,4.939851761E-1
1.483838662E1,5.244169235E-1,-2.432490587E0,3.567247391E-1
1.485838402E1,4.621098042E-1,-2.291399002E0,1.595954895E-1
1.487838142E1,3.137879372E-1,-2.263061047E0,1.772089005E-1
1.489837892E1,3.063433766E-1,-2.501582861E0,1.801538467E-1
1.491837645E1,9.219958782E-1,-2.577894688E0,6.892108917E-2
1.493837398E1,9.956136346E-1,-2.355264902E0,1.933097839E-2
1.495837145E1,9.569725394E-1,-1.951946020E0,4.767198563E-1
1.497836898E1,9.385700822E-1,-1.589164615E0,1.028527260E0
1.499836644E1,7.639961243E-1,-1.462455988E0,9.978046417E-1
1.501836398E1,1.206316710E0,-1.877163649E0,8.071107864E-1
1.503836151E1,1.949879289E0,-1.806056499E0,4.463233948E-1
1.505835904E1,1.752569079E0,-1.597208142E0,1.956443787E-1
1.507835651E1,1.176458716E0,-1.620451689E0,-1.741027832E-2
1.509835397E1,9.643079042E-1,-1.755248904E0,-1.064100266E-1
1.511835151E1,1.389669061E0,-1.807909966E0,3.167247772E-2
1.513834897E1,1.799815893E0,-1.398030877E0,-4.277610779E-2
1.515834657E1,1.715598583E0,-1.134166956E0,2.692499161E-1
1.517834444E1,1.194154501E0,-1.370718479E0,3.900842667E-1
1.519834237E1,-5.280563235E-2,-1.803155661E0,3.399887085E-1
1.521834030E1,7.174569368E-2,-1.929520249E0,2.287864685E-2
1.523833837E1,1.091972709E0,-1.719780087E0,-4.993438721E-3
1.525833650E1,1.316270947E0,-1.405444980E0,-1.030588150E-1
1.527833463E1,1.201642394E0,-1.179977894E0,-8.245658875E-2
1.529833276E1,8.462020159E-1,-1.143712521E0,-4.892377853E-1
1.531833066E1,1.187451959E0,-9.848627448E-1,-8.765649796E-1
1.533832880E1,1.188753247E0,-1.582719207E0,-1.131217003E0
1.535832686E1,1.343367338E0,-1.579408884E0,-1.282191277E0
1.537832493E1,1.453613043E0,-9.419276118E-1,-1.124555588E0
1.539832306E1,1.357850790E0,-4.324895144E-1,-1.292991638E-1
1.541832119E1,5.210281610E-1,-4.787669778E-1,8.732700348E-1
1.543831932E1,-1.521539986E-1,-3.411736488E-1,9.331512451E-1
1.545831732E1,9.682909846E-1,-2.292754650E-1,4.762659073E-1
1.547831512E1,1.471207619E0,-2.981724739E-1,1.604843140E-1
1.549831276E1,6.574791074E-1,-4.451401830E-1,2.010860443E-1
1.551831036E1,-3.615618646E-1,-5.010440350E-1,8.082675934E-1
1.553830782E1,-3.902218640E-1,-2.392080426E-1,8.074712753E-1
1.555830529E1,6.716350317E-1,-3.971798420E-1,6.025238037E-1
1.557830269E1,8.408023715E-1,-4.239110947E-1,7.569885254E-2
1.559830009E1,-9.701836109E-2,-6.600309610E-1,-1.866331100E-1
1.561829775E1,-5.221124887E-1,-5.793836117E-1,-4.618749619E-1
1.563829522E1,-4.796547294E-1,-7.428235412E-1,-1.679258347E-1
1.565829275E1,-1.614684463E-1,-5.684781075E-1,6.219863892E-3
1.567829028E1,1.997728944E-1,-4.047032595E-1,5.107021332E-2
1.569828781E1,1.036668062E0,-4.821067154E-1,-6.025505066E-2
1.571828528E1,8.576706648E-1,-5.609354377E-1,-2.009992599E-1
1.573828275E1,3.686791658E-2,-6.965203285E-1,-2.406625748E-1
1.575828028E1,-4.269410670E-1,-4.401145279E-1,2.225942612E-1
1.577827781E1,1.147235036E-1,-2.520748079E-1,8.538761139E-1
1.579827534E1,1.010377169E0,-1.104141772E-1,8.691358566E-1
1.581827281E1,1.229664207E0,1.140629053E-1,2.765798569E-1
1.583827034E1,6.099907756E-1,-1.146089733E-1,-1.632108688E-1
1.585826780E1,1.841982603E-1,-4.229664207E-1,-4.353265762E-1
1.587826527E1,-2.402329445E-2,-8.960527182E-1,-5.928335190E-1
1.589826280E1,3.593203425E-1,-7.445119023E-1,-1.053695679E0
1.591826030E1,1.071786880E0,-2.046996951E-1,-6.012134552E-1
1.593825777E1,1.464247823E0,-7.462307811E-2,2.138471603E-1
1.595825517E1,1.373044968E0,1.409799159E-1,2.198209763E-1
1.597825263E1,1.196087360E0,4.743143916E-2,2.779245377E-1
1.599825003E1,1.039215922E0,-1.152770817E-1,1.690807343E-1
1.601824750E1,1.262676954E0,4.054012895E-2,3.634328842E-1
1.603824503E1,1.411729813E0,4.256825149E-1,5.675086975E-1
1.605824256E1,1.160917282E0,3.382647336E-1,9.330263138E-1
1.607824003E1,9.506393075E-1,3.837392926E-1,9.156551361E-1
1.609823749E1,6.459552050E-1,1.615439355E-1,5.613908768E-1
1.611823503E1,8.414869308E-1,6.848356128E-2,1.252603531E-1
1.613823252E1,8.713238239E-1,9.913665056E-2,1.083660126E-2
1.615823006E1,7.485947013E-1,2.609178722E-1,7.265377045E-2
1.617822759E1,8.462406397E-1,4.281097353E-1,9.886264801E-2
1.619822512E1,1.581632495E-1,-3.607478738E-2,6.966209412E-2
1.621822259E1,-3.397005200E-1,-1.820133477E-1,-2.650890350E-1
1.623822009E1,-4.157989621E-1,-1.898032427E-1,-4.425096512E-1
1.625821772E1,-2.294096947E-1,1.456793845E-1,-2.507734299E-1
1.627821545E1,3.814804554E-2,5.606012344E-1,3.697204590E-1
1.629821325E1,-1.332265139E-2,5.326020718E-1,5.673551559E-1
1.631821098E1,-8.634310961E-2,2.265751064E-1,5.728340149E-2
1.633820872E1,1.106676459E-1,-1.918206513E-1,-4.273271561E-1
1.635820638E1,1.969480515E-2,-2.993046045E-1,-3.586196899E-1
1.637820412E1,-1.616402864E-1,9.614595771E-2,2.488393784E-1
1.639820185E1,1.849617958E-1,3.718347847E-1,8.619756699E-1
1.641819958E1,4.814152718E-1,1.608743966E-1,7.794427872E-1
1.643819728E1,6.960518360E-1,-4.176822305E-2,4.473686218E-2
1.645819494E1,8.328682184E-1,-2.631830573E-1,-5.041198730E-1
1.647819268E1,7.886046171E-1,-4.865049720E-1,-4.479818344E-1
1.649819034E1,7.493769526E-1,-3.181287348E-1,-8.135318756E-2
1.651818807E1,8.860897422E-1,-3.477355838E-2,3.538618088E-1
1.653818577E1,1.635649443E0,2.166233361E-1,6.667547226E-1
1.655818341E1,2.333237648E0,4.638920426E-1,4.008674622E-1
1.657818087E1,2.305461884E0,1.871138811E-1,1.846456528E-1
1.659817827E1,1.532189727E0,-2.237281203E-1,1.920795441E-2
1.661817574E1,9.770635366E-1,-5.148465633E-1,-1.957836151E-1
1.663817320E1,8.062983751E-1,-5.810571909E-1,-5.127668381E-1
1.665817074E1,8.477742672E-1,-5.478305817E-1,-2.432279587E-1
1.667816820E1,1.204948664E0,-1.120250821E-1,3.464317322E-2
1.669816573E1,1.528349757E0,3.037189841E-1,5.824804306E-1
1.671816320E1,1.392212629E0,3.338984251E-1,8.575181961E-1
1.673816067E1,1.186825037E0,-3.696572781E-1,5.185365677E-1
1.675815820E1,1.080744505E0,-7.551929355E-1,-2.068462372E-1
1.677815573E1,7.005535960E-1,-1.009623170E0,-1.676712036E-1
1.679815326E1,3.320823908E-1,-4.825702310E-1,5.107421875E-1
1.681815073E1,1.625971198E-1,-1.456071734E-1,1.175289154E0
1.683814826E1,5.863911510E-1,-4.851627350E-2,1.241907120E0
1.685814572E1,1.059715509E0,-3.974490762E-1,7.119684219E-1
1.687814326E1,1.576904655E0,-1.006625772E0,-6.581020355E-2
1.689814079E1,1.358656645E0,-1.242356420E0,-5.980958939E-1
1.691813832E1,8.261331320E-1,-9.138783216E-1,-1.723165512E-1
1.693813579E1,6.922084093E-2,-8.673228025E-1,3.778257370E-1
1.695813319E1,6.155400276E-1,-1.025701284E0,5.516986847E-1
1.697813065E1,1.057556272E0,-1.420293212E0,-8.424758911E-2
1.699812805E1,5.779373646E-1,-1.452566743E0,-8.139333725E-1
1.701812552E1,7.094861269E-1,-1.509654522E0,-7.215585709E-1
1.703812298E1,8.148157597E-1,-1.397376180E0,5.457305908E-2
1.705812048E1,8.172656298E-1,-1.533111691E0,4.487600327E-1
1.707811795E1,8.461648226E-1,-1.468777418E0,2.120647430E-1
1.709811541E1,7.358871698E-1,-1.479089260E0,6.991291046E-2
1.711811295E1,8.776679039E-1,-1.573798418E0,-1.266860962E-2
1.713811048E1,5.778129101E-1,-1.560949206E0,1.893072128E-1
1.715810801E1,2.399579287E-1,-1.676467776E0,3.307266235E-1
1.717810548E1,-4.445290565E-1,-1.949479222E0,3.291025162E-1
1.719810301E1,-2.405258715E-1,-1.810871363E0,1.533260345E-1
1.721810047E1,2.917899787E-1,-1.392254949E0,2.272109985E-1
1.723809794E1,1.774337888E-2,-1.626492858E0,3.181209564E-1
1.725809547E1,-4.777017832E-1,-1.745314121E0,5.345439911E-1
1.727809300E1,-6.449810266E-1,-1.313415051E0,6.849298477E-1
1.729809060E1,-7.134101391E-1,-1.388330460E0,7.286815643E-1
1.731808840E1,-6.866795421E-1,-1.489995718E0,4.811744690E-1
1.733808637E1,-3.360350728E-1,-1.532422185E0,-5.129337311E-2
1.735808434E1,-1.939923018E-1,-1.299247980E0,-2.879047394E-2
1.737808247E1,2.147756517E-3,-1.097437739E0,1.558637619E-1
1.739808060E1,-1.656195223E-1,-1.155272007E0,4.000749588E-1
1.741807873E1,-7.528768182E-1,-1.208894968E0,4.312496185E-1
1.743807680E1,-9.961302280E-1,-1.253412127E0,3.351964951E-1
1.745807486E1,-3.565008640E-1,-1.213733673E0,2.650032043E-1
1.747807300E1,2.685301192E-2,-1.195308805E0,2.194309235E-2
1.749807106E1,-1.769150607E-2,-1.504202127E0,1.604156494E-1
1.751806919E1,-2.066544294E-1,-1.285620332E0,4.151983261E-1
1.753806733E1,-2.149411291E-1,-9.737253189E-1,7.162666321E-1
1.755806546E1,-3.644329906E-1,-1.147884250E0,8.675117493E-1
1.757806352E1,-5.674741864E-1,-1.161311269E0,5.830888748E-1
1.759806152E1,-1.349068582E-1,-8.354465961E-1,3.653030396E-1
1.761805932E1,1.230218410E-1,-1.039437532E0,1.157045364E-1
1.763805702E1,1.253618300E-1,-1.068023324E0,5.728721619E-3
1.765805462E1,-2.218360752E-1,-1.372669935E0,-2.469778061E-1
1.767805202E1,-1.124576330E-1,-1.399721146E0,-4.698448181E-1
1.769804949E1,-1.315489858E-1,-1.245878339E0,-4.574069977E-1
1.771804688E1,2.255474925E-1,-1.015102148E0,-1.192836761E-1
1.773804428E1,6.472070217E-1,-5.847795010E-1,2.711944580E-1
1.775804175E1,5.168029070E-1,-5.688648224E-1,5.764522552E-1
1.777803925E1,2.766119838E-1,-7.740739584E-1,7.541542053E-1
1.779803678E1,6.604547799E-2,-1.065226078E0,5.193929672E-1
1.781803425E1,-7.822658122E-2,-1.052486777E0,3.606996536E-1
1.783803178E1,-5.594862998E-2,-8.805823326E-1,6.237077713E-1
1.785802924E1,2.887583971E-1,-9.393005371E-1,5.915546417E-1
1.787802678E1,7.549157143E-1,-9.110603333E-1,2.906894684E-1
1.789802431E1,1.326774001E0,-8.249737024E-1,-1.903839111E-1
1.791802184E1,8.119158149E-1,-1.392659783E0,-4.887762070E-1
1.793801931E1,-3.472825885E-1,-1.888784647E0,-3.767251968E-1
1.795801677E1,-4.051828682E-1,-1.263331056E0,3.286075592E-2
1.797801431E1,2.317549586E-1,-9.574879408E-1,6.715068817E-1
1.799801177E1,2.218777239E-1,-1.238176346E0,9.294834137E-1
1.801800930E1,-1.882795691E-1,-1.234197497E0,5.628042221E-1
1.803800684E1,-4.166063368E-1,-1.317942619E0,2.689456940E-1
1.805800437E1,-4.972160459E-1,-1.624567032E0,2.035245895E-1
1.807800180E1,-5.426232815E-1,-1.301949382E0,4.373369217E-1
1.809799920E1,-5.732963085E-1,-1.117992282E0,8.423614502E-1
1.811799666E1,-1.874013692E-1,-1.041404486E0,9.885816574E-1
1.813799413E1,3.126834333E-2,-1.061597228E0,8.116722107E-1
1.815799160E1,7.303462923E-2,-9.621438980E-1,4.366741180E-1
1.817798903E1,-8.079260588E-3,-1.207750916E0,1.186857224E-1
1.819798656E1,-5.153350234E-1,-1.398059845E0,3.689432144E-1
1.821798403E1,-4.054929614E-1,-1.157922029E0,5.405855179E-1
1.823798149E1,-3.888837397E-1,-9.878585339E-1,3.866214752E-1
1.825797903E1,-2.450240254E-1,-1.082355618E0,2.155923843E-1
1.827797656E1,-7.745041847E-1,-1.320658326E0,3.648176193E-1
1.829797409E1,-1.003973365E0,-9.776829481E-1,1.291122437E-1
1.831797156E1,-8.752846718E-1,-1.112081885E0,4.005489349E-1
1.833796909E1,-5.008379221E-1,-1.044925928E0,2.374172211E-1
1.835796655E1,-5.404127836E-1,-1.065939069E0,-2.126579285E-1
1.837796409E1,-3.220168650E-1,-9.460608959E-1,-6.730213165E-1
1.839796172E1,-3.917523623E-1,-1.164490104E0,-3.726892471E-1
1.841795945E1,-6.536092758E-1,-9.516197443E-1,8.270263672E-3
1.843795719E1,-8.252898455E-1,-7.591234446E-1,2.282085419E-1
1.845795492E1,-5.021827817E-1,-8.632724285E-1,4.559640884E-1
1.847795268E1,-1.366795897E-1,-6.493563652E-1,9.544181824E-2
1.849795035E1,1.895710826E-1,-4.223270416E-1,-5.713920593E-1
1.851794808E1,1.334244013E-2,-1.029046059E0,-4.733591080E-1
1.853794581E1,-5.744675398E-1,-1.453201771E0,-3.806037903E-1
1.855794355E1,-8.094356656E-1,-6.021876335E-1,-3.549098969E-1
1.857794121E1,-1.388700604E-1,-4.810516834E-1,1.502780914E-1
1.859793888E1,3.255187273E-1,-9.351989031E-1,4.093856812E-1
1.861793661E1,-2.243923545E-1,-6.996200085E-1,-4.583740234E-2
1.863793434E1,-8.800657392E-1,-7.577109337E-1,-6.234645844E-2
1.865793207E1,-6.159970164E-1,-8.179183006E-1,1.316585541E-1
1.867792974E1,-8.582727313E-1,-9.859031439E-1,1.622829437E-1
1.869792737E1,-7.922900915E-1,-8.154819012E-1,2.110624313E-1
1.871792484E1,-6.105072498E-1,-8.382986784E-1,3.451690674E-1
1.873792224E1,-8.243967891E-1,-1.048196912E0,3.834543228E-1
1.875791970E1,-1.437362075E0,-7.673006058E-1,2.816343307E-1
1.877791717E1,-2.212384462E0,-4.407675266E-1,4.627847672E-1
1.879791464E1,-1.721500039E0,-4.924117327E-1,1.193460464E0
1.881791210E1,-1.645503402E0,-4.557876587E-1,1.113801956E0
1.883790963E1,-1.685119748E0,-4.483382702E-1,7.969579697E-1
1.885790710E1,-7.025636435E-1,-2.396422625E-1,3.641700745E-1
1.887790463E1,-5.672011375E-1,-4.949921370E-1,2.558240891E-1
1.889790236E1,-7.737029791E-1,-4.263575077E-1,1.655101776E-1
1.891789990E1,-1.093540549E0,-2.284562588E-1,2.471113205E-1
1.893789736E1,-8.511240482E-1,4.332947731E-2,2.859210968E-1
1.895789483E1,-6.507564783E-1,-1.214799881E-1,1.792669296E-1
1.897789236E1,-3.619120121E-1,-4.659429789E-1,-1.688890457E-1
1.899788983E1,-6.686913967E-1,-1.798229218E-1,-5.027036667E-1
1.901788736E1,-8.074012995E-1,-2.024118900E-1,-7.851219177E-2
1.903788489E1,-1.079014659E0,-1.789627075E-1,2.208518982E-1
1.905788242E1,-1.048542261E0,-4.840111732E-2,-5.866622925E-2
1.907787989E1,-1.253086209E0,-2.368297577E-1,-3.932504654E-1
1.909787735E1,-1.371781826E0,-3.132946491E-1,-4.582195282E-1
1.911787482E1,-9.104080200E-1,-2.812951803E-1,-4.574670792E-1
1.913787229E1,-8.107694387E-1,2.843213081E-2,-6.447181702E-1
1.915786975E1,-9.548618793E-1,-2.554595470E-1,-4.218893051E-1
1.917786715E1,-1.509716034E0,1.754069328E-2,-2.822170258E-1
1.919786442E1,-1.818068266E0,-6.592035294E-3,8.536815643E-2
1.921786188E1,-1.485871553E0,-2.582525015E-1,-3.557596207E-1
1.923785935E1,-1.497417450E0,-3.030314445E-1,-7.770977020E-1
1.925785688E1,-1.329110503E0,-3.631055355E-1,-6.189174652E-1
1.927785441E1,-1.468494415E0,-3.004338741E-1,-3.745098114E-1
1.929785194E1,-1.676315546E0,-1.252305508E-1,-4.111576080E-2
1.931784941E1,-1.401620507E0,-8.178138733E-2,8.079719543E-2
1.933784694E1,-1.253805518E0,6.034564972E-2,1.093215942E-1
1.935784441E1,-1.234207153E0,-1.560330391E-1,-3.134727478E-3
1.937784194E1,-1.114123583E0,-2.607322931E-1,-4.487524033E-1
1.939783947E1,-1.242288589E0,-2.380845547E-1,-4.999647141E-1
1.941783701E1,-8.901423216E-1,1.681876183E-2,-6.513690948E-2
1.943783454E1,-7.973016500E-1,2.307081223E-2,1.781024933E-1
1.945783234E1,-1.044191599E0,6.479263306E-3,9.421443939E-2
1.947783030E1,-1.400614500E0,-2.241182327E-1,-4.568672180E-2
1.949782830E1,-1.266645551E0,-1.777536869E-1,-1.853237152E-1
1.951782637E1,-1.447289586E0,-1.612007618E-1,-4.626274109E-2
1.953782457E1,-1.613533735E0,-4.373419285E-1,1.443033218E-1
1.955782277E1,-1.292065024E0,-4.007943869E-1,1.334390640E-1
1.957782090E1,-1.617329359E0,-1.532363892E-2,6.971073151E-2
1.959781904E1,-1.783964753E0,-2.894009352E-1,3.225831985E-1
1.961781724E1,-1.802133918E0,-5.457489491E-1,8.007049561E-3
1.963781544E1,-1.913152933E0,-7.366049290E-1,-4.366273880E-1
1.965781364E1,-1.468204856E0,-6.676588058E-1,-2.776870728E-1
1.967781177E1,-1.249722004E0,-4.645576477E-1,9.148120880E-2
1.969780997E1,-1.729026079E0,-3.935636282E-1,1.286239624E-1
1.971780810E1,-2.112765312E0,-5.187637806E-1,1.970357895E-1
1.973780617E1,-1.594822526E0,-7.194561958E-1,2.288904190E-1
1.975780403E1,-7.266011238E-1,-5.730158091E-1,6.918334961E-2
1.977780180E1,-6.763204336E-1,-4.849309921E-1,-4.178619385E-2
1.979779946E1,-1.033320308E0,-6.012277603E-1,2.996950150E-1
1.981779700E1,-1.064871192E0,-5.875492096E-1,4.840755463E-1
1.983779446E1,-1.392946005E0,-5.182220936E-1,5.891208649E-1
1.985779186E1,-1.525418878E0,-7.372703552E-1,4.212236404E-1
1.987778940E1,-1.461411953E0,-1.111805320E0,1.514997482E-1
1.989778693E1,-1.553993583E0,-1.132809877E0,3.170204163E-2
1.991778446E1,-1.705700159E0,-1.302734137E0,1.672248840E-1
1.993778193E1,-1.667474031E0,-1.291845202E0,4.448528290E-1
1.995777939E1,-1.272814751E0,-1.216602325E0,4.443655014E-1
1.997777692E1,-8.140748143E-1,-1.371211767E0,4.632673264E-1
1.999777439E1,-5.832449794E-1,-1.188788056E0,3.068799973E-1
2.001777192E1,-5.967462063E-1,-1.386128426E0,3.151407242E-1
2.003776945E1,-7.232402563E-1,-1.551240563E0,3.150815964E-1
2.005776698E1,-8.207168579E-1,-1.692769647E0,4.389801025E-1
2.007776445E1,-3.181480765E-1,-1.323781013E0,4.621734619E-1
2.009776192E1,8.990591764E-2,-1.328475595E0,5.070495605E-1
2.011775945E1,2.410166860E-1,-1.473973632E0,3.236417770E-1
2.013775698E1,2.424091101E-2,-1.400815010E0,2.734699249E-1
2.015775451E1,2.594010234E-1,-1.374197364E0,1.700372696E-1
2.017775191E1,-3.036439419E-2,-1.413272023E0,2.504615784E-1
2.019774938E1,7.505071163E-2,-1.378887534E0,8.830070496E-2
2.021774678E1,5.102599859E-1,-1.776277184E0,-2.562713623E-2
2.023774418E1,3.885377645E-1,-1.582329273E0,-2.512149811E-1
2.025774164E1,1.568326354E-1,-1.483143926E0,3.966712952E-2
2.027773914E1,-9.692686796E-2,-1.300928116E0,4.370555878E-1
2.029773667E1,-3.111118078E-2,-1.422524333E0,6.793594360E-1
2.031773414E1,-2.981420159E-1,-1.615606308E0,5.688505173E-1
2.033773167E1,-1.929754615E-1,-1.615914464E0,4.411611557E-1
2.035772914E1,-3.280513883E-1,-1.867548823E0,4.639434814E-1
2.037772667E1,-1.902721524E-1,-1.921686530E0,7.920360565E-2
2.039772420E1,-2.057314515E-1,-2.153566360E0,-5.885696411E-2
2.041772130E1,-5.462164879E-1,-2.434438705E0,4.720783234E-2
2.043771877E1,-5.851783156E-1,-2.328924656E0,6.700067520E-1
2.045771623E1,4.620779157E-1,-1.706973553E0,1.143382072E0
2.047771376E1,1.302254438E0,-1.406840086E0,1.126576424E0
2.049771123E1,1.144223928E0,-1.592677712E0,6.275672913E-1
2.051770876E1,1.561429203E-1,-2.237837791E0,1.942558289E-1
2.053770646E1,-1.855981350E-2,-2.821840763E0,1.161212921E-1
2.055770433E1,1.567845047E-1,-2.287176847E0,2.058944702E-1
2.057770223E1,5.399466753E-1,-1.818563819E0,7.545137405E-1
2.059770023E1,2.510843277E-1,-2.200644732E0,1.055478096E0
2.061769836E1,8.456498384E-3,-2.347845554E0,7.812261581E-1
2.063769649E1,-1.526063979E-1,-2.567968607E0,3.324556351E-1
2.065769462E1,-4.212492108E-1,-2.750449657E0,5.998659134E-1
2.067769269E1,-4.064060450E-1,-2.661128998E0,1.218889236E0
2.069769082E1,2.489809543E-1,-2.301663876E0,1.292705536E0
2.071768932E1,9.987726212E-1,-2.067924500E0,9.416475296E-1
2.073768739E1,1.479125381E0,-1.899293661E0,9.014101028E-1
2.075768552E1,9.523184299E-1,-1.803887367E0,9.979200363E-1
2.077768365E1,2.668264508E-1,-1.992887020E0,1.118680000E0
2.079768178E1,4.545313120E-2,-1.544864178E0,1.142784119E0
2.081767985E1,3.635724783E-1,-1.453484535E0,1.390836716E0
2.083767738E1,1.545352578E0,-1.470913887E0,8.552446365E-1
2.085767511E1,1.946051240E0,-1.525601864E0,-1.069898605E-1
2.087767278E1,1.339735746E0,-1.890178442E0,-5.958642960E-1
2.089767031E1,7.360468805E-2,-2.072542429E0,-5.248107910E-1
2.091766778E1,-6.050802469E-1,-2.345494747E0,-2.782211304E-1
2.093766518E1,-1.038298607E-1,-2.338209391E0,-3.519029617E-1
2.095766258E1,7.772787809E-1,-2.233391047E0,-4.881725311E-1
2.097766004E1,1.309321642E0,-2.197039843E0,-7.012624741E-1
2.099765751E1,1.046197653E0,-2.125862122E0,-6.969318390E-1
2.101765504E1,1.104779005E0,-2.140788317E0,-2.327861786E-1
2.103765257E1,1.180272460E0,-2.220041275E0,-1.376323700E-1
2.105765010E1,8.541585207E-1,-1.984187841E0,-4.991722107E-1
2.107764757E1,7.727124691E-1,-2.075440884E0,-5.522527695E-1
2.109764504E1,1.424129009E0,-1.931316972E0,-4.864702225E-1
2.111764257E1,1.582386374E0,-1.752346396E0,-5.335264206E-1
2.113764053E1,9.252723455E-1,-1.711493850E0,-3.704872131E-1
2.115763797E1,-8.667880297E-2,-2.080867767E0,5.900955200E-2
2.117763543E1,-2.046573162E-2,-1.802162766E0,3.334779739E-1
2.119763296E1,1.082832694E0,-1.328647017E0,9.093093872E-2
2.121763043E1,1.104542494E0,-1.632225513E0,5.508899689E-2
2.123762790E1,3.344841003E-1,-1.424689412E0,1.284284592E-1
2.125762543E1,1.536815166E-1,-1.235953093E0,-1.562891006E-1
2.127762296E1,4.042805433E-1,-1.773378849E0,2.216815948E-2
2.129762043E1,-1.971416175E-1,-1.633710980E0,1.041574478E-1
2.131761783E1,1.353213191E-1,-1.327791214E0,2.636327744E-1
2.133761529E1,1.034526348E0,-6.531978250E-1,7.001066208E-1
2.135761269E1,1.756216049E0,-3.491279483E-1,1.103538513E0
2.137761016E1,2.064373255E0,-3.454126716E-1,1.114424706E0
2.139760766E1,6.962428093E-1,-9.164212346E-1,9.704084396E-1
2.141760519E1,-1.861453652E-1,-1.340383410E0,1.903619766E-1
2.143760265E1,1.220537722E-1,-9.984942675E-1,1.303339005E-1
2.145760022E1,3.792372942E-1,-7.735760808E-1,6.932706833E-1
2.147759775E1,1.527727604E0,-3.134220541E-1,9.868755341E-1
2.149759528E1,1.701374769E0,-2.736892104E-1,9.338455200E-1
2.151759282E1,1.706316352E0,-1.299883127E-1,7.205162048E-1
2.153759035E1,1.207487941E0,3.898476064E-2,6.390485764E-1
2.155758788E1,9.073694944E-1,-1.456154883E-1,5.506153107E-1
2.157758535E1,5.795796514E-1,-5.886341333E-1,2.993021011E-1
2.159758281E1,6.866568327E-1,-4.892888367E-1,-4.074954987E-2
2.161758038E1,8.209329844E-1,-5.480467081E-1,-7.705507278E-1
2.163757801E1,1.099801421E0,-6.245962381E-1,-9.770507812E-1
2.165757581E1,1.166303396E0,-4.796340466E-1,-6.149873734E-1
2.167757354E1,1.056542158E0,-4.360187352E-1,-8.515071869E-2
2.169757131E1,7.393340468E-1,-2.769302428E-1,5.495882034E-1
2.171756854E1,9.895221591E-1,1.485467851E-1,1.035659790E0
2.173756627E1,1.110292554E0,2.201955318E-1,1.172074318E0
2.175756401E1,1.407034039E0,2.080191970E-1,1.028779030E0
2.177756174E1,1.762584329E0,1.958731711E-1,7.435035706E-1
2.179755940E1,1.533007383E0,3.484532237E-1,4.233188629E-1
2.181755707E1,1.403771639E0,3.731024265E-2,3.834819794E-2
2.183755480E1,1.185850978E0,-9.823298454E-2,2.579469681E-1
2.185755247E1,1.059946299E0,1.475130916E-1,3.745651245E-1
2.187755020E1,9.499653578E-1,-4.627341032E-2,4.725074768E-1
2.189754773E1,1.116816401E0,1.032006741E-1,1.636409760E-1
2.191754543E1,1.183032513E0,1.756700873E-1,3.495864868E-1
2.193754300E1,7.553841472E-1,1.548306346E-1,4.660873413E-1
2.195754040E1,6.925583482E-1,-9.423482418E-2,1.099691391E-1
2.197753786E1,7.016378045E-1,-4.825341702E-2,-2.941627502E-1
2.199753533E1,4.486637712E-1,-1.063933372E-1,-1.785249710E-1
2.201753323E1,-6.381088495E-2,6.802737713E-3,2.165861130E-1
2.203753069E1,-1.855515242E-1,3.635347188E-1,7.160615921E-1
2.205752822E1,2.304266095E-1,5.563747883E-2,6.956386566E-1
2.207752612E1,5.711150169E-2,-1.123250127E-1,-2.855300903E-2
2.209752359E1,-3.721863031E-1,-1.754556298E-1,-2.458820343E-1
2.211752112E1,8.370757103E-2,-1.584947109E-3,1.903810501E-1
2.213751865E1,7.991377115E-1,3.598007858E-1,7.247924805E-1
2.215751619E1,1.439786792E0,4.629672468E-1,7.929124832E-1
2.217751365E1,1.690477610E0,2.879164219E-1,9.019374847E-1
2.219751138E1,1.773042560E0,1.144404411E-1,1.157918930E0
2.221750885E1,1.836781502E0,2.679951787E-1,9.592132568E-1
2.223750638E1,2.008242846E0,1.598290205E-1,9.502563477E-1
2.225750391E1,1.883227587E0,1.486487389E-1,1.002892494E0
2.227750145E1,1.772001863E0,-1.900583506E-1,8.061838150E-1
2.229749891E1,1.594425201E0,-3.604353070E-1,4.428844452E-1
2.231749638E1,1.745817423E0,-3.547993898E-1,1.546554565E-1
2.233749384E1,1.691297531E0,-3.702402115E-1,4.048280716E-1
2.235749124E1,1.095858932E0,-3.821889460E-1,7.853097916E-1
2.237748828E1,8.890781403E-1,-3.396916687E-1,6.320533752E-1
2.239748574E1,1.053865790E0,-4.758233428E-1,3.468399048E-1
2.241748321E1,1.235422969E0,-1.050635338E0,-1.393575668E-1
2.243748067E1,1.012315989E0,-9.425353408E-1,-1.245174408E-1
2.245747814E1,8.648214936E-1,-6.886913776E-1,2.073011398E-1
2.247747567E1,9.123408198E-1,-5.227549672E-1,7.216882706E-1
2.249747320E1,1.376848936E0,-2.915272713E-1,9.295225143E-1
2.251747074E1,1.554666638E0,-6.138366461E-1,5.873060226E-1
2.253746820E1,1.189469695E0,-1.145374775E0,-6.636905670E-2
2.255746573E1,3.705734611E-1,-1.479065537E0,-2.222852707E-1
2.257746320E1,1.206228212E-1,-1.125584841E0,2.586812973E-1
2.259746066E1,1.147948027E0,-9.299465418E-1,3.158473969E-1
2.261745820E1,1.310836077E0,-1.116428852E0,8.019828796E-2
2.263745573E1,8.373572230E-1,-9.854147434E-1,1.432332993E-1
2.265745326E1,1.394311786E-1,-1.270156145E0,6.152420044E-1
2.267745089E1,3.264499307E-1,-1.612367392E0,7.072820663E-1
2.269744876E1,6.735949516E-1,-1.274487019E0,3.594522476E-1
2.271744669E1,5.092057586E-1,-1.121670485E0,3.346996307E-1
2.273744469E1,1.786915511E-1,-1.984502077E0,5.030832291E-1
2.275744283E1,-2.337191850E-1,-2.168279171E0,7.093143463E-2
2.277744096E1,-7.516627312E-1,-2.042385101E0,1.004905701E-1
2.279743902E1,-9.119348526E-1,-2.079456091E0,5.296897888E-1
2.281743709E1,-2.684116364E-2,-1.977154970E0,3.129673004E-1
2.283743522E1,-7.689225674E-2,-1.858793139E0,5.879306793E-2
2.285743329E1,-7.710266113E-1,-1.994833827E0,3.395967484E-1
2.287743142E1,-1.023960114E0,-2.080086946E0,6.743812561E-1
2.289742955E1,-1.123162270E0,-2.107330799E0,1.046909332E0
2.291742768E1,-1.154465079E-1,-1.348839521E0,1.002546310E0
2.293742575E1,4.988792539E-1,-1.288246274E0,1.013081551E0
2.294742585E1,4.022210836E-1,-1.400108933E0,8.999452591E-1
2.296742388E1,-3.073954582E-2,-1.837204337E0,6.948957443E-1
2.298742175E1,2.451104522E-1,-1.850980282E0,-3.356933594E-3
2.300741945E1,7.964233160E-1,-1.757865667E0,-1.118421555E-1
2.302741708E1,9.852583408E-1,-1.426048994E0,4.380664825E-1
2.304741455E1,9.983788729E-1,-1.280942082E0,9.435186386E-1
2.306741194E1,8.157896996E-2,-1.830888867E0,1.362542152E0
2.308740941E1,-6.813418865E-1,-2.316364050E0,8.195238113E-1
2.310740681E1,-2.888098955E-1,-2.261059761E0,-2.532224655E-1
2.312740428E1,-5.599379539E-3,-2.169421673E0,-6.235504150E-1
2.314740178E1,-6.027525663E-1,-2.534080267E0,-3.687419891E-1
2.316739931E1,-9.719176292E-1,-2.089065075E0,2.783679962E-2
2.318739677E1,-6.451794505E-1,-1.774104595E0,4.000988007E-1
2.320739424E1,-3.109560013E-1,-1.950778246E0,1.222772598E-1
2.322739177E1,-2.789524198E-1,-2.049910545E0,-2.170562744E-1
2.324738827E1,-4.218736887E-1,-1.483960390E0,1.018047333E-1
2.326738580E1,-7.121140957E-1,-1.482280254E0,8.346729279E-1
2.328738327E1,-4.917411208E-1,-1.326770782E0,8.232126236E-1
2.330738080E1,-1.470662951E-1,-1.562233210E0,3.760633469E-1
2.332737827E1,-2.054049969E-1,-1.519823313E0,3.748550415E-1
2.334737573E1,7.941150665E-2,-1.316571712E0,3.023414612E-1
2.336737326E1,-7.109003663E-1,-1.681505203E0,2.073545456E-1
2.338737080E1,-1.529104710E0,-1.790601730E0,3.858232498E-1
2.340736833E1,-8.976859450E-1,-1.459211826E0,2.968473434E-1
2.342736579E1,2.141773701E-3,-1.376257658E0,2.227458954E-1
2.344736329E1,4.621458054E-1,-1.435732126E0,3.277835846E-1
2.346736069E1,5.230625272E-1,-8.633370399E-1,2.490463257E-1
2.348729704E1,2.148245275E-1,-1.265369415E0,6.710491180E-1
2.350729451E1,9.083104134E-2,-1.301061869E0,8.299160004E-1
2.352729197E1,7.089778781E-1,-1.136470318E0,5.374259949E-1
2.354728937E1,1.025339961E0,-8.654491901E-1,3.343105316E-2
2.356728684E1,1.098585963E0,-1.598935127E0,1.841936111E-1
2.358728437E1,4.416400492E-1,-1.714975595E0,3.949604034E-1
2.360728184E1,3.496609926E-1,-1.199153423E0,4.709682465E-1
2.362727937E1,1.421182156E0,-1.270507336E0,6.969690323E-1
2.364727690E1,1.346623182E0,-1.488917112E0,8.421535492E-1
2.366727443E1,2.336019278E-2,-1.357004404E0,8.689680099E-1
2.368727190E1,6.553359330E-2,-1.420220852E0,1.012563705E0
2.370726937E1,5.801481009E-1,-1.531490564E0,7.068462372E-1
2.372726690E1,5.401405692E-2,-1.994998455E0,2.334814072E-1
2.374726443E1,-3.507434428E-1,-1.853992462E0,-1.448993683E-1
2.376726203E1,-5.375733972E-1,-1.627237320E0,-2.387533188E-1
2.378725970E1,-4.779750705E-1,-1.696853876E0,8.790493011E-2
2.380725750E1,-7.395582795E-1,-1.842533588E0,5.924634933E-1
2.382725523E1,-1.015986204E0,-1.418007851E0,7.973327637E-1
2.384725296E1,-5.885372162E-1,-1.157718897E0,8.651905060E-1
2.386725069E1,-1.697698832E-1,-1.324484825E0,5.847864151E-1
2.388724843E1,-2.901325822E-1,-1.414414406E0,1.416244507E-1
2.390724616E1,-2.797318697E-1,-1.296015263E0,-3.640394211E-1
2.392724382E1,-1.324736476E-1,-1.518952370E0,-2.249908447E-2
2.394724156E1,-2.393045425E-1,-1.695844889E0,2.958040237E-1
2.396723922E1,-7.402166128E-1,-8.173985481E-1,2.316284180E-2
2.398723695E1,-6.929535866E-1,-1.164872646E0,4.899826050E-1
2.400723468E1,-7.210098505E-1,-1.594589710E0,5.510549545E-1
2.402723242E1,-1.216761231E0,-1.769768000E0,7.557058334E-1
2.404723008E1,-2.630350590E0,-1.557605028E0,1.297163963E0
2.406722768E1,-2.540782690E0,-7.110435963E-1,1.682356834E0
2.408722522E1,-1.280521631E0,8.121657372E-2,1.077967644E0
2.410722261E1,-1.472817659E0,-9.850463867E-1,6.598958969E-1
2.412722008E1,-2.548317432E0,-1.184819221E0,8.195877075E-3
2.414721755E1,-2.829780579E0,-1.208752871E0,3.993225098E-1
2.416721501E1,-2.082686663E0,-5.972859859E-1,5.497226715E-1
2.418721248E1,-1.073878288E0,-6.681013107E-1,4.854984283E-1
2.420720994E1,-1.011440277E0,-9.304349422E-1,2.206411362E-1
2.422720748E1,-4.947417974E-1,-1.331288815E-1,-2.873640060E-1
2.424720501E1,-5.480792522E-1,-9.328579903E-2,2.684307098E-2
2.426720254E1,-9.080841541E-1,-5.052435398E-1,3.670225143E-1
2.428720001E1,-6.169816256E-1,-5.791497231E-1,-1.178703308E-1
2.430719754E1,1.405066252E-1,-2.922420502E-1,-7.756948471E-1
2.432719500E1,1.278067827E-1,-8.429853916E-1,-6.394824982E-1
2.434719247E1,-5.650070906E-1,-8.177452087E-1,-4.046134949E-1
2.436719000E1,-7.845454216E-1,-7.982254028E-2,-4.838466644E-1
2.438718753E1,-9.419386387E-1,-2.315030098E-1,-1.679267883E-1
2.440718507E1,-1.402304769E0,-7.863740921E-1,-1.263427734E-1
2.442718253E1,-1.381982803E0,-6.451323032E-1,-5.765905380E-1
2.444718006E1,-1.471360564E0,-5.937857628E-1,-6.545648575E-1
2.446717753E1,-2.217414379E0,-7.396395206E-1,-4.460554123E-1
2.448717500E1,-2.892252207E0,-9.320158958E-1,-2.398452759E-1
2.450717246E1,-2.739717484E0,-5.984544754E-1,1.752853394E-1
2.452716993E1,-2.652242184E0,-1.851804256E-1,6.722316742E-1
2.454716733E1,-2.266270638E0,-4.058051109E-2,1.232398987E0
2.456716473E1,-2.105178118E0,1.127097607E-1,1.336230278E0
2.458716222E1,-2.135200024E0,-1.639790535E-1,1.095589638E0
2.460715969E1,-2.041650295E0,-1.062557697E-1,6.421747208E-1
2.462715722E1,-1.684344888E0,4.213356972E-2,7.149887085E-1
2.464715476E1,-1.751006246E0,-6.100130081E-2,8.416900635E-1
2.466715229E1,-1.818533659E0,6.854796410E-2,6.974325180E-1
2.468714975E1,-1.935082436E0,-1.049540043E-1,5.747299194E-1
2.470714722E1,-2.107515574E0,-1.886141300E-1,3.405008316E-1
2.472714475E1,-1.704192042E0,-2.944374084E-2,5.300235748E-2
2.474714228E1,-1.662011027E0,-8.663916588E-2,4.480171204E-2
2.476713982E1,-1.838065147E0,-7.074117661E-2,5.728721619E-3
2.478713728E1,-2.358419895E0,-3.063156605E-1,-1.808242798E-1
2.480713485E1,-2.151964188E0,-3.985409737E-1,-3.233814240E-1
2.482713258E1,-1.847358942E0,-4.551818371E-1,-2.944507599E-1
2.484713005E1,-1.839595079E0,-2.464933395E-1,-1.981973648E-1
2.486712808E1,-1.766775727E0,-1.482987404E-1,1.285381317E-1
2.488712614E1,-1.643541336E0,-1.650743484E-1,2.101707458E-1
2.490712435E1,-1.608798146E0,-3.683114052E-1,3.492355347E-2
2.492712248E1,-1.308455944E0,-4.322166443E-1,-2.381544113E-1
2.494712068E1,-1.252729774E0,-4.259912968E-1,-2.722444534E-1
2.496711881E1,-1.502903223E0,-9.355449677E-2,-2.518672943E-1
2.498711701E1,-1.805505157E0,-3.062741756E-1,1.499376297E-1
2.500711521E1,-2.398418903E0,-8.063292503E-1,8.690748215E-1
2.502711341E1,-2.778227329E0,-8.346717358E-1,1.890851974E0
2.504711154E1,-2.463343143E0,-6.912779808E-2,2.647995949E0
2.506710968E1,-1.667514086E0,3.500189781E-1,2.654871941E0
2.508710788E1,-1.591212511E0,-2.634069920E-1,2.290878296E0
2.510710598E1,-1.953124762E0,-9.478363991E-1,1.630289078E0
2.512710391E1,-1.668083668E0,-6.918933392E-1,8.639450073E-1
2.514710211E1,-1.259374022E0,-8.013992310E-1,7.391777039E-1
2.516709981E1,-1.291426778E0,-1.113501072E0,3.805198669E-1
2.518709737E1,-1.816568375E0,-1.170800209E0,-5.408096313E-2
2.520709477E1,-1.958096266E0,-1.446976185E0,2.925062180E-1
2.522709224E1,-1.746516943E0,-1.471277475E0,3.531179428E-1
2.524708974E1,-1.169927478E0,-1.095417976E0,-1.666641235E-1
2.526708727E1,-2.794643044E-1,-1.103324413E0,-7.910537720E-1
2.528708474E1,-3.729525208E-1,-1.769245625E0,-8.631782532E-1
2.530708227E1,-1.061531782E0,-1.701465845E0,-8.534393311E-1
2.532707973E1,-1.678393602E0,-1.698636770E0,2.058506012E-2
2.534707720E1,-1.071680784E0,-1.910146713E0,5.037050247E-1
2.536707473E1,-7.246321440E-1,-1.612137794E0,-1.540346146E-1
2.538707226E1,-2.207510471E-1,-1.544121027E0,-2.667026520E-1
2.540706980E1,2.516623735E-1,-2.200967312E0,1.958875656E-1
2.542706726E1,-2.805740237E-1,-2.255536556E0,3.992357254E-1
2.544706479E1,-5.344993472E-1,-1.978975058E0,8.581714630E-1
2.546706226E1,2.632087469E-1,-1.426913023E0,1.080251694E0
2.548705979E1,7.473177314E-1,-1.903819561E0,1.113562584E0
2.550705732E1,3.749154806E-1,-2.249362946E0,4.875297546E-1
2.552705486E1,-4.032926261E-1,-2.255369902E0,1.608133316E-1
2.554705229E1,-2.798437178E-1,-2.349366188E0,7.339401245E-1
2.556704969E1,-1.532278955E-1,-2.315682411E0,1.064976692E0
2.558704715E1,-7.004788518E-2,-2.246819258E0,8.940467834E-1
2.560704455E1,8.184494972E-1,-2.106618166E0,6.336126328E-1
2.562704202E1,9.263029099E-1,-2.411883116E0,4.470996857E-1
2.564703952E1,-3.965252340E-1,-2.396886110E0,2.455701828E-1
2.566703705E1,-7.947916985E-1,-2.468852520E0,4.665613174E-1
2.568703452E1,-8.592166305E-1,-2.862208843E0,9.016380310E-1
2.570703198E1,-2.404155284E-1,-2.046469212E0,1.012659073E0
2.572702951E1,5.283541679E-1,-2.238969803E0,1.707717896E0
2.574702765E1,5.199549794E-1,-2.449460030E0,1.620512962E0
2.576702518E1,-4.259761274E-1,-2.625593424E0,1.168114662E0
2.578702264E1,-7.872450352E-1,-2.750507116E0,6.499471664E-1
2.580702018E1,-4.834254682E-1,-3.125518084E0,3.857831955E-1
2.582701764E1,-3.826864958E-1,-3.583392620E0,1.478796005E-1
2.584701511E1,-4.283767343E-1,-3.648049355E0,1.206884384E-1
2.586701264E1,-3.532165885E-1,-3.373812675E0,2.892017365E-1
2.588701017E1,-3.749457598E-1,-3.385444880E0,5.655765533E-1
2.590700777E1,-2.236124575E-1,-3.085566521E0,3.986463547E-1
2.592700557E1,7.501284480E-1,-3.056604147E0,2.241506577E-1
2.594700350E1,1.148932934E0,-2.727206707E0,-8.105278015E-3
2.596700144E1,4.974130392E-1,-3.074546099E0,1.439590454E-1
2.598699957E1,5.158603191E-2,-3.327970028E0,-2.408065796E-1
2.600699770E1,-8.361744881E-2,-3.352595568E0,-4.960718155E-1
2.602699583E1,6.747562885E-1,-3.195914507E0,-4.285678864E-1
2.604699330E1,1.877782822E0,-2.753070116E0,-2.405929565E-1
2.606699136E1,1.926528692E0,-2.759825945E0,1.677818298E-1
2.608698950E1,5.037117004E-1,-2.945638180E0,-1.274328232E-1
2.610698756E1,-3.543193936E-1,-3.140896559E0,-2.368736267E-1
2.612698569E1,-1.194084883E-1,-3.161841869E0,6.289958954E-2
2.614698383E1,1.167715192E0,-2.558802366E0,3.884134293E-1
2.616698196E1,2.013840199E0,-2.676891565E0,6.081466675E-1
2.618698002E1,1.585037112E0,-2.356136322E0,2.807245255E-1
2.620697802E1,2.737159729E-1,-2.707957983E0,7.943916321E-2
2.622697556E1,-1.885735989E-2,-3.217439175E0,7.981014252E-2
2.624697326E1,4.185582399E-1,-3.146028996E0,1.055240631E-2
2.626697086E1,9.841066599E-1,-2.856864214E0,5.062532425E-1
2.628696825E1,1.667309999E0,-2.199991941E0,1.452687263E0
2.630696572E1,1.563572526E0,-1.961462975E0,1.515645027E0
2.632696312E1,1.765603542E0,-1.898307443E0,1.631627083E0
2.634696052E1,2.333739281E0,-1.754449129E0,1.178226471E0
2.636695802E1,1.933265567E0,-1.953123927E0,1.283525467E0
2.638695555E1,1.797932625E0,-1.737971067E0,1.492353439E0
2.640695308E1,1.938197494E0,-1.258379459E0,2.089579582E0
2.642695055E1,2.150573015E0,-1.249823809E0,1.832286835E0
2.644694808E1,2.127728939E0,-1.549801826E0,6.442880630E-1
2.646694554E1,1.417316437E0,-1.968788862E0,-2.200155258E-1
2.648694308E1,1.964056730E0,-1.702742815E0,-2.894372940E-1
2.650694061E1,3.127017498E0,-9.015910625E-1,-8.709716797E-2
2.652693841E1,3.255635738E0,-3.529949784E-1,9.141168594E-1
2.654693587E1,2.179206133E0,-2.986107469E-1,1.188367844E0
2.656693334E1,4.771537781E-1,-4.497904181E-1,4.333820343E-1
2.658693087E1,-2.133577466E-1,-7.474991083E-1,-3.526859283E-1
2.660692834E1,-5.615090132E-1,-9.816865921E-1,-6.695728302E-1
2.662692587E1,-8.795942068E-1,-8.328181505E-1,-3.586034775E-1
2.664692340E1,-1.014065266E0,-8.933231831E-1,2.247753143E-1
2.666692090E1,-7.343333960E-1,-3.356894851E-1,1.004989624E0
2.668691830E1,2.597324550E-3,-4.629738629E-2,1.616026878E0
2.670691570E1,1.048701763E0,2.719138861E-1,1.598768234E0
2.672691317E1,1.436389804E0,3.582139313E-1,8.763675690E-1
2.674691063E1,1.408056974E0,2.773694396E-1,7.818813324E-1
2.676690810E1,1.706569910E0,-3.870263696E-2,6.691007614E-1
2.678690556E1,1.915825248E0,-1.179444343E-1,3.492050171E-1
2.680690310E1,2.236560583E0,-7.413128018E-2,4.277753830E-1
2.682690056E1,2.579080582E0,1.153111756E-1,6.205625534E-1
2.684689809E1,2.493562937E0,3.157961965E-1,7.519159317E-1
2.686689562E1,1.973405838E0,1.722089499E-1,7.576999664E-1
2.688689316E1,1.504698753E0,7.137756050E-2,5.754070282E-1
2.690689069E1,1.202289104E0,2.959240973E-2,3.757820129E-1
2.692688816E1,1.099677205E0,-9.057483077E-2,1.413154602E-1
2.694688569E1,6.961536407E-1,-2.086715102E-1,-1.136474609E-1
2.696688315E1,6.245200038E-1,-1.769790053E-1,-1.389980316E-1
2.698688069E1,3.067639172E-1,-1.056009531E-1,3.484344482E-2
2.700687832E1,6.279343367E-2,7.175241411E-2,6.626234055E-1
2.702687605E1,1.765953302E-1,3.716040254E-1,1.232891083E0
2.704687378E1,4.344114363E-1,2.346584797E-1,1.101790428E0
2.706687152E1,6.360831857E-1,1.548765302E-1,4.656019211E-1
2.708686925E1,3.913328648E-1,1.139654219E-1,6.840515137E-2
2.710686698E1,1.270044446E-1,9.377449751E-3,1.206140518E-1
2.712686471E1,5.409315228E-2,1.139754355E-1,1.219215393E-1
2.714686238E1,-2.744257450E-3,1.892290264E-1,8.932113647E-3
2.716686011E1,-1.875905097E-1,1.518390477E-1,-2.582635880E-1
2.718685778E1,-2.648897171E-1,-1.409038603E-1,-4.835233688E-1
2.720685544E1,-4.914541245E-1,-3.551377356E-1,-7.443866730E-1
2.722685318E1,-5.029709339E-1,-4.343658686E-1,-7.010726929E-1
2.724685091E1,-5.948275328E-2,-1.736990660E-1,-3.802509308E-1
2.726684864E1,3.271767497E-1,6.943076849E-2,2.582807541E-1
2.728684630E1,4.081698358E-1,1.717743576E-1,7.164182663E-1
2.730684394E1,5.706189871E-1,-1.302798092E-2,1.025866508E0
2.732684140E1,1.475870490E0,5.067119002E-2,1.202089310E0
2.734683887E1,2.246558428E0,1.142153740E-1,1.437462807E0
2.736683634E1,2.856591940E0,7.754893601E-2,1.790910721E0
2.738683380E1,3.700567722E0,-1.030402631E-1,1.478269577E0
2.740683127E1,4.429644108E0,-1.967406422E-1,8.293724060E-1
2.742682873E1,4.368623734E0,-2.410132587E-1,7.101955414E-1
2.744682627E1,3.420286655E0,-5.015655756E-1,1.100069046E0
2.746682373E1,2.449869394E0,-6.773077250E-1,1.110483170E0
2.748682126E1,1.773499608E0,-1.123237014E0,1.056253433E0
2.750681880E1,2.097388029E0,-1.158268452E0,1.117412567E0
2.752681633E1,2.500956774E0,-1.282846928E0,9.397125244E-1
2.754681379E1,2.085448980E0,-1.240378737E0,8.910055161E-1
2.756681126E1,1.163847804E0,-1.779218912E0,9.941167831E-1
2.758680879E1,2.917459309E-1,-1.715393424E0,9.008026123E-1
2.760680632E1,2.080061734E-1,-1.928864241E0,5.233211517E-1
2.762680386E1,9.216555953E-1,-2.078455448E0,-5.525112152E-2
2.764680132E1,1.069711804E0,-2.135025978E0,-6.233358383E-1
2.766679885E1,8.877633810E-1,-1.799574137E0,-2.461042404E-1
2.768679632E1,5.175672174E-1,-2.135230064E0,2.797317505E-2
2.770679372E1,1.766129434E-1,-2.002611160E0,3.234882355E-1
2.772679119E1,2.030866891E-1,-1.614167690E0,7.081174850E-1
2.774678865E1,1.913706362E-1,-2.094545364E0,5.182428360E-1
2.776678612E1,3.036832213E-1,-2.764145613E0,-2.136268616E-1
2.778678352E1,2.618163526E-1,-2.679896832E0,-8.967819214E-1
2.780678102E1,1.358529925E-1,-1.795655847E0,4.060831070E-1
2.782677848E1,-5.131063461E-1,-1.489050865E0,1.658432961E0
2.784677601E1,-1.562140584E-1,-2.044383526E0,2.141419411E0
2.786677354E1,1.826513410E-1,-2.062906027E0,1.373245239E0
2.788677108E1,5.135989189E-2,-2.359752417E0,1.688547134E-1
2.790676854E1,-7.127733827E-1,-1.952444553E0,7.316312790E-1
2.792676601E1,-2.386301160E-1,-1.921132565E0,1.574131966E0
2.794676354E1,6.591107249E-1,-2.060965538E0,1.489998817E0
2.796676101E1,1.039316893E0,-1.853659272E0,6.799688339E-1
2.798675854E1,2.523424923E-1,-2.267935276E0,8.085517883E-1
2.800675607E1,-5.314383507E-1,-2.618743181E0,7.073726654E-1
2.802675360E1,-4.352625012E-1,-2.515887022E0,8.767509460E-2
2.804675114E1,-5.931614637E-1,-2.777658939E0,-1.298618317E-1
2.806674894E1,-6.315069795E-1,-2.220586777E0,-5.190944672E-2
2.808674690E1,-5.314323306E-1,-2.602553368E0,2.130851746E-1
2.810674490E1,-4.692264795E-1,-2.415606976E0,7.702732086E-2
2.812674303E1,-2.312666774E-1,-2.122907639E0,2.442789078E-1
2.814674110E1,-8.248159289E-2,-2.236014366E0,5.316190720E-1
2.816673923E1,-3.307299316E-1,-1.843580723E0,8.928537369E-1
2.818673730E1,-7.706906796E-1,-2.005411386E0,1.111357689E0
2.820673536E1,-9.371878505E-1,-2.298403978E0,7.728576660E-1
2.822673350E1,-1.044555783E0,-2.734874964E0,1.138963699E-1
2.824673163E1,-2.265386283E-1,-2.476721048E0,-5.799617767E-1
2.826672976E1,2.926575541E-1,-2.351333380E0,-3.613452911E-1
2.828672783E1,-3.152635694E-1,-2.191951752E0,5.628890991E-1
2.830672596E1,-4.496573806E-1,-2.000506163E0,8.183946609E-1
2.832672402E1,-9.858895540E-1,-2.187871456E0,1.083025932E0
2.834672209E1,-7.462545633E-1,-2.136141062E0,6.974697113E-1
2.836671989E1,-3.057026267E-1,-2.250902414E0,4.573450089E-1
2.838671759E1,-6.555582285E-1,-2.135817766E0,5.850477219E-1
2.840671515E1,-2.649527788E-2,-1.668714046E0,9.007186890E-1
2.842671165E1,2.972826660E-1,-1.736970901E0,1.148113251E0
2.844670912E1,-4.238630533E-1,-1.860370636E0,1.005416870E0
2.846670652E1,-5.624687672E-1,-2.127930164E0,3.118124008E-1
2.848670398E1,-7.633923292E-1,-2.546177626E0,-2.244787216E-1
2.850670145E1,-4.489972591E-1,-2.157530308E0,-1.681241989E-1
2.852669895E1,-2.294450253E-1,-1.870749950E0,1.618843079E-1
2.854669642E1,-4.161914587E-1,-1.695914984E0,9.695510864E-1
2.856669388E1,-2.718359232E-1,-1.214465141E0,1.509661674E0
2.858669141E1,3.564904630E-2,-1.193488359E0,1.366281509E0
2.860668895E1,5.450726748E-1,-1.416235209E0,6.945276260E-1
2.862668648E1,-1.226755083E-1,-2.036324739E0,6.435766220E-1
2.864668394E1,-4.970395565E-1,-1.477956057E0,1.338232994E0
2.866668148E1,4.533677101E-1,-9.325277805E-1,1.910412788E0
2.868667894E1,8.971183300E-1,-1.242151499E0,1.620531082E0
2.870667641E1,-1.129513979E-1,-1.730784893E0,3.045539856E-1
2.872667484E1,-9.119738340E-1,-2.054035187E0,-4.498825073E-1
2.874667237E1,-8.711022735E-1,-1.785299540E0,-2.804889679E-1
2.876666990E1,-4.846096635E-1,-1.680039167E0,5.706052780E-1
2.878666737E1,2.248001099E-2,-1.474626541E0,5.505638123E-1
2.880666490E1,-1.262812614E-1,-1.701472044E0,1.134996414E-1
2.882666233E1,-1.100795269E-1,-1.686481714E0,-5.708570480E-1
2.884665980E1,-6.437015533E-1,-1.883115053E0,-6.678805351E-1
2.886665727E1,-6.111336946E-1,-2.044846535E0,-2.105884552E-1
2.888665473E1,-2.246693373E-1,-1.203880548E0,1.415777206E-1
2.890665213E1,2.967631817E-1,-1.064340830E0,8.907356262E-1
2.892664956E1,-7.428431511E-2,-1.767726421E0,1.507548332E0
2.894664710E1,-9.211291075E-1,-1.713743687E0,1.259066582E0
2.896664456E1,-1.205497742E0,-1.178335905E0,1.031423569E0
2.898664209E1,-1.334021211E0,-1.584128141E0,9.831657410E-1
2.900663963E1,-1.435273051E0,-1.525845766E0,1.043806076E-1
2.902663716E1,-1.817772388E0,-1.716513634E0,-2.537126541E-1
2.904663462E1,-1.374902725E0,-1.600169182E0,2.680091858E-1
2.906663209E1,-1.217292190E0,-1.109532833E0,7.012186050E-1
2.908662962E1,-2.064002514E0,-1.276272535E0,1.511379242E0
2.910662715E1,-2.175223589E0,-8.917214870E-1,1.825252533E0
2.912662469E1,-1.409437418E0,5.508732796E-2,9.000339508E-1
2.914662225E1,-1.084816456E0,-7.629072666E-1,6.100463867E-2
2.916661998E1,-1.980075836E0,-1.563349009E0,-8.334875107E-1
2.918661772E1,-2.538219929E0,-1.604038715E0,-9.283633232E-1
2.920661545E1,-2.165199995E0,-8.108742237E-1,-5.931358337E-1
2.922661322E1,-1.836086512E0,-5.892784595E-1,6.659889221E-2
2.924661095E1,-2.817051888E0,-9.014437199E-1,1.532459259E-1
2.926660868E1,-3.482917309E0,-7.797873020E-1,1.701259613E-2
2.928660635E1,-3.025966883E0,-4.258387089E-1,-1.081981659E-1
2.930660408E1,-3.382951260E0,-5.419311523E-1,1.858291626E-1
2.932660174E1,-3.778724670E0,-7.459228039E-1,2.693347931E-1
2.934659948E1,-4.057077408E0,-3.600330353E-1,4.018363953E-1
2.936659721E1,-3.840657711E0,-9.396791458E-2,4.483251572E-1
2.938659611E1,-3.513280392E0,-3.669025898E-1,3.702478409E-1
2.940659377E1,-3.447049618E0,-4.787726402E-1,1.824598312E-1
2.942659144E1,-3.457368851E0,-3.438193798E-1,2.722148895E-1
2.944658907E1,-2.881075382E0,-2.933781147E-1,7.030363083E-1
2.946658654E1,-2.911125660E0,-1.330416203E-1,6.053361893E-1
2.948658400E1,-3.020530701E0,2.123103142E-1,2.109031677E-1
2.950658147E1,-3.271697760E0,-3.321361542E-2,1.804656982E-1
2.952657894E1,-3.295463085E0,-3.471109867E-1,3.060712814E-1
2.954657634E1,-2.633949757E0,-2.829680443E-1,3.437500000E-1
2.956657380E1,-1.748309612E0,-1.791074276E-1,7.890701294E-2
2.958657133E1,-1.661536455E0,-1.632924080E-1,-8.391952515E-2
2.960656887E1,-2.212934494E0,-4.473145008E-1,-9.959316254E-2
2.962656640E1,-2.849244595E0,-5.944137573E-1,-1.682262421E-1
2.964656386E1,-2.840309143E0,-6.154568195E-1,-1.336259842E-1
2.966656140E1,-2.603601456E0,-7.728705406E-1,1.899719238E-2
2.968655770E1,-2.371802330E0,-7.301115990E-1,-6.775951385E-2
2.970655516E1,-2.075716019E0,-8.022458553E-1,-4.814634323E-1
2.972655269E1,-2.266340733E0,-9.649507999E-1,-8.876247406E-1
2.974655023E1,-2.686271429E0,-1.290467501E0,-9.659767151E-1
2.976654776E1,-2.731349945E0,-1.474586010E0,-6.095275879E-1
2.978654522E1,-2.778826714E0,-1.556215525E0,-3.603029251E-1
2.980654276E1,-2.012143373E0,-1.038633108E0,7.806682587E-1
2.982654022E1,-1.096868634E0,-7.737679482E-1,1.629220009E0
2.984653775E1,-8.557410240E-1,-6.517348289E-1,1.727117538E0
2.986653522E1,-1.055696964E0,-7.230160236E-1,1.517631531E0
2.988653269E1,-1.123198509E0,-1.034440517E0,1.264129639E0
2.990653009E1,-1.612891078E0,-1.244074821E0,1.284110069E0
2.992652748E1,-1.709940314E0,-1.012225389E0,1.612735748E0
2.994652495E1,-1.522252917E0,-1.253634214E0,1.873147011E0
2.996652242E1,-3.917168379E-1,-1.379965305E0,1.396750450E0
2.998651995E1,-8.860492706E-2,-1.282719612E0,7.075033188E-1
3.000651748E1,-6.414943933E-1,-1.661544085E0,8.583784103E-1
3.002651501E1,-1.019917727E0,-1.683223724E0,6.993618011E-1
3.004651248E1,-7.858867645E-1,-1.699795961E0,6.891937256E-1
3.006650994E1,-4.458394051E-1,-1.866427660E0,5.182228088E-1
3.008650748E1,-9.288883209E-1,-1.883770943E0,4.386444092E-1
3.010650501E1,-6.144244671E-1,-2.024384737E0,4.356746674E-1
3.012650254E1,-3.906876445E-1,-2.499138594E0,3.625850677E-1
3.014650001E1,-4.882270098E-1,-2.406163216E0,2.870397568E-1
3.016649754E1,-4.918292165E-1,-2.470189810E0,7.684297562E-1
3.018649507E1,-1.348948479E-1,-2.277983427E0,1.237803459E0
3.020649287E1,7.770746946E-2,-2.146035433E0,1.197220802E0
3.022649084E1,2.143770456E-2,-2.452431917E0,9.792108536E-1
3.024648887E1,7.582545280E-2,-2.764371395E0,4.722328186E-1
3.026648694E1,-1.559157372E-1,-2.992224932E0,1.217050552E-1
3.028648507E1,-1.428968310E-1,-3.119892359E0,2.288980484E-1
3.030648327E1,1.833417714E-1,-2.989742041E0,4.814300537E-1
3.032648140E1,1.760908067E-1,-2.651428699E0,9.879045486E-1
3.034647960E1,1.774167120E-1,-2.670512915E0,1.363366127E0
3.036647780E1,4.579049349E-2,-2.766710997E0,1.134202957E0
3.038647600E1,-1.351975501E-1,-2.878476143E0,8.252544403E-1
3.040647414E1,3.204526007E-1,-3.134401798E0,1.088780403E0
3.042647227E1,2.398501486E-1,-3.230784178E0,1.108098030E0
3.044647047E1,2.383048385E-1,-2.811226606E0,8.677015305E-1
3.046646860E1,4.260436296E-1,-2.771927357E0,1.024241447E0
3.048646673E1,7.649676204E-1,-2.865258455E0,1.032373428E0
3.050646440E1,1.594498307E-1,-3.089087009E0,6.347827911E-1
3.052646216E1,-4.550641179E-1,-3.528061390E0,3.643035889E-1
3.054645980E1,-1.771364510E-1,-3.245509863E0,8.935766220E-1
3.056645733E1,7.808672190E-1,-2.494200945E0,1.583723068E0
3.058645480E1,8.992282152E-1,-2.236705542E0,1.951647758E0
3.060645226E1,2.309698761E-1,-2.590196371E0,1.262211800E0
3.062644980E1,1.500418484E-1,-3.018427610E0,1.498947144E-1
3.064644726E1,3.855394721E-1,-3.145110369E0,-2.698469162E-1
3.066644479E1,1.211678028E0,-2.910162926E0,1.701717377E-1
3.068644226E1,1.068917871E0,-2.733738422E0,9.247741699E-1
3.070643973E1,3.665736914E-1,-2.703143835E0,8.778343201E-1
3.072643726E1,1.588229537E-1,-3.369300842E0,-6.470203400E-2
3.074643386E1,4.635324478E-1,-3.628026962E0,-3.686056137E-1
3.076643139E1,2.724553347E-1,-3.163285494E0,2.460193634E-1
3.078642885E1,5.766458511E-1,-3.054633617E0,8.960266113E-1
3.080642565E1,5.829994678E-1,-3.201168537E0,8.198938370E-1
3.082642312E1,9.140641689E-1,-2.963029146E0,6.362991333E-1
3.084642065E1,9.307175875E-1,-2.873429537E0,7.935466766E-1
3.086641818E1,8.773686886E-1,-2.808574200E0,1.189769745E0
3.088641572E1,9.070611000E-1,-2.636276245E0,1.306211472E0
3.090641318E1,9.470355511E-1,-2.570851326E0,1.096543312E0
3.092641058E1,6.588259935E-1,-2.474748135E0,1.269289970E0
3.094640805E1,8.124438524E-1,-2.350973129E0,1.244883537E0
3.096640545E1,2.007146358E0,-2.070277214E0,1.141724586E0
3.098640291E1,2.388503313E0,-2.105826855E0,8.720674515E-1
3.100640038E1,1.653022051E0,-2.242234945E0,6.111221313E-1
3.102639788E1,1.224243879E0,-2.572141647E0,1.955347061E-1
3.104639628E1,8.086163998E-1,-2.516080618E0,-1.851778030E-1
3.106639374E1,6.944990158E-1,-2.477205038E0,2.007770538E-1
3.108639127E1,1.635401487E0,-2.341291904E0,3.146400452E-1
3.110638974E1,2.793538570E0,-1.333299637E0,5.329561234E-1
3.112638727E1,2.988889456E0,-7.138093114E-1,6.850481033E-1
3.114638474E1,2.010228634E0,-1.309340000E0,9.077444077E-1
3.116638227E1,1.865150690E0,-1.257164240E0,6.194448471E-1
3.118637974E1,1.958322644E0,-8.593314886E-1,7.566204071E-1
3.120637720E1,3.009280205E0,-1.846244931E-1,1.319617271E0
3.122637473E1,3.295879841E0,2.568637133E-1,2.157231331E0
3.124637227E1,2.515702963E0,1.052397490E-1,1.471972466E0
3.126636980E1,1.780159235E0,-6.163656712E-2,5.602369308E-1
3.128636743E1,1.113839626E0,-2.348338962E-1,-2.785301208E-2
3.130636530E1,9.730116129E-1,-7.848337889E-1,-1.527967453E-1
3.132636276E1,8.965785503E-1,-9.042385221E-1,3.691196442E-2
3.134636076E1,6.906946301E-1,-5.085352659E-1,4.718275070E-1
3.136635890E1,3.744596243E-1,-2.624194920E-1,1.000497818E0
3.138635703E1,5.328166485E-1,-3.565341234E-2,1.131683350E0
3.140635509E1,7.883412838E-1,-9.431728721E-2,7.762689590E-1
3.142635316E1,1.514819145E0,-5.342721939E-3,2.449798584E-1
3.144635129E1,1.551962495E0,2.699980140E-2,1.792192459E-1
3.146634936E1,1.294031382E0,2.614364028E-2,7.967166901E-1
3.148634749E1,1.484137058E0,5.312666297E-2,7.854013443E-1
3.150634562E1,1.583857656E0,3.961050510E-1,8.658027649E-1
3.152634375E1,1.628218889E0,3.849112988E-1,1.039916992E0
3.154634182E1,1.467069626E0,1.952204257E-1,7.740011215E-1
3.156633988E1,1.198995948E0,1.851064116E-1,2.480287552E-1
3.157633998E1,1.218396902E0,2.465772480E-1,1.385602951E-1
3.159633785E1,1.317307711E0,8.342024684E-2,-1.710424423E-1
3.161633598E1,8.910305500E-1,-2.273238301E-1,-5.908794403E-1
3.163633362E1,3.381094933E-1,-2.070837617E-1,-7.125253677E-1
3.165633108E1,8.679850399E-2,-1.034197211E-2,-1.581373215E-1
3.167632848E1,5.620209873E-2,7.705166936E-2,3.077068329E-1
3.169632505E1,1.133660823E-1,1.578601897E-1,1.687088013E-1
3.171632245E1,-2.360980213E-2,1.099922359E-1,1.019763947E-1
3.173631991E1,-5.642907619E-1,-1.093615443E-1,-1.012840271E-1
3.175631744E1,-5.731028318E-1,-5.760045350E-2,-6.794071198E-2
3.177631498E1,-5.214533210E-1,8.548080921E-3,4.148483276E-2
3.179631244E1,-2.392391115E-1,1.306962818E-1,2.249603271E-1
3.181630991E1,-2.143825293E-1,3.115174770E-1,5.761928558E-1
3.183630847E1,-1.329373717E-1,4.217046499E-1,5.973834991E-1
3.185630601E1,-1.001321450E-1,1.244388372E-1,1.761512756E-1
3.187630247E1,-1.490629017E-1,-1.069726050E-1,-4.147129059E-1
3.189629994E1,-3.197114915E-2,-1.769031435E-1,-4.097518921E-1
3.191629747E1,6.527569145E-2,5.317279696E-2,-1.275615692E-1
3.193629494E1,2.012344301E-1,1.820600331E-1,2.765846252E-1
3.195629247E1,2.771255076E-1,1.984223127E-1,4.894266129E-1
3.197629000E1,3.655057251E-1,1.947227865E-1,2.501335144E-1
3.199628843E1,4.151920378E-1,-1.244375855E-1,-1.085395813E-1
3.201628596E1,5.441603661E-1,-2.600459754E-1,-4.551887512E-1
3.203628343E1,7.112840414E-1,-6.132173538E-2,-3.426275253E-1
3.205628090E1,8.543661833E-1,1.787677109E-1,3.870353699E-1
3.207627830E1,1.446163058E0,3.219769299E-1,7.552957535E-1
3.209627576E1,1.568801284E0,2.940919995E-1,6.022338867E-1
3.211627323E1,1.563379526E0,1.343353391E-1,1.744222641E-1
3.213626966E1,1.069849849E0,-2.309823334E-1,4.609394073E-2
3.215626669E1,1.209759116E0,-2.641765475E-1,1.690273285E-1
3.217626416E1,1.632331371E0,1.474627554E-1,5.239248276E-1
3.219626169E1,1.848529339E0,2.871068418E-1,8.356609344E-1
3.221625922E1,2.346611261E0,3.141122162E-1,7.916650772E-1
3.223625676E1,1.954704881E0,-1.616071463E-1,2.920913696E-1
3.225625392E1,1.301568508E0,-6.171860695E-1,-2.975769043E-1
3.227625145E1,1.043129683E0,-6.852948070E-1,-1.528854370E-1
3.229624892E1,1.463013768E0,-3.058649004E-1,1.413145065E-1
3.231624638E1,1.883634806E0,5.207729340E-2,6.384038925E-1
3.233624392E1,1.807762980E0,-7.114613056E-2,6.243629456E-1
3.235624145E1,1.468001366E0,-2.906082273E-1,1.557083130E-1
3.237623905E1,1.239317298E0,-3.575019240E-1,1.700296402E-1
3.239623672E1,8.608697057E-1,-3.383808732E-1,4.409275055E-1
3.241623452E1,9.389130473E-1,-3.786777854E-1,2.480525970E-1
3.243623225E1,1.204475522E0,-5.256801844E-1,4.588603973E-2
3.245623041E1,9.585103989E-1,-8.720071316E-1,7.339191437E-2
3.247622815E1,7.823626995E-1,-7.392608523E-1,1.844244003E-1
3.249622588E1,8.809275627E-1,-9.030908346E-1,4.503173828E-1
3.251622354E1,7.659292817E-1,-1.166185141E0,3.336601257E-1
3.253622121E1,3.077520132E-1,-9.959184527E-1,6.507587433E-1
3.255621924E1,2.420989871E-1,-9.331572056E-1,9.806909561E-1
3.257621664E1,6.846266389E-1,-6.986688375E-1,1.155178070E0
3.259621437E1,7.704960108E-1,-6.613909006E-1,1.219742775E0
3.261621211E1,4.564668536E-1,-7.992383242E-1,9.767885208E-1
3.263620984E1,3.314982653E-1,-1.184884787E0,1.044271469E0
3.265620750E1,4.592482150E-1,-1.248930931E0,1.611061096E-1
3.267620490E1,9.959974289E-1,-1.389739871E0,-4.532365799E-1
3.269620244E1,7.390059233E-1,-6.756291389E-1,6.286439896E-1
3.271620104E1,-6.878091395E-2,-5.737179518E-1,1.658505440E0
3.273619850E1,2.587090135E-1,-1.330951810E0,9.013471603E-1
3.275619590E1,3.638855517E-1,-1.728163242E0,-9.900426865E-1
3.277619340E1,3.570286036E-1,-1.799588799E0,-1.471431732E0
3.279619086E1,2.496075630E-2,-1.118103504E0,4.407882690E-3
3.281618833E1,-1.173098385E-1,-1.517057538E0,9.551315308E-1
3.283618586E1,-2.215924859E-1,-1.679424524E0,-5.053596497E-1
3.285618340E1,-1.418951154E-2,-1.911389112E0,-1.793878078E0
3.287618119E1,-6.098386645E-2,-1.730392933E0,-1.043457985E0
3.289617866E1,-1.866300702E-1,-7.838627100E-1,7.629766464E-1
3.291617619E1,-2.997701764E-1,-7.939690351E-1,1.726473808E0
3.293617366E1,-2.076904774E-1,-1.125412107E0,7.587795258E-1
3.295617119E1,-4.565840364E-1,-1.554380774E0,-5.859498978E-1
3.297616892E1,-6.131284833E-1,-1.532230377E0,-5.450515747E-1
3.299616645E1,-4.258636832E-1,-5.837092400E-1,1.005717278E0
3.301616279E1,-3.637873530E-1,-5.175940990E-1,1.730944633E0
3.303616025E1,-4.357010126E-1,-9.532148838E-1,5.640420914E-1
3.305615778E1,-4.733526707E-1,-1.208089828E0,-6.731901169E-1
3.307615522E1,-6.411717534E-1,-1.517630100E0,-8.916969299E-1
3.309615295E1,-5.258859396E-1,-1.217489123E0,-4.243583679E-1
3.311615042E1,-8.424897790E-1,-8.766102791E-1,1.269378662E-1
3.313614788E1,-1.589100122E0,-9.607594013E-1,4.869327545E-1
3.315614528E1,-2.027088165E0,-9.610779285E-1,2.219800949E-1
3.317614272E1,-2.053611517E0,-1.269863725E0,-8.653631210E-1
3.319614025E1,-1.766968250E0,-1.009696603E0,-1.353230476E0
3.321613778E1,-2.120228052E0,-7.851879597E-1,-3.188982010E-1
3.323613531E1,-2.289731026E0,-4.575846195E-1,2.810068130E-1
3.325613278E1,-1.940864325E0,-2.915780544E-1,9.648513794E-2
3.327613031E1,-1.578400612E0,-6.097197533E-2,-4.053621292E-1
3.329612778E1,-1.570491076E0,-3.080685139E-1,-5.874376297E-1
3.331612524E1,-2.274015903E0,-3.910393715E-1,-5.198802948E-1
3.333612277E1,-2.293012142E0,-1.943931580E-1,-4.824972153E-1
3.335612031E1,-1.327659011E0,2.707998753E-1,-4.550733566E-1
3.337611784E1,-7.700047493E-1,4.503347874E-1,-8.584022522E-2
3.339611504E1,-6.513671875E-1,3.937649727E-1,-1.644515991E-2
3.341611260E1,-2.856006324E-1,4.022519588E-1,-2.254104614E-1
3.343611034E1,-4.773079455E-1,3.132116795E-1,-4.216003418E-1
3.345610827E1,-1.085584521E0,-6.244468689E-2,-3.424530029E-1
3.347610627E1,-1.136941433E0,6.675720215E-2,-2.808694839E-1
3.349610433E1,-6.528910398E-1,8.201646805E-2,-2.223072052E-1
3.351614434E1,-7.223726511E-1,-1.816201210E-2,-3.642320633E-1
3.353614241E1,-8.620463610E-1,-7.775354385E-2,-2.278060913E-1
3.355614054E1,-7.602059245E-1,1.138894558E-1,-5.157089233E-2
3.357613860E1,-8.288633823E-1,3.876519203E-2,3.379821777E-3
3.359613674E1,-9.949919581E-1,7.206010818E-2,-6.541252136E-2
3.361613454E1,-1.169618845E0,-2.289438248E-1,-5.276679993E-3
3.363613267E1,-1.238375425E0,-3.111462593E-1,-2.669401169E-1
3.365613073E1,-7.876005173E-1,-1.221165657E-1,-3.925189972E-1
3.367612880E1,-3.873090446E-1,2.559268475E-1,-1.869869232E-2
3.369612693E1,-4.189267159E-1,2.565219402E-1,1.461162567E-1
3.371612503E1,-1.242503524E-1,3.500399590E-1,4.034137726E-2
3.373612290E1,-9.962372482E-2,2.304801941E-1,-4.793043137E-1
3.375612056E1,-8.891727030E-2,8.901166916E-2,-7.127504349E-1
3.377611820E1,-2.091398984E-1,-1.631669998E-1,-7.813396454E-1
3.379611566E1,-3.514167070E-1,-3.436231613E-2,-7.797193527E-1
3.381611306E1,-5.818992853E-1,7.956671715E-2,-7.651920319E-1
3.383611053E1,-5.768392086E-1,-1.643157005E-2,-6.130437851E-1
3.385610799E1,-3.100083470E-1,1.281285286E-1,-6.134548187E-1
3.387610546E1,-1.675325930E-1,2.628631592E-1,-6.420755386E-1
3.389610289E1,-2.189137042E-2,4.270682335E-1,-5.471000671E-1
3.391610076E1,-1.513039321E-1,3.734669685E-1,-5.830698013E-1
3.393609822E1,-1.246989220E-1,9.600901604E-2,-5.877761841E-1
3.395609576E1,1.129281670E-1,1.529543400E-1,-7.081832886E-1
3.397609329E1,1.067173332E-1,1.118230820E-1,-1.067629814E0
3.399609082E1,3.272501528E-1,1.945817471E-1,-1.082175255E0
3.401608828E1,2.745587826E-1,3.364219666E-1,-7.548589706E-1
3.403608575E1,2.475990951E-1,1.973414421E-2,-4.059715271E-1
3.405608328E1,7.408478856E-2,-2.536737919E-1,-1.136290550E0
3.407608075E1,-6.885996461E-2,-1.589176655E-1,-1.318692207E0
3.409607828E1,-1.735129952E-1,5.997180939E-2,-9.342012405E-1
3.411607581E1,2.261975557E-1,2.985088825E-1,-4.123353958E-1
3.413607334E1,2.229369432E-1,1.369121075E-1,-3.440542221E-1
3.415607081E1,-1.688740849E-1,-1.594638824E-2,-7.631559372E-1
3.417606828E1,-4.333557785E-1,-3.646409512E-1,-6.848363876E-1
3.419606578E1,-8.244783431E-2,-2.178883553E-1,-6.002912521E-1
3.421606324E1,-9.681714326E-2,-1.237790585E-1,-6.022987366E-1
3.423606071E1,-3.684414923E-1,2.441519499E-1,-1.621932983E-1
3.425605811E1,-5.001207590E-1,4.160923958E-1,5.527305603E-1
3.427605557E1,-4.470763206E-1,3.176668882E-1,6.991901398E-1
3.429605297E1,-2.078183591E-1,1.522229910E-1,3.306903839E-1
3.431605044E1,1.863989234E-2,-1.655321121E-1,-4.610338211E-1
3.433604797E1,1.898348927E-1,-1.588575840E-1,-5.653820038E-1
3.435604550E1,3.768215328E-2,1.735422611E-1,-3.645696640E-1
3.437604303E1,5.825236067E-2,4.062700272E-1,-1.118650436E-1
3.439604050E1,2.725462019E-1,6.480352879E-1,-2.175312042E-1
3.441603803E1,2.202018201E-1,-2.683782578E-2,1.503067017E-1
3.443603550E1,-2.233770788E-1,-3.617926836E-1,-1.093940735E-1
3.445603303E1,-7.569317520E-2,3.519649506E-1,-3.988628387E-1
3.447603056E1,-9.750840813E-2,8.912277222E-2,-1.844539642E-1
3.449602809E1,-3.140388429E-1,8.286595345E-2,3.977775574E-3
3.451602563E1,-5.863997340E-1,9.283399582E-2,9.953689575E-2
3.453602329E1,8.191307634E-2,5.030870438E-1,1.117019653E-1
3.455602109E1,8.175138831E-1,5.799083710E-1,4.397487640E-2
3.457601883E1,4.328737557E-1,1.126358509E-1,2.776908875E-2
3.459601663E1,-3.736548126E-1,-2.649761438E-1,-7.717933655E-1
3.461601436E1,-8.620004058E-1,-5.383099318E-1,-1.191923141E0
3.463601209E1,-1.711812019E-1,-2.825140953E-1,-7.830781937E-1
3.465600976E1,5.377671719E-1,2.567921877E-1,-7.174491882E-3
3.467600742E1,1.230426788E0,6.893649101E-1,4.006624222E-1
3.469600515E1,9.483283758E-1,8.004546165E-2,6.595134735E-2
3.471600289E1,-1.967264414E-1,-5.351647139E-1,-4.208984375E-1
3.473600062E1,-7.307514548E-1,-7.550233603E-1,-5.872116089E-1
3.475599828E1,-5.675135851E-1,-5.034472942E-1,-3.379383087E-1
3.477599602E1,1.015035212E-1,8.642649651E-2,1.317558289E-1
3.479599368E1,8.647496700E-1,1.568526030E-1,5.345201492E-1
3.481599128E1,9.176787138E-1,1.952025890E-1,3.089475632E-1
3.483598881E1,-1.000821292E-1,-2.438510656E-1,1.225681305E-1
3.485598628E1,-3.875240982E-1,-3.740421534E-1,-1.240701675E-1
3.487598375E1,-8.335715532E-2,-1.397370100E-1,1.119565964E-1
3.489598114E1,2.876732945E-1,-2.176952362E-2,1.098279953E-1
3.491597861E1,7.980555296E-1,-1.654901505E-1,3.838100433E-1
3.493597608E1,9.299999475E-1,2.714345455E-1,6.085834503E-1
3.495597361E1,8.196089268E-1,3.898339272E-1,7.144899368E-1
3.497597114E1,5.561466217E-1,8.741319180E-2,4.221429825E-1
3.499596867E1,7.013085485E-2,9.469342232E-2,3.085947037E-1
3.501596614E1,5.672538280E-2,9.223508835E-2,3.899250031E-1
3.503596360E1,3.077550232E-1,-1.043081284E-2,1.261463165E-1
3.505596114E1,4.855983555E-1,-2.486054897E-1,-9.239387512E-2
3.507595860E1,2.632596493E-1,-2.513055801E-1,-2.246866226E-1
3.509595614E1,2.533229589E-1,-5.950319767E-2,-9.568881989E-2
3.511595367E1,2.515441775E-1,1.412321329E-1,-1.022033691E-1
3.513595120E1,3.821636736E-1,1.524461508E-1,5.445766449E-2
3.515594867E1,5.710973144E-1,9.275054932E-2,1.090202332E-1
3.517594613E1,5.654316545E-1,-1.429862976E-1,7.452297211E-2
3.519594366E1,1.035049558E-1,-5.144156218E-1,9.969711304E-3
3.521594120E1,1.257109940E-1,-3.582975268E-1,-6.538963318E-2
3.523593866E1,4.499686956E-1,-6.765007973E-3,-2.339086533E-1
3.525593606E1,1.965777874E-1,-1.889970899E-1,-2.743816376E-1
3.527593353E1,3.953897953E-2,-2.687723041E-1,-3.832817078E-1
3.529593092E1,1.853558421E-1,-2.969106436E-1,-1.898460388E-1
3.531592799E1,4.099801183E-2,-2.942680120E-1,1.154680252E-1
3.533592549E1,-5.058014393E-2,-3.585567474E-1,-5.732727051E-2
3.535592302E1,1.146117151E-1,-2.692178488E-1,1.442975998E-1
3.537592055E1,-1.016514003E-1,-9.566363692E-2,3.305902481E-1
3.539591802E1,-3.219474256E-1,-1.177990735E-1,3.960437775E-1
3.541591555E1,-3.909618855E-1,-1.515477896E-3,5.774784088E-1
3.543591302E1,-1.439023018E-1,-2.962587178E-1,5.184192657E-1
3.545591055E1,-2.102974951E-1,-5.119521618E-1,4.891328812E-1
3.547590808E1,-7.100576162E-2,-5.080179572E-1,1.487350464E-1
3.549590561E1,-1.087875962E-1,-4.567877650E-1,1.838960648E-1
3.551590308E1,-5.327059627E-1,-4.920521080E-1,2.548036575E-1
3.553590055E1,-3.290722370E-1,-1.475000232E-1,2.685279846E-1
3.555589811E1,-1.345919371E-1,-1.080346256E-1,4.791650772E-1
3.557589585E1,-9.157907963E-2,1.721099913E-1,7.477226257E-1
3.559589378E1,-2.794799209E-1,2.738935053E-1,7.245540619E-1
3.561589214E1,-4.005212188E-1,3.315620422E-1,8.260669708E-1
3.563589021E1,-3.480868936E-1,1.879723221E-1,6.190357208E-1
3.565588834E1,-4.275830388E-1,1.424433291E-2,3.283710480E-1
3.567588648E1,-6.220287681E-1,-1.570620090E-1,2.572460175E-1
3.569588468E1,-7.242274284E-1,-9.489914775E-2,3.415307999E-1
3.571588288E1,-9.410359263E-1,-1.965743303E-1,3.567276001E-1
3.573588108E1,-4.137287736E-1,-4.446779788E-1,-4.702663422E-2
3.575587921E1,-1.426411271E-1,-4.451617897E-1,-3.018608093E-1
3.577587741E1,-5.928814411E-3,2.770395577E-1,-3.424797058E-1
3.579587554E1,-1.203289032E-1,-4.892689735E-2,-2.552509308E-2
3.581587367E1,7.669973373E-2,-1.566361338E-1,-5.386447906E-2
3.583587187E1,4.159678519E-1,-1.194976419E-1,4.391384125E-2
3.585587004E1,2.807382941E-1,-4.587611556E-2,-9.237480164E-2
3.587586797E1,6.386953592E-2,-9.202970564E-2,-2.038955688E-2
3.589586571E1,1.732528210E-2,-1.407516897E-1,6.495475769E-3
3.591586340E1,1.940751076E-2,-2.787606418E-1,-3.105030060E-1
3.593586097E1,-1.369755864E-1,-4.269483387E-1,-2.320690155E-1
3.595585844E1,-3.042179346E-2,-5.803164840E-2,6.205368042E-2
3.597585590E1,1.943916082E-1,3.700495362E-1,7.398710251E-1
3.599585340E1,6.006180048E-1,5.433698893E-1,9.221410751E-1
3.601585077E1,2.962161303E-1,3.252290487E-1,9.493532181E-1
3.603584823E1,1.398181319E-1,4.376407564E-1,9.618539810E-1
3.605584576E1,3.822689354E-1,6.229153872E-1,6.986112595E-1
3.607584323E1,2.197946310E-1,4.404618144E-1,9.923667908E-1
3.609584076E1,-3.574578762E-1,1.379032433E-1,7.532711029E-1
3.611583830E1,-6.816293597E-1,1.951947212E-1,3.099079132E-1
3.613583583E1,-3.694735169E-1,4.416701794E-1,2.097759247E-1
3.615583329E1,-1.424300075E-1,4.542256892E-1,3.762884140E-1
3.617583076E1,-5.835992098E-2,7.666564584E-1,8.448801041E-1
3.619582829E1,1.427313685E-1,1.016089082E0,6.227502823E-1
3.621582582E1,-2.897797823E-1,1.778720021E-1,2.249794006E-1
3.623582336E1,-3.302021623E-1,-4.401836097E-1,1.686830521E-1
3.625582082E1,2.358241677E-1,-2.058521211E-1,4.338808060E-1
3.627581835E1,8.431558609E-1,4.367066920E-1,1.016645432E0
3.629581579E1,8.245863914E-1,5.717591643E-1,1.396823883E0
3.631581329E1,5.036298037E-1,4.937345982E-1,9.761457443E-1
3.633581075E1,3.413577974E-1,2.354629934E-1,4.787559509E-1
3.635580822E1,6.567752361E-2,1.989019662E-1,-7.024192810E-2
3.637580568E1,-2.188537717E-1,2.778474092E-1,-3.421993256E-1
3.639580312E1,1.306427419E-1,3.783104420E-1,5.923843384E-2
3.641580065E1,1.348032355E-1,3.815498948E-1,1.373052597E-1
3.643579811E1,-9.257549047E-2,7.596957684E-2,-4.786634445E-1
3.645579565E1,-1.359581351E-1,2.536706924E-1,-9.191493988E-1
3.647579318E1,2.879239619E-1,5.675594807E-1,-1.559534073E-1
3.649579071E1,5.362611413E-1,7.062252760E-1,4.913043976E-1
3.651578818E1,1.418596506E-2,4.494531453E-2,7.451419830E-1
3.653578564E1,-3.661204576E-1,-7.198050618E-3,-1.913127899E-1
3.655578317E1,-3.902841210E-1,8.617715538E-2,2.021789551E-2
3.657578064E1,-2.442652583E-1,1.550409198E-2,6.540155411E-1
3.659577817E1,-3.726603985E-1,-3.581455350E-2,6.076126099E-1
3.661577570E1,-3.176951408E-1,5.627438426E-2,1.126327515E-1
3.663577324E1,-9.983879328E-2,8.257390559E-2,7.258682251E-1
3.665577077E1,1.960525215E-1,9.272769094E-2,6.238222122E-1
3.667576857E1,1.921342611E-1,1.966015399E-1,6.554403305E-1
3.669576650E1,-7.276296616E-3,-4.402691126E-2,5.668125153E-1
3.671576447E1,-3.897719383E-1,-2.676607966E-1,3.657360077E-1
3.673576260E1,-1.861814260E-1,-1.881919801E-1,2.320375443E-1
3.675576067E1,-1.373687983E-1,-1.637806296E-1,2.606410980E-1
3.677575880E1,-5.546760559E-2,-1.523076594E-1,1.382598877E-1
3.679575686E1,3.145730495E-2,1.303683966E-1,7.347202301E-2
3.681575493E1,2.922331095E-1,2.266816795E-1,3.926372528E-2
3.683575306E1,4.096242189E-1,1.806101799E-1,3.088102341E-1
3.685575119E1,3.205110133E-1,1.366400719E-2,1.934289932E-1
3.687574932E1,4.586096406E-1,1.843177229E-1,-3.372001648E-2
3.689574739E1,3.638011217E-1,2.527399957E-1,1.921367645E-2
3.691574552E1,2.502046227E-1,5.182269216E-2,-8.347797394E-2
3.693574359E1,-1.664718986E-1,-2.003304362E-1,-3.031578064E-1
3.695574166E1,-4.034513235E-1,-2.182711661E-1,-5.256652832E-3
3.697573945E1,-2.422122955E-1,3.037943244E-1,3.074216843E-1
3.699573715E1,5.813936591E-1,1.177767038E0,6.896238327E-1
3.701573472E1,7.420220971E-1,1.039278746E0,9.062461853E-1
3.703573212E1,3.222058415E-1,5.740048885E-1,4.728641510E-1
3.705572958E1,-1.763628721E-1,2.968996763E-3,-4.064178467E-2
3.707572698E1,-3.594667912E-1,-3.308627307E-1,-1.779775620E-1
3.709572445E1,-3.229138851E-1,-3.262575567E-1,-1.732482910E-1
3.711572195E1,-1.570212245E-1,-3.013389409E-1,-5.049800873E-2
3.713571948E1,-3.110373020E-2,-1.688891649E-1,-6.415176392E-2
3.715571695E1,6.124868989E-2,-9.959965944E-2,1.527118683E-2
3.717571441E1,1.020507216E-1,2.288487554E-2,1.208801270E-1
3.719571194E1,2.084197700E-1,-2.364328504E-2,-2.047729492E-2
3.721570948E1,8.272460103E-2,-7.437905669E-2,-4.023838043E-2
3.723570701E1,-1.601163745E-1,-4.679566622E-2,-1.462945938E-1
3.725570447E1,3.583264351E-2,-3.788813949E-2,-1.208524704E-1
3.727570201E1,-1.642991304E-1,-3.075362146E-1,3.795051575E-2
3.729569947E1,-4.175252318E-1,-1.965461075E-1,-1.045827866E-1
3.731569700E1,-6.798470020E-2,-1.450454593E-1,-3.371963501E-1
3.733569454E1,2.591729164E-2,-7.066294551E-2,-4.767131805E-2
3.735569207E1,1.310189366E-1,3.952767849E-1,2.299489975E-1
3.737568960E1,2.493881583E-1,4.695682824E-1,2.966156006E-1
3.739568707E1,1.653619707E-1,3.982976973E-1,5.668544769E-2
3.741568456E1,3.985044360E-2,2.090338469E-1,7.084560394E-2
3.743568196E1,1.837745011E-1,1.103837192E-1,-1.635541916E-1
3.745567943E1,1.432919800E-1,-4.238453507E-2,5.677318573E-2
3.747567690E1,7.291290164E-2,6.264150143E-4,2.109909058E-2
3.749567436E1,1.434912384E-1,-2.815479040E-2,8.118057251E-2
3.751567176E1,9.203761816E-3,1.725018919E-1,2.420434952E-1
3.753566923E1,-1.187550426E-1,2.664072514E-1,3.025245667E-1
3.755566676E1,-1.226212680E-1,1.689710319E-1,-3.714466095E-2
3.757566429E1,-3.812351823E-1,-8.934581280E-2,3.379478455E-1
3.759566182E1,-8.054199219E-1,-3.002319336E-1,-2.173328400E-2
3.761565929E1,-1.384021342E-1,1.312398911E-1,1.126194000E-1
3.763565682E1,-4.770332873E-1,3.543179333E-1,-3.231811523E-1
3.765565429E1,-3.138614595E-1,2.285719961E-1,-6.471443176E-2
3.767565175E1,-5.714711547E-2,4.723580778E-1,-8.820819855E-2
3.769564928E1,7.701224089E-2,6.639335752E-1,8.468341827E-2
3.771564682E1,-2.782660723E-2,8.430385590E-1,1.166610718E-1
3.773564435E1,5.272814035E-1,9.058485627E-1,-8.315563202E-2
3.775564192E1,1.183318496E0,3.788432479E-1,1.713737488E0
3.777563965E1,8.924181759E-2,1.264820695E-1,2.699785233E-1
3.779563738E1,4.942663014E-2,1.425952911E-1,7.019805908E-2
3.781563518E1,3.542358279E-1,3.763193488E-1,1.245431900E-1
3.783563291E1,4.438485503E-1,5.046405792E-1,8.092403412E-2
3.785563065E1,3.956039250E-1,4.507316947E-1,4.222774506E-2
3.787562831E1,1.343873441E-1,3.257716596E-1,-1.041059494E-1
3.789562598E1,5.263856649E-1,1.673886776E-1,5.037612915E-1
3.791562371E1,6.757643074E-2,5.832799077E-1,2.247810364E-2
3.793562138E1,-1.661654860E-1,5.051321983E-1,7.271862030E-2
3.795561911E1,-2.205620855E-1,4.898491204E-1,5.349731445E-2
3.797561684E1,-2.575924397E-1,3.900032341E-1,2.233791351E-2
3.799561457E1,-4.921095073E-1,5.822674185E-2,-1.599407196E-2
3.801561224E1,-2.396245152E-1,2.435300350E-1,1.539802551E-1
3.803560990E1,-3.334682584E-1,-2.257516980E-1,-8.308506012E-2
3.805560754E1,-1.801730096E-1,-1.454737484E-1,-3.281307220E-2
3.807560507E1,4.586295038E-2,-1.935823858E-1,1.507472992E-2
3.809560254E1,1.183189824E-1,-4.571660757E-1,7.892608643E-3
3.811559993E1,-1.275742054E-2,-7.467170358E-1,2.465724945E-2
3.813559740E1,2.594682574E-2,-7.723776102E-1,3.903007507E-2
3.815559487E1,1.277501434E-1,-5.679900646E-1,2.467727661E-2
3.817559233E1,1.820841432E-2,1.008996069E-1,1.750373840E-2
3.819558986E1,1.579166576E-2,1.062016338E-1,3.426837921E-2
3.821558740E1,1.415349543E-3,9.957421571E-2,2.469635010E-2
3.823558493E1,1.344829425E-2,9.749028087E-2,1.991081238E-2
3.825558239E1,1.588886604E-2,1.143656299E-1,1.991176605E-2
3.827557993E1,3.134540096E-2,9.613978863E-2,1.989364624E-2
3.829557739E1,1.909591258E-3,9.187014401E-2,3.179836273E-2
3.831557492E1,-2.574954182E-3,8.747831732E-2,3.172492981E-2
3.833557246E1,-3.368746489E-3,6.746195257E-2,3.644847870E-2
3.835556999E1,6.825514138E-4,7.896402478E-2,2.921295166E-2
3.837556745E1,-4.504077137E-3,4.748967290E-2,4.114341736E-2
3.839556492E1,-1.876538992E-2,5.331203341E-2,3.872489929E-2
3.841556245E1,9.972713888E-3,4.776716977E-2,1.715946198E-2
3.843555992E1,-3.720819950E-5,2.378874272E-2,2.911949158E-2
3.845555738E1,1.667566597E-3,3.243303671E-2,2.911281586E-2
3.847555485E1,1.536138915E-2,3.484233096E-2,3.868675232E-2
3.849555232E1,-2.151031047E-3,2.823966742E-2,3.150272369E-2
3.851554972E1,-2.125512809E-3,1.226588245E-2,2.432250977E-2
3.853554711E1,4.431642592E-4,-2.640900202E-3,3.150939941E-2
3.855554461E1,-2.108986676E-2,-1.665524393E-2,3.869438171E-2
3.857554214E1,1.119173691E-2,-1.092281751E-2,-1.157760620E-2
3.859553968E1,2.540048398E-2,-1.086391509E-2,1.057395935E-1
3.861553714E1,-8.704140782E-5,7.711425424E-3,4.587841034E-2
3.863553468E1,-7.093083113E-3,-4.206563346E-3,2.193641663E-2
3.865553214E1,4.550065845E-3,2.205229923E-2,2.432918549E-2
3.867552961E1,-2.205841243E-2,-1.958571374E-4,3.151321411E-2
3.869552714E1,-5.385413766E-3,7.036346942E-3,2.911758423E-2
3.871552467E1,1.873810589E-2,6.228657439E-3,2.672576904E-2
3.873552220E1,-1.707958058E-2,1.082941703E-2,2.912044525E-2
3.875551967E1,1.940581948E-3,1.728665084E-4,1.475620270E-2
3.877551677E1,1.161655411E-2,-2.645254135E-3,9.968757629E-3
3.879551430E1,-7.412195206E-3,1.889791153E-2,1.954650879E-2
3.881551210E1,9.531058371E-3,-1.246496756E-2,1.954841614E-2
3.883551007E1,-2.165682614E-3,-4.472117871E-4,1.954936981E-2
3.885550807E1,1.460143737E-2,-3.493539989E-4,2.194309235E-2
3.887550613E1,-2.220444381E-3,-7.842089050E-3,3.630924225E-2
3.889550420E1,1.876187325E-2,1.583864912E-2,3.391265869E-2
3.891550233E1,7.453210652E-3,8.520804346E-3,3.391647339E-2
3.893550040E1,7.539846003E-3,3.891680390E-3,3.152179718E-2
3.895549853E1,2.437483706E-2,1.059342176E-2,1.955223083E-2
3.897549666E1,2.264779061E-3,9.261932224E-3,2.673435211E-2
3.899549479E1,-7.161587477E-3,-2.476634458E-3,2.434158325E-2
3.901549286E1,6.487850100E-3,2.415288240E-3,2.912712097E-2
3.903549093E1,1.135889441E-2,-1.173629053E-2,4.588699341E-2
3.905548906E1,-7.180087268E-4,3.527719527E-4,3.630924225E-2
3.907548762E1,-5.549460649E-3,1.014943421E-2,2.912521362E-2
3.909548569E1,8.338615298E-3,-4.346467555E-3,3.151798248E-2
3.911548349E1,1.992484927E-2,-7.003743201E-3,3.391170502E-2
3.913548119E1,-4.386465997E-3,-1.428110246E-2,2.433300018E-2
3.915547875E1,-1.799013466E-3,-1.645367965E-2,2.912235260E-2
3.917547615E1,7.732298225E-3,-9.412934072E-3,2.193927765E-2
3.919547362E1,-7.234945893E-3,1.026267186E-3,3.390598297E-2
3.921547108E1,1.212119870E-2,-5.865296349E-3,2.672290802E-2
3.923546855E1,-3.904212266E-3,-5.231311545E-3,2.672481537E-2
3.925546595E1,-3.470972180E-3,9.303282946E-3,1.714897156E-2
3.927546345E1,1.588250324E-2,-3.437902778E-4,3.151702881E-2
3.929546091E1,4.069544375E-3,-2.217106521E-4,3.630542755E-2
3.931545845E1,6.071060896E-3,4.414534196E-3,3.869724274E-2
3.933545598E1,9.755454957E-4,1.600394398E-2,3.630352020E-2
3.935545351E1,-9.034775198E-3,-5.922695622E-3,3.630256653E-2
3.937545098E1,-6.625581533E-3,-1.146832481E-3,2.193641663E-2
3.939544844E1,3.023121506E-3,3.813553602E-3,2.911949158E-2
3.941544597E1,-3.838766366E-3,6.187943742E-3,3.390884399E-2
3.943544344E1,3.711469471E-3,-3.474975005E-3,2.433395386E-2
3.945544097E1,-1.123392582E-2,1.581988111E-2,3.869628906E-2
3.947543850E1,5.426708609E-3,8.463354781E-3,2.672576904E-2
3.949543604E1,-9.217228740E-3,5.868932232E-3,3.151416779E-2
3.951543350E1,-3.176987171E-3,6.658528000E-4,2.912521362E-2
3.953543097E1,3.911864012E-3,2.456052043E-2,3.870201111E-2
3.955542850E1,-1.277427375E-2,2.947334200E-3,2.673053741E-2
3.957542600E1,2.045620233E-3,-1.976670697E-3,1.476097107E-2
3.959542346E1,-4.614070058E-4,1.022374816E-2,3.152084351E-2
3.961542086E1,-9.949877858E-3,-6.613625214E-3,1.715564728E-2
3.963541833E1,-1.668145508E-2,-3.910498694E-3,2.912807465E-2
3.965541573E1,-1.198489964E-2,5.590952933E-3,3.152275085E-2
3.967541316E1,1.733185723E-2,-6.604051217E-3,3.870677948E-2
3.969541069E1,-2.172667533E-3,-6.558161229E-3,2.912902832E-2
3.971540823E1,7.367707789E-3,2.946991473E-3,4.588890076E-2
3.973540576E1,-1.029149815E-2,-2.146063559E-2,2.912616730E-2
3.975540322E1,-7.889378816E-3,-1.358204242E-2,3.151988983E-2
3.977540076E1,-5.443129689E-3,-1.053096540E-2,3.630638123E-2
3.979539822E1,6.738904864E-3,-1.235515531E-2,4.827785492E-2
3.981539575E1,-1.461401954E-2,4.390284419E-3,3.391265869E-2
3.983539329E1,6.777342409E-3,-2.734094858E-3,2.672863007E-2
3.985539082E1,6.448924541E-4,2.752734348E-3,3.630924225E-2
3.987538828E1,-3.184594214E-3,-1.830564812E-3,3.391838074E-2
3.989538585E1,-3.936514258E-5,-4.228740931E-3,3.631591797E-2
3.991538358E1,-4.813164473E-3,5.468726158E-4,3.392124176E-2
3.993538132E1,-6.834678352E-3,-4.201794043E-3,4.110527039E-2
3.995537912E1,1.939726248E-2,-1.688951626E-3,2.673912048E-2
